"consent","trial_type","trial_index","time_elapsed","internal_node_id","subjID","study","MID","cond","drift","rt","responses","button_pressed","key_press","like","value","connected","gems","bombs","no_reward","GemPrChosen","BombPrChosen","GainOverPainPr_0","GainOverPainPr_1","GainOverPainPr_2","GainOverPainPr_3","LosePr_0","LosePr_1","LosePr_2","LosePr_3","WinPr_0","WinPr_1","WinPr_2","WinPr_3","Q0","Q1","Q2","gender","age","ethnicity","label","expt_phase","target","respCharCode","respKey","respChoiceNum","respChoice","practice","trial_counter","trial_label","Q0_index","view_history"
"GDM/GDM_behavioral_consent_30min_online.html","consent","0","11149","0.0-0.0","30648645","wem/bandit_party_1","A1TKAM6H43AJZ6","either","4","","","","","","","","","","","","","","","","","","","","","","","","","","","","","","","","","","","","","","","","","",""
"","survey-text","1","16759","0.0-1.0","30648645","wem/bandit_party_1","A1TKAM6H43AJZ6","either","4","4556","{""Q0"":""A1TKAM6H43AJZ6""}","","","","","","","","","","","","","","","","","","","","","","","","","","","","","","","","","","","","","","","",""
"","button-response","2","21104","0.0-2.0","30648645","wem/bandit_party_1","A1TKAM6H43AJZ6","either","4","3304","","0","","","","","","","","","","","","","","","","","","","","","","","","","","","","","","","","","","","","","","",""
"","text-replacement","3","31965","0.0-3.0","30648645","wem/bandit_party_1","A1TKAM6H43AJZ6","either","4","9845","","","32","","","","","","","","","","","","","","","","","","","","","","","","","","","","","","","","","","","","","",""
"","text-replacement","4","38815","0.0-4.0","30648645","wem/bandit_party_1","A1TKAM6H43AJZ6","either","4","6836","","","32","","","","","","","","","","","","","","","","","","","","","","","","","","","","","","","","","","","","","",""
"","identification","5","48044","0.0-6.0-0.0","30648645","wem/bandit_party_1","A1TKAM6H43AJZ6","either","4","9092","","","","6","6","5","","","","","","","","","","","","","","","","","","","","","","","","pre","identification_pre","the Republican party","","","","","","","","",""
"","identification","6","56864","0.0-6.0-1.0","30648645","wem/bandit_party_1","A1TKAM6H43AJZ6","either","4","7697","","","","3","3","0","","","","","","","","","","","","","","","","","","","","","","","","pre","identification_pre","the Democratic Party","","","","","","","","",""
"","text-replacement","7","106998","0.0-7.0","30648645","wem/bandit_party_1","A1TKAM6H43AJZ6","either","4","49120","","","32","","","","","","","","","","","","","","","","","","","","","","","","","","","","","","","","","","","","","",""
"","text-replacement","8","111353","0.0-8.0","30648645","wem/bandit_party_1","A1TKAM6H43AJZ6","either","4","4338","","","32","","","","","","","","","","","","","","","","","","","","","","","","","","","","","","","","","","","","","",""
"","text-replacement","9","115423","0.0-9.0","30648645","wem/bandit_party_1","A1TKAM6H43AJZ6","either","4","4052","","","32","","","","","","","","","","","","","","","","","","","","","","","","","","","","","","","","","","","","","",""
"","text-replacement","10","116800","0.0-10.0","30648645","wem/bandit_party_1","A1TKAM6H43AJZ6","either","4","1366","","","32","","","","","","","","","","","","","","","","","","","","","","","","","","","","","","","","","","","","","",""
"","text-replacement","11","119107","0.0-11.0","30648645","wem/bandit_party_1","A1TKAM6H43AJZ6","either","4","2294","","","32","","","","","","","","","","","","","","","","","","","","","","","","","","","","","","","","","","","","","",""
"","bandit","12","124163","0.0-12.0-0.0","30648645","wem/bandit_party_1","A1TKAM6H43AJZ6","either","4","3498","","","","","","","0","0","1","0","0","","","","","0","","","","0","","","","","","","","","","","","","74","J","0","img/none_selected_demo.jpg","true","0","","",""
"","bandit","13","127091","0.0-13.0-0.0","30648645","wem/bandit_party_1","A1TKAM6H43AJZ6","either","4","1369","","","","","","","0","0","1","0","0","","","","","0","","","","0","","","","","","","","","","","","","75","K","0","img/none_selected_demo.jpg","true","0","","",""
"","text-replacement","14","130565","0.0-14.0","30648645","wem/bandit_party_1","A1TKAM6H43AJZ6","either","4","3452","","","32","","","","","","","","","","","","","","","","","","","","","","","","","","","","","","","","","","","","","",""
"","text-replacement","15","135016","0.0-15.0","30648645","wem/bandit_party_1","A1TKAM6H43AJZ6","either","4","4434","","","32","","","","","","","","","","","","","","","","","","","","","","","","","","","","","","","","","","","","","",""
"","text-replacement","16","135946","0.0-16.0","30648645","wem/bandit_party_1","A1TKAM6H43AJZ6","either","4","914","","","32","","","","","","","","","","","","","","","","","","","","","","","","","","","","","","","","","","","","","",""
"","text-replacement","17","140099","0.0-17.0","30648645","wem/bandit_party_1","A1TKAM6H43AJZ6","either","4","4141","","","32","","","","","","","","","","","","","","","","","","","","","","","","","","","","","","","","","","","","","",""
"","bandit","18","143353","0.0-18.0-0.0","30648645","wem/bandit_party_1","A1TKAM6H43AJZ6","either","4","1709","","","","","","","0","0","1","0.8","","0.5","0.5","","","","","","","0.8","0.2","","","","","","","","","","","","74","J","0","img/none_selected_demo.jpg","true","0","80_20_practice","",""
"","bandit","19","147600","0.0-18.0-1.0","30648645","wem/bandit_party_1","A1TKAM6H43AJZ6","either","4","2710","","","","","","","0","1","0","","0.8","0.5","0.5","","","0.8","0.2","","","","","","","","","","","","","","","","74","J","0","img/none_selected_demo.jpg","true","0","80_20_practice","",""
"","bandit","20","150123","0.0-18.0-2.0","30648645","wem/bandit_party_1","A1TKAM6H43AJZ6","either","4","995","","","","","","","0","1","0","","0.2","0.5","0.5","","","0.8","0.2","","","","","","","","","","","","","","","","75","K","1","","true","0","80_20_practice","",""
"","bandit","21","152213","0.0-18.0-3.0","30648645","wem/bandit_party_1","A1TKAM6H43AJZ6","either","4","562","","","","","","","0","1","0","","0.8","0.5","0.5","","","0.8","0.2","","","","","","","","","","","","","","","","74","J","0","img/none_selected_demo.jpg","true","0","80_20_practice","",""
"","bandit","22","153948","0.0-18.0-4.0","30648645","wem/bandit_party_1","A1TKAM6H43AJZ6","either","4","209","","","","","","","0","1","0","","0.8","0.5","0.5","","","0.8","0.2","","","","","","","","","","","","","","","","74","J","0","img/none_selected_demo.jpg","true","0","80_20_practice","",""
"","bandit","23","156009","0.0-18.0-5.0","30648645","wem/bandit_party_1","A1TKAM6H43AJZ6","either","4","536","","","","","","","0","0","1","","0.2","0.5","0.5","","","0.8","0.2","","","","","","","","","","","","","","","","75","K","1","","true","0","80_20_practice","",""
"","bandit","24","158423","0.0-18.0-6.0","30648645","wem/bandit_party_1","A1TKAM6H43AJZ6","either","4","890","","","","","","","1","0","0","0.2","","0.5","0.5","","","","","","","0.8","0.2","","","","","","","","","","","","75","K","1","","true","0","80_20_practice","",""
"","bandit","25","160761","0.0-18.0-7.0","30648645","wem/bandit_party_1","A1TKAM6H43AJZ6","either","4","812","","","","","","","0","1","0","","0.2","0.5","0.5","","","0.8","0.2","","","","","","","","","","","","","","","","75","K","1","","true","0","80_20_practice","",""
"","bandit","26","162958","0.0-18.0-8.0","30648645","wem/bandit_party_1","A1TKAM6H43AJZ6","either","4","670","","","","","","","1","0","0","0.8","","0.5","0.5","","","","","","","0.8","0.2","","","","","","","","","","","","74","J","0","img/none_selected_demo.jpg","true","0","80_20_practice","",""
"","bandit","27","165207","0.0-18.0-9.0","30648645","wem/bandit_party_1","A1TKAM6H43AJZ6","either","4","698","","","","","","","0","0","1","","0.2","0.5","0.5","","","0.8","0.2","","","","","","","","","","","","","","","","75","K","1","","true","0","80_20_practice","",""
"","bandit","28","167838","0.0-18.0-10.0","30648645","wem/bandit_party_1","A1TKAM6H43AJZ6","either","4","1099","","","","","","","1","0","0","0.8","","0.5","0.5","","","","","","","0.8","0.2","","","","","","","","","","","","74","J","0","img/none_selected_demo.jpg","true","0","80_20_practice","",""
"","bandit","29","169666","0.0-18.0-11.0","30648645","wem/bandit_party_1","A1TKAM6H43AJZ6","either","4","306","","","","","","","1","0","0","0.2","","0.5","0.5","","","","","","","0.8","0.2","","","","","","","","","","","","75","K","1","","true","0","80_20_practice","",""
"","bandit","30","173647","0.0-18.0-12.0","30648645","wem/bandit_party_1","A1TKAM6H43AJZ6","either","4","2457","","","","","","","0","1","0","","0.8","0.5","0.5","","","0.8","0.2","","","","","","","","","","","","","","","","74","J","0","img/none_selected_demo.jpg","true","0","80_20_practice","",""
"","bandit","31","181055","0.0-18.0-13.0","30648645","wem/bandit_party_1","A1TKAM6H43AJZ6","either","4","5849","","","","","","","0","0","1","0.2","","0.5","0.5","","","","","","","0.8","0.2","","","","","","","","","","","","75","K","1","","true","0","80_20_practice","",""
"","bandit","32","183511","0.0-18.0-14.0","30648645","wem/bandit_party_1","A1TKAM6H43AJZ6","either","4","889","","","","","","","0","0","1","","0.2","0.5","0.5","","","0.8","0.2","","","","","","","","","","","","","","","","75","K","1","","true","0","80_20_practice","",""
"","bandit","33","185730","0.0-18.0-15.0","30648645","wem/bandit_party_1","A1TKAM6H43AJZ6","either","4","667","","","","","","","0","0","1","","0.2","0.5","0.5","","","0.8","0.2","","","","","","","","","","","","","","","","75","K","1","","true","0","80_20_practice","",""
"","bandit","34","187551","0.0-18.0-16.0","30648645","wem/bandit_party_1","A1TKAM6H43AJZ6","either","4","275","","","","","","","0","0","1","","0.8","0.5","0.5","","","0.8","0.2","","","","","","","","","","","","","","","","74","J","0","img/none_selected_demo.jpg","true","0","80_20_practice","",""
"","bandit","35","189653","0.0-18.0-17.0","30648645","wem/bandit_party_1","A1TKAM6H43AJZ6","either","4","561","","","","","","","0","0","1","0.2","","0.5","0.5","","","","","","","0.8","0.2","","","","","","","","","","","","75","K","1","","true","0","80_20_practice","",""
"","bandit","36","192052","0.0-18.0-18.0","30648645","wem/bandit_party_1","A1TKAM6H43AJZ6","either","4","827","","","","","","","0","0","1","","0.2","0.5","0.5","","","0.8","0.2","","","","","","","","","","","","","","","","75","K","1","","true","0","80_20_practice","",""
"","bandit","37","196341","0.0-18.0-19.0","30648645","wem/bandit_party_1","A1TKAM6H43AJZ6","either","4","2727","","","","","","","0","0","1","","0.2","0.5","0.5","","","0.8","0.2","","","","","","","","","","","","","","","","75","K","1","","true","0","80_20_practice","",""
"","text-replacement","38","201490","0.0-19.0","30648645","wem/bandit_party_1","A1TKAM6H43AJZ6","either","4","5113","","","32","","","","","","","","","","","","","","","","","","","","","","","","","","","","","","","","","","","","","",""
"","bandit","39","205236","0.0-20.0-0.0","30648645","wem/bandit_party_1","A1TKAM6H43AJZ6","either","4","2175","","","","","","","1","0","0","1","0","","","","","0","1","","","1","0","","","","","","","","","","","","74","J","0","img/none_selected_demo.jpg","true","0","","",""
"","text-replacement","40","214035","0.0-21.0","30648645","wem/bandit_party_1","A1TKAM6H43AJZ6","either","4","8767","","","32","","","","","","","","","","","","","","","","","","","","","","","","","","","","","","","","","","","","","",""
"","text-replacement","41","219591","0.0-22.0","30648645","wem/bandit_party_1","A1TKAM6H43AJZ6","either","4","5525","","","32","","","","","","","","","","","","","","","","","","","","","","","","","","","","","","","","","","","","","",""
"","text-replacement","42","221742","0.0-23.0","30648645","wem/bandit_party_1","A1TKAM6H43AJZ6","either","4","2130","","","32","","","","","","","","","","","","","","","","","","","","","","","","","","","","","","","","","","","","","",""
"","text-replacement","43","223152","0.0-24.0","30648645","wem/bandit_party_1","A1TKAM6H43AJZ6","either","4","1393","","","32","","","","","","","","","","","","","","","","","","","","","","","","","","","","","","","","","","","","","",""
"","text-replacement","44","224112","0.0-25.0","30648645","wem/bandit_party_1","A1TKAM6H43AJZ6","either","4","948","","","32","","","","","","","","","","","","","","","","","","","","","","","","","","","","","","","","","","","","","",""
"","text-replacement","45","224973","0.0-26.0","30648645","wem/bandit_party_1","A1TKAM6H43AJZ6","either","4","853","","","32","","","","","","","","","","","","","","","","","","","","","","","","","","","","","","","","","","","","","",""
"","text-replacement","46","225801","0.0-27.0","30648645","wem/bandit_party_1","A1TKAM6H43AJZ6","either","4","819","","","32","","","","","","","","","","","","","","","","","","","","","","","","","","","","","","","","","","","","","",""
"","text-replacement","47","226570","0.0-28.0","30648645","wem/bandit_party_1","A1TKAM6H43AJZ6","either","4","761","","","32","","","","","","","","","","","","","","","","","","","","","","","","","","","","","","","","","","","","","",""
"","text-replacement","48","227345","0.0-29.0","30648645","wem/bandit_party_1","A1TKAM6H43AJZ6","either","4","768","","","32","","","","","","","","","","","","","","","","","","","","","","","","","","","","","","","","","","","","","",""
"","text-replacement","49","229186","0.0-30.0","30648645","wem/bandit_party_1","A1TKAM6H43AJZ6","either","4","1834","","","32","","","","","","","","","","","","","","","","","","","","","","","","","","","","","","","","","","","","","",""
"","text-replacement","50","235910","0.0-31.0","30648645","wem/bandit_party_1","A1TKAM6H43AJZ6","either","4","6715","","","32","","","","","","","","","","","","","","","","","","","","","","","","","","","","","","","","","","","","","",""
"","bandit","51","238941","0.0-32.0-0.0","30648645","wem/bandit_party_1","A1TKAM6H43AJZ6","either","4","1489","","","","","","","0","1","0","","0.8","0.5","0.5","0.5","0.5","0.8","0.2","0.6","0.2","","","","","","","","","","","","","","72","H","0","img/none_selected.jpg","true","0","full_practice","",""
"","bandit","52","241143","0.0-32.0-1.0","30648645","wem/bandit_party_1","A1TKAM6H43AJZ6","either","4","670","","","","","","","0","0","1","0.6","","0.5","0.5","0.5","0.5","","","","","0.8","0.2","0.6","0.2","","","","","","","","","","75","K","2","","true","0","full_practice","",""
"","bandit","53","243527","0.0-32.0-2.0","30648645","wem/bandit_party_1","A1TKAM6H43AJZ6","either","4","858","","","","","","","0","0","1","","0.2","0.5","0.5","0.5","0.5","0.8","0.2","0.6","0.2","","","","","","","","","","","","","","74","J","1","","true","0","full_practice","",""
"","bandit","54","246661","0.0-32.0-3.0","30648645","wem/bandit_party_1","A1TKAM6H43AJZ6","either","4","1607","","","","","","","0","0","1","","0.2","0.5","0.5","0.5","0.5","0.8","0.2","0.6","0.2","","","","","","","","","","","","","","76","L","3","","true","0","full_practice","",""
"","bandit","55","248371","0.0-32.0-4.0","30648645","wem/bandit_party_1","A1TKAM6H43AJZ6","either","4","185","","","","","","","1","0","0","0.8","","0.5","0.5","0.5","0.5","","","","","0.8","0.2","0.6","0.2","","","","","","","","","","72","H","0","img/none_selected.jpg","true","0","full_practice","",""
"","bandit","56","250617","0.0-32.0-5.0","30648645","wem/bandit_party_1","A1TKAM6H43AJZ6","either","4","702","","","","","","","0","0","1","0.6","","0.5","0.5","0.5","0.5","","","","","0.8","0.2","0.6","0.2","","","","","","","","","","75","K","2","","true","0","full_practice","",""
"","bandit","57","252974","0.0-32.0-6.0","30648645","wem/bandit_party_1","A1TKAM6H43AJZ6","either","4","755","","","","","","","0","1","0","","0.2","0.5","0.5","0.5","0.5","0.8","0.2","0.6","0.2","","","","","","","","","","","","","","74","J","1","","true","0","full_practice","",""
"","bandit","58","255052","0.0-32.0-7.0","30648645","wem/bandit_party_1","A1TKAM6H43AJZ6","either","4","513","","","","","","","0","1","0","","0.8","0.5","0.5","0.5","0.5","0.8","0.2","0.6","0.2","","","","","","","","","","","","","","72","H","0","img/none_selected.jpg","true","0","full_practice","",""
"","bandit","59","257817","0.0-32.0-8.0","30648645","wem/bandit_party_1","A1TKAM6H43AJZ6","either","4","1226","","","","","","","0","1","0","","0.2","0.5","0.5","0.5","0.5","0.8","0.2","0.6","0.2","","","","","","","","","","","","","","76","L","3","","true","0","full_practice","",""
"","bandit","60","259663","0.0-32.0-9.0","30648645","wem/bandit_party_1","A1TKAM6H43AJZ6","either","4","317","","","","","","","0","0","1","","0.2","0.5","0.5","0.5","0.5","0.8","0.2","0.6","0.2","","","","","","","","","","","","","","74","J","1","","true","0","full_practice","",""
"","bandit","61","261567","0.0-32.0-10.0","30648645","wem/bandit_party_1","A1TKAM6H43AJZ6","either","4","357","","","","","","","0","0","1","0.8","","0.5","0.5","0.5","0.5","","","","","0.8","0.2","0.6","0.2","","","","","","","","","","72","H","0","img/none_selected.jpg","true","0","full_practice","",""
"","bandit","62","263510","0.0-32.0-11.0","30648645","wem/bandit_party_1","A1TKAM6H43AJZ6","either","4","371","","","","","","","1","0","0","0.6","","0.5","0.5","0.5","0.5","","","","","0.8","0.2","0.6","0.2","","","","","","","","","","75","K","2","","true","0","full_practice","",""
"","bandit","63","265754","0.0-32.0-12.0","30648645","wem/bandit_party_1","A1TKAM6H43AJZ6","either","4","689","","","","","","","1","0","0","0.8","","0.5","0.5","0.5","0.5","","","","","0.8","0.2","0.6","0.2","","","","","","","","","","72","H","0","img/none_selected.jpg","true","0","full_practice","",""
"","bandit","64","267733","0.0-32.0-13.0","30648645","wem/bandit_party_1","A1TKAM6H43AJZ6","either","4","442","","","","","","","0","1","0","","0.8","0.5","0.5","0.5","0.5","0.8","0.2","0.6","0.2","","","","","","","","","","","","","","72","H","0","img/none_selected.jpg","true","0","full_practice","",""
"","bandit","65","269735","0.0-32.0-14.0","30648645","wem/bandit_party_1","A1TKAM6H43AJZ6","either","4","431","","","","","","","0","0","1","0.2","","0.5","0.5","0.5","0.5","","","","","0.8","0.2","0.6","0.2","","","","","","","","","","74","J","1","","true","0","full_practice","",""
"","bandit","66","271740","0.0-32.0-15.0","30648645","wem/bandit_party_1","A1TKAM6H43AJZ6","either","4","438","","","","","","","1","0","0","0.2","","0.5","0.5","0.5","0.5","","","","","0.8","0.2","0.6","0.2","","","","","","","","","","76","L","3","","true","0","full_practice","",""
"","bandit","67","273708","0.0-32.0-16.0","30648645","wem/bandit_party_1","A1TKAM6H43AJZ6","either","4","426","","","","","","","0","0","1","","0.2","0.5","0.5","0.5","0.5","0.8","0.2","0.6","0.2","","","","","","","","","","","","","","76","L","3","","true","0","full_practice","",""
"","bandit","68","275786","0.0-32.0-17.0","30648645","wem/bandit_party_1","A1TKAM6H43AJZ6","either","4","502","","","","","","","1","0","0","0.6","","0.5","0.5","0.5","0.5","","","","","0.8","0.2","0.6","0.2","","","","","","","","","","75","K","2","","true","0","full_practice","",""
"","bandit","69","277904","0.0-32.0-18.0","30648645","wem/bandit_party_1","A1TKAM6H43AJZ6","either","4","553","","","","","","","1","0","0","0.6","","0.5","0.5","0.5","0.5","","","","","0.8","0.2","0.6","0.2","","","","","","","","","","75","K","2","","true","0","full_practice","",""
"","bandit","70","280262","0.0-32.0-19.0","30648645","wem/bandit_party_1","A1TKAM6H43AJZ6","either","4","808","","","","","","","0","0","1","","0.6","0.5","0.5","0.5","0.5","0.8","0.2","0.6","0.2","","","","","","","","","","","","","","75","K","2","","true","0","full_practice","",""
"","text","71","284969","0.0-33.0","30648645","wem/bandit_party_1","A1TKAM6H43AJZ6","either","4","4643","","","32","","","","","","","","","","","","","","","","","","","","","","","","","","","","","","","","","","","","","",""
"","text-replacement","72","287215","0.0-34.0","30648645","wem/bandit_party_1","A1TKAM6H43AJZ6","either","4","1211","","","32","","","","","","","","","","","","","","","","","","","","","","","","","","","","","","","","","","","","","",""
"","text-replacement","73","287788","0.0-35.0","30648645","wem/bandit_party_1","A1TKAM6H43AJZ6","either","4","540","","","32","","","","","","","","","","","","","","","","","","","","","","","","","","","","","","","","","","","","","",""
"","text-replacement","74","288444","0.0-36.0","30648645","wem/bandit_party_1","A1TKAM6H43AJZ6","either","4","635","","","32","","","","","","","","","","","","","","","","","","","","","","","","","","","","","","","","","","","","","",""
"","text-replacement","75","289097","0.0-37.0","30648645","wem/bandit_party_1","A1TKAM6H43AJZ6","either","4","630","","","32","","","","","","","","","","","","","","","","","","","","","","","","","","","","","","","","","","","","","",""
"","text-replacement","76","290086","0.0-38.0","30648645","wem/bandit_party_1","A1TKAM6H43AJZ6","either","4","975","","","32","","","","","","","","","","","","","","","","","","","","","","","","","","","","","","","","","","","","","",""
"","survey-multi-choice-replacement","77","298278","0.0-39.0-0.0","30648645","wem/bandit_party_1","A1TKAM6H43AJZ6","either","4","8118","","","","","","","","","","","","","","","","","","","","","","","","Money will be added to the pool for <span style='color:red;'>REPUBLICANS</span>","","","","","","","attn_check","","","","","","","","","0",""
"","survey-multi-choice-replacement","78","306012","0.0-40.0-0.0","30648645","wem/bandit_party_1","A1TKAM6H43AJZ6","either","4","6586","","","","","","","","","","","","","","","","","","","","","","","","Money will be subtracted from the pool for <span style='color:blue;'>DEMOCRATS</span>","","","","","","","attn_check","","","","","","","","","1",""
"","instructions","79","308845","0.0-40.0-1.0-0.0","30648645","wem/bandit_party_1","A1TKAM6H43AJZ6","either","4","1784","","","","","","","","","","","","","","","","","","","","","","","","","","","","","","","","","","","","","","","","","[{""page_index"":0,""viewing_time"":1782}]"
"","survey-multi-choice-replacement","80","314032","0.0-40.1-0.1","30648645","wem/bandit_party_1","A1TKAM6H43AJZ6","either","4","4107","","","","","","","","","","","","","","","","","","","","","","","","No money will be added to either pool","","","","","","","attn_check","","","","","","","","","3",""
"","instructions","81","316329","0.0-40.1-1.1-0.1","30648645","wem/bandit_party_1","A1TKAM6H43AJZ6","either","4","1283","","","","","","","","","","","","","","","","","","","","","","","","","","","","","","","","","","","","","","","","","[{""page_index"":0,""viewing_time"":1281}]"
"","survey-multi-choice-replacement","82","319344","0.0-40.2-0.2","30648645","wem/bandit_party_1","A1TKAM6H43AJZ6","either","4","1961","","","","","","","","","","","","","","","","","","","","","","","","Equal amounts of money will be added to the pool for <span style='color:red;'>REPUBLICANS</span> and subtracted from the pool for <span style='color:blue;'>DEMOCRATS</span>","","","","","","","attn_check","","","","","","","","","2",""
"","survey-multi-choice-replacement","83","324267","0.0-41.0-0.0","30648645","wem/bandit_party_1","A1TKAM6H43AJZ6","either","4","3866","","","","","","","","","","","","","","","","","","","","","","","","No money will be added to either pool","","","","","","","attn_check","","","","","","","","","3",""
"","bandit","84","329309","0.0-42.0-0.0","30648645","wem/bandit_party_1","A1TKAM6H43AJZ6","either","4","2444","","","","","","","0","0","1","0.3894728165","","0.2","0.8","0.4","0.6","","","","","0.3894728165","0.3525715257","0.2771551185","0.3242650943","","","","","","","","","","72","H","0","img/none_selected.jpg","","1","main_expt","",""
"","bandit","85","331757","0.0-43.0-0.0","30648645","wem/bandit_party_1","A1TKAM6H43AJZ6","either","4","900","","","","","","","1","0","0","0.390153736","","0.2","0.8","0.4","0.6","","","","","0.363660736","0.390153736","0.3030893157","0.3296228245","","","","","","","","","","74","J","1","","","2","main_expt","",""
"","bandit","86","335210","0.0-44.0-0.0","30648645","wem/bandit_party_1","A1TKAM6H43AJZ6","either","4","1866","","","","","","","0","0","1","","0.3211059343","0.2","0.8","0.4","0.6","0.3842171554","0.3725447061","0.3211059343","0.3102780753","","","","","","","","","","","","","","75","K","2","","","3","main_expt","",""
"","bandit","87","337225","0.0-45.0-0.0","30648645","wem/bandit_party_1","A1TKAM6H43AJZ6","either","4","451","","","","","","","0","0","1","0.3431524481","","0.2","0.8","0.4","0.6","","","","","0.3831963053","0.3431524481","0.2804386453","0.2749892112","","","","","","","","","","74","J","1","","","4","main_expt","",""
"","bandit","88","338865","0.0-46.0-0.0","30648645","wem/bandit_party_1","A1TKAM6H43AJZ6","either","4","81","","","","","","","1","0","0","0.3037824898","","0.2","0.8","0.4","0.6","","","","","0.4056596471","0.3448007793","0.2609559086","0.3037824898","","","","","","","","","","76","L","3","","","5","main_expt","",""
"","bandit","89","341240","0.0-47.0-0.0","30648645","wem/bandit_party_1","A1TKAM6H43AJZ6","either","4","789","","","","","","","1","0","0","0.4409946319","","0.2","0.8","0.4","0.6","","","","","0.4409946319","0.3980888019","0.2259287768","0.3217417103","","","","","","","","","","72","H","0","img/none_selected.jpg","","6","main_expt","",""
"","bandit","90","343562","0.0-48.0-0.0","30648645","wem/bandit_party_1","A1TKAM6H43AJZ6","either","4","757","","","","","","","1","0","0","0.2433618728","","0.2","0.8","0.4","0.6","","","","","0.3821747998","0.3693121862","0.2433618728","0.3018715163","","","","","","","","","","75","K","2","","","7","main_expt","",""
"","bandit","91","345686","0.0-49.0-0.0","30648645","wem/bandit_party_1","A1TKAM6H43AJZ6","either","4","581","","","","","","","0","0","1","0.2933697555","","0.2","0.8","0.4","0.6","","","","","0.3841844813","0.2933697555","0.2025356769","0.3643645816","","","","","","","","","","74","J","1","","","8","main_expt","",""
"","bandit","92","347828","0.0-50.0-0.0","30648645","wem/bandit_party_1","A1TKAM6H43AJZ6","either","4","553","","","","","","","0","0","1","0.1441028094","","0.2","0.8","0.4","0.6","","","","","0.3412237964","0.3036212831","0.1441028094","0.3418610374","","","","","","","","","","75","K","2","","","9","main_expt","",""
"","bandit","93","349906","0.0-51.0-0.0","30648645","wem/bandit_party_1","A1TKAM6H43AJZ6","either","4","505","","","","","","","0","1","0","","0.1736005971","0.2","0.8","0.4","0.6","0.3256420777","0.308020301","0.1736005971","0.3190157878","","","","","","","","","","","","","","75","K","2","","","10","main_expt","",""
"","bandit","94","352044","0.0-52.0-0.0","30648645","wem/bandit_party_1","A1TKAM6H43AJZ6","either","4","592","","","","","","","0","1","0","","0.3514007431","0.2","0.8","0.4","0.6","0.3514007431","0.3065973113","0.1836365694","0.2998731478","","","","","","","","","","","","","","72","H","0","img/none_selected.jpg","","11","main_expt","",""
"","bandit","95","353586","0.0-53.0-0.0","30648645","wem/bandit_party_1","A1TKAM6H43AJZ6","either","4","2","","","","","","","0","0","1","","0.2942822571","0.2","0.8","0.4","0.6","0.3722032088","0.3271859636","0.2143869662","0.2942822571","","","","","","","","","","","","","","76","L","3","","","12","main_expt","",""
"","bandit","96","355448","0.0-54.0-0.0","30648645","wem/bandit_party_1","A1TKAM6H43AJZ6","either","4","328","","","","","","","0","0","1","0.3009212619","","0.2","0.8","0.4","0.6","","","","","0.3681707299","0.2761076709","0.1637139448","0.3009212619","","","","","","","","","","76","L","3","","","13","main_expt","",""
"","bandit","97","357421","0.0-55.0-0.0","30648645","wem/bandit_party_1","A1TKAM6H43AJZ6","either","4","426","","","","","","","0","1","0","","0.3227424667","0.2","0.8","0.4","0.6","0.3528222564","0.2311164494","0.1488535162","0.3227424667","","","","","","","","","","","","","","76","L","3","","","14","main_expt","",""
"","bandit","98","359472","0.0-56.0-0.0","30648645","wem/bandit_party_1","A1TKAM6H43AJZ6","either","4","518","","","","","","","0","0","1","0.2905977425","","0.2","0.8","0.4","0.6","","","","","0.3738838661","0.2905977425","0.1332411271","0.3547546862","","","","","","","","","","74","J","1","","","15","main_expt","",""
"","bandit","99","361918","0.0-57.0-0.0","30648645","wem/bandit_party_1","A1TKAM6H43AJZ6","either","4","914","","","","","","","0","0","1","","0.09882415698","0.2","0.8","0.4","0.6","0.3385239332","0.2924554969","0.09882415698","0.3241157583","","","","","","","","","","","","","","75","K","2","","","16","main_expt","",""
"","bandit","100","364110","0.0-58.0-0.0","30648645","wem/bandit_party_1","A1TKAM6H43AJZ6","either","4","661","","","","","","","0","0","1","","0.3111355138","0.2","0.8","0.4","0.6","0.3111355138","0.3114836302","0.1069157009","0.3363410386","","","","","","","","","","","","","","72","H","0","img/none_selected.jpg","","17","main_expt","",""
"","bandit","101","366118","0.0-59.0-0.0","30648645","wem/bandit_party_1","A1TKAM6H43AJZ6","either","4","459","","","","","","","1","0","0","0.3487767647","","0.2","0.8","0.4","0.6","","","","","0.3487767647","0.3215333475","0.134958137","0.3880947854","","","","","","","","","","72","H","0","img/none_selected.jpg","","18","main_expt","",""
"","bandit","102","368195","0.0-60.0-0.0","30648645","wem/bandit_party_1","A1TKAM6H43AJZ6","either","4","538","","","","","","","0","1","0","","0.3010303499","0.2","0.8","0.4","0.6","0.3010303499","0.2733398822","0.1230418706","0.4116912081","","","","","","","","","","","","","","72","H","0","img/none_selected.jpg","","19","main_expt","",""
"","bandit","103","370084","0.0-61.0-0.0","30648645","wem/bandit_party_1","A1TKAM6H43AJZ6","either","4","356","","","","","","","0","0","1","","0.2907203997","0.2","0.8","0.4","0.6","0.2907203997","0.2351410235","0.09866604889","0.3973894305","","","","","","","","","","","","","","72","H","0","img/none_selected.jpg","","20","main_expt","",""
"","bandit","104","372150","0.0-62.0-0.0","30648645","wem/bandit_party_1","A1TKAM6H43AJZ6","either","4","536","","","","","","","0","0","1","","0.3088108907","0.2","0.8","0.4","0.6","0.3088108907","0.2257810982","0.1021222834","0.369037109","","","","","","","","","","","","","","72","H","0","img/none_selected.jpg","","21","main_expt","",""
"","bandit","105","374189","0.0-63.0-0.0","30648645","wem/bandit_party_1","A1TKAM6H43AJZ6","either","4","510","","","","","","","0","1","0","","0.349202701","0.2","0.8","0.4","0.6","0.349202701","0.2221856846","0.1234138809","0.4179468344","","","","","","","","","","","","","","72","H","0","img/none_selected.jpg","","22","main_expt","",""
"","bandit","106","376101","0.0-64.0-0.0","30648645","wem/bandit_party_1","A1TKAM6H43AJZ6","either","4","378","","","","","","","0","0","1","","0.4276062926","0.2","0.8","0.4","0.6","0.3785068464","0.2127124712","0.1030640584","0.4276062926","","","","","","","","","","","","","","76","L","3","","","23","main_expt","",""
"","bandit","107","378074","0.0-65.0-0.0","30648645","wem/bandit_party_1","A1TKAM6H43AJZ6","either","4","444","","","","","","","0","1","0","","0.4078122208","0.2","0.8","0.4","0.6","0.4012919653","0.1882566648","0.1261035851","0.4078122208","","","","","","","","","","","","","","76","L","3","","","24","main_expt","",""
"","bandit","108","380125","0.0-66.0-0.0","30648645","wem/bandit_party_1","A1TKAM6H43AJZ6","either","4","522","","","","","","","0","0","1","0.3950411191","","0.2","0.8","0.4","0.6","","","","","0.400899794","0.1273223766","0.1796705612","0.3950411191","","","","","","","","","","76","L","3","","","25","main_expt","",""
"","bandit","109","382471","0.0-67.0-0.0","30648645","wem/bandit_party_1","A1TKAM6H43AJZ6","either","4","817","","","","","","","0","0","1","0.4126274585","","0.2","0.8","0.4","0.6","","","","","0.4126274585","0.15747458","0.2414651519","0.4322303329","","","","","","","","","","72","H","0","img/none_selected.jpg","","26","main_expt","",""
"","bandit","110","384492","0.0-68.0-0.0","30648645","wem/bandit_party_1","A1TKAM6H43AJZ6","either","4","491","","","","","","","0","1","0","","0.2005374927","0.2","0.8","0.4","0.6","0.3992263875","0.1442684908","0.2005374927","0.4353643722","","","","","","","","","","","","","","75","K","2","","","27","main_expt","",""
"","bandit","111","386372","0.0-69.0-0.0","30648645","wem/bandit_party_1","A1TKAM6H43AJZ6","either","4","350","","","","","","","1","0","0","0.2255404594","","0.2","0.8","0.4","0.6","","","","","0.3846584236","0.2255404594","0.3197257227","0.4464017809","","","","","","","","","","74","J","1","","","28","main_expt","",""
"","bandit","112","388762","0.0-70.0-0.0","30648645","wem/bandit_party_1","A1TKAM6H43AJZ6","either","4","852","","","","","","","1","0","0","0.2730951691","","0.2","0.8","0.4","0.6","","","","","0.3561298134","0.2730951691","0.3141869899","0.4417109462","","","","","","","","","","74","J","1","","","29","main_expt","",""
"","bandit","113","390857","0.0-71.0-0.0","30648645","wem/bandit_party_1","A1TKAM6H43AJZ6","either","4","564","","","","","","","1","0","0","0.2890412698","","0.2","0.8","0.4","0.6","","","","","0.3101363315","0.2890412698","0.3445991012","0.4065908859","","","","","","","","","","74","J","1","","","30","main_expt","",""
"","bandit","114","393078","0.0-72.0-0.0","30648645","wem/bandit_party_1","A1TKAM6H43AJZ6","either","4","693","","","","","","","1","0","0","0.3309226042","","0.2","0.8","0.4","0.6","","","","","0.3322219809","0.3309226042","0.3456655029","0.3954582793","","","","","","","","","","74","J","1","","","31","main_expt","",""
"","bandit","115","395579","0.0-73.0-0.0","30648645","wem/bandit_party_1","A1TKAM6H43AJZ6","either","4","954","","","","","","","0","0","1","","0.3519301717","0.2","0.8","0.4","0.6","0.3516269472","0.3519301717","0.3826172224","0.3716723047","","","","","","","","","","","","","","74","J","1","","","32","main_expt","",""
"","bandit","116","397562","0.0-74.0-0.0","30648645","wem/bandit_party_1","A1TKAM6H43AJZ6","either","4","406","","","","","","","1","0","0","0.3804083149","","0.2","0.8","0.4","0.6","","","","","0.3852085553","0.3414953842","0.3804083149","0.3799724366","","","","","","","","","","75","K","2","","","33","main_expt","",""
"","bandit","117","399870","0.0-75.0-0.0","30648645","wem/bandit_party_1","A1TKAM6H43AJZ6","either","4","748","","","","","","","0","0","1","0.3808178469","","0.2","0.8","0.4","0.6","","","","","0.4196644934","0.2938412915","0.3808178469","0.409480615","","","","","","","","","","75","K","2","","","34","main_expt","",""
"","bandit","118","402416","0.0-76.0-0.0","30648645","wem/bandit_party_1","A1TKAM6H43AJZ6","either","4","998","","","","","","","1","0","0","0.2256616696","","0.2","0.8","0.4","0.6","","","","","0.420891004","0.2256616696","0.376129724","0.3869649509","","","","","","","","","","74","J","1","","","35","main_expt","",""
"","bandit","119","405024","0.0-77.0-0.0","30648645","wem/bandit_party_1","A1TKAM6H43AJZ6","either","4","1029","","","","","","","0","0","1","0.2525957923","","0.2","0.8","0.4","0.6","","","","","0.3808881167","0.2525957923","0.4027809904","0.3045389962","","","","","","","","","","74","J","1","","","36","main_expt","",""
"","bandit","120","407009","0.0-78.0-0.0","30648645","wem/bandit_party_1","A1TKAM6H43AJZ6","either","4","431","","","","","","","0","0","1","","0.3634360393","0.2","0.8","0.4","0.6","0.3634360393","0.2333373749","0.3715556026","0.2954217214","","","","","","","","","","","","","","72","H","0","img/none_selected.jpg","","37","main_expt","",""
"","bandit","121","408582","0.0-79.0-0.0","30648645","wem/bandit_party_1","A1TKAM6H43AJZ6","either","4","29","","","","","","","0","0","1","0.2749906923","","0.2","0.8","0.4","0.6","","","","","0.3432691328","0.2126884676","0.354842885","0.2749906923","","","","","","","","","","76","L","3","","","38","main_expt","",""
"","bandit","122","410351","0.0-80.0-0.0","30648645","wem/bandit_party_1","A1TKAM6H43AJZ6","either","4","194","","","","","","","0","0","1","0.3066825603","","0.2","0.8","0.4","0.6","","","","","0.3113322025","0.212498526","0.3066825603","0.2911873598","","","","","","","","","","75","K","2","","","39","main_expt","",""
"","bandit","123","412282","0.0-81.0-0.0","30648645","wem/bandit_party_1","A1TKAM6H43AJZ6","either","4","358","","","","","","","0","0","1","0.2031275136","","0.2","0.8","0.4","0.6","","","","","0.3298138996","0.2031275136","0.3208648015","0.3066149412","","","","","","","","","","74","J","1","","","40","main_expt","",""
"","bandit","124","414258","0.0-82.0-0.0","30648645","wem/bandit_party_1","A1TKAM6H43AJZ6","either","4","427","","","","","","","0","0","1","","0.3590557929","0.2","0.8","0.4","0.6","0.3590557929","0.2409224204","0.2774570704","0.2612722093","","","","","","","","","","","","","","72","H","0","img/none_selected.jpg","","41","main_expt","",""
"","bandit","125","416955","0.0-83.0-0.0","30648645","wem/bandit_party_1","A1TKAM6H43AJZ6","either","4","1105","","","","","","","0","0","1","0.2579482203","","0.2","0.8","0.4","0.6","","","","","0.3455434044","0.2166695961","0.3092882543","0.2579482203","","","","","","","","","","76","L","3","","","42","main_expt","",""
"","bandit","126","419017","0.0-84.0-0.0","30648645","wem/bandit_party_1","A1TKAM6H43AJZ6","either","4","481","","","","","","","0","0","1","0.2232302517","","0.2","0.8","0.4","0.6","","","","","0.4020043176","0.2314197793","0.3161251671","0.2232302517","","","","","","","","","","76","L","3","","","43","main_expt","",""
"","bandit","127","421048","0.0-85.0-0.0","30648645","wem/bandit_party_1","A1TKAM6H43AJZ6","either","4","464","","","","","","","0","0","1","","0.3032549762","0.2","0.8","0.4","0.6","0.4088695108","0.1889371852","0.3032549762","0.2435669349","","","","","","","","","","","","","","75","K","2","","","44","main_expt","",""
"","bandit","128","422765","0.0-86.0-0.0","30648645","wem/bandit_party_1","A1TKAM6H43AJZ6","either","4","128","","","","","","","0","0","1","0.1885724617","","0.2","0.8","0.4","0.6","","","","","0.3914045207","0.2152104473","0.3012359134","0.1885724617","","","","","","","","","","76","L","3","","","45","main_expt","",""
"","bandit","129","424695","0.0-87.0-0.0","30648645","wem/bandit_party_1","A1TKAM6H43AJZ6","either","4","355","","","","","","","0","0","1","","0.3682142312","0.2","0.8","0.4","0.6","0.3682142312","0.2260726972","0.2994346937","0.104230756","","","","","","","","","","","","","","72","H","0","img/none_selected.jpg","","46","main_expt","",""
"","bandit","130","426601","0.0-88.0-0.0","30648645","wem/bandit_party_1","A1TKAM6H43AJZ6","either","4","358","","","","","","","0","0","1","","0.3462276735","0.2","0.8","0.4","0.6","0.3462276735","0.2330399618","0.3169549043","0.09013225529","","","","","","","","","","","","","","72","H","0","img/none_selected.jpg","","47","main_expt","",""
"","bandit","131","428763","0.0-89.0-0.0","30648645","wem/bandit_party_1","A1TKAM6H43AJZ6","either","4","618","","","","","","","0","1","0","","0.3501405617","0.2","0.8","0.4","0.6","0.3501405617","0.2769685944","0.3137179834","0.1066227192","","","","","","","","","","","","","","72","H","0","img/none_selected.jpg","","48","main_expt","",""
"","bandit","132","430684","0.0-90.0-0.0","30648645","wem/bandit_party_1","A1TKAM6H43AJZ6","either","4","378","","","","","","","1","0","0","0.2954986192","","0.2","0.8","0.4","0.6","","","","","0.3607669766","0.2954986192","0.3026837323","0.1273062614","","","","","","","","","","74","J","1","","","49","main_expt","",""
"","bandit","133","432923","0.0-91.0-0.0","30648645","wem/bandit_party_1","A1TKAM6H43AJZ6","either","4","706","","","","","","","0","0","1","","0.2730110453","0.2","0.8","0.4","0.6","0.3776327681","0.2730110453","0.2690248343","0.08158159543","","","","","","","","","","","","","","74","J","1","","","50","main_expt","",""
"","bandit","134","434922","0.0-92.0-0.0","30648645","wem/bandit_party_1","A1TKAM6H43AJZ6","either","4","466","","","","","","","0","0","1","","0.2407215714","0.2","0.8","0.4","0.6","0.3922012959","0.2672659715","0.2407215714","0.08035098666","","","","","","","","","","","","","","75","K","2","","","51","main_expt","",""
"","bandit","135","436823","0.0-93.0-0.0","30648645","wem/bandit_party_1","A1TKAM6H43AJZ6","either","4","370","","","","","","","0","0","1","","0.2758158767","0.2","0.8","0.4","0.6","0.3532085343","0.2552972095","0.2758158767","0.1007468434","","","","","","","","","","","","","","75","K","2","","","52","main_expt","",""
"","bandit","136","438767","0.0-94.0-0.0","30648645","wem/bandit_party_1","A1TKAM6H43AJZ6","either","4","411","","","","","","","0","0","1","0.3597378762","","0.2","0.8","0.4","0.6","","","","","0.3597378762","0.1954439593","0.2661511239","0.1479770317","","","","","","","","","","72","H","0","img/none_selected.jpg","","53","main_expt","",""
"","bandit","137","440574","0.0-95.0-0.0","30648645","wem/bandit_party_1","A1TKAM6H43AJZ6","either","4","275","","","","","","","0","0","1","0.1450389045","","0.2","0.8","0.4","0.6","","","","","0.3553644404","0.1250298759","0.250303373","0.1450389045","","","","","","","","","","76","L","3","","","54","main_expt","",""
"","bandit","138","442566","0.0-96.0-0.0","30648645","wem/bandit_party_1","A1TKAM6H43AJZ6","either","4","448","","","","","","","0","0","1","0.1678096349","","0.2","0.8","0.4","0.6","","","","","0.3427354451","0.1224949652","0.1850572083","0.1678096349","","","","","","","","","","76","L","3","","","55","main_expt","",""
"","bandit","139","444520","0.0-97.0-0.0","30648645","wem/bandit_party_1","A1TKAM6H43AJZ6","either","4","416","","","","","","","0","0","1","","0.2410157884","0.2","0.8","0.4","0.6","0.3158877586","0.1312048923","0.2410157884","0.1748395718","","","","","","","","","","","","","","75","K","2","","","56","main_expt","",""
"","bandit","140","446263","0.0-98.0-0.0","30648645","wem/bandit_party_1","A1TKAM6H43AJZ6","either","4","212","","","","","","","1","0","0","0.146986137","","0.2","0.8","0.4","0.6","","","","","0.3224611445","0.14452077","0.2657224069","0.146986137","","","","","","","","","","76","L","3","","","57","main_expt","",""
"","bandit","141","448280","0.0-99.0-0.0","30648645","wem/bandit_party_1","A1TKAM6H43AJZ6","either","4","485","","","","","","","0","0","1","","0.1198415177","0.2","0.8","0.4","0.6","0.3378672788","0.1198415177","0.2361308133","0.1316135006","","","","","","","","","","","","","","74","J","1","","","58","main_expt","",""
"","bandit","142","450294","0.0-100.0-0.0","30648645","wem/bandit_party_1","A1TKAM6H43AJZ6","either","4","482","","","","","","","1","0","0","0.1674914914","","0.2","0.8","0.4","0.6","","","","","0.3438075972","0.1674914914","0.2078360154","0.1776120447","","","","","","","","","","74","J","1","","","59","main_expt","",""
"","bandit","143","452645","0.0-101.0-0.0","30648645","wem/bandit_party_1","A1TKAM6H43AJZ6","either","4","819","","","","","","","1","0","0","0.147959707","","0.2","0.8","0.4","0.6","","","","","0.2950987239","0.147959707","0.2256957235","0.2034864675","","","","","","","","","","74","J","1","","","60","main_expt","",""
"","bandit","144","455147","0.0-102.0-0.0","30648645","wem/bandit_party_1","A1TKAM6H43AJZ6","either","4","969","","","","","","","0","0","1","0.1217284172","","0.2","0.8","0.4","0.6","","","","","0.2939622289","0.1217284172","0.2713547376","0.1325668513","","","","","","","","","","74","J","1","","","61","main_expt","",""
"","bandit","145","457646","0.0-103.0-0.0","30648645","wem/bandit_party_1","A1TKAM6H43AJZ6","either","4","969","","","","","","","0","0","1","0.1392905859","","0.2","0.8","0.4","0.6","","","","","0.2907096119","0.1392905859","0.2800078023","0.125492747","","","","","","","","","","74","J","1","","","62","main_expt","",""
"","bandit","146","460064","0.0-104.0-0.0","30648645","wem/bandit_party_1","A1TKAM6H43AJZ6","either","4","887","","","","","","","0","0","1","0.362183352","","0.2","0.8","0.4","0.6","","","","","0.2696382907","0.1953314019","0.362183352","0.1081989139","","","","","","","","","","75","K","2","","","63","main_expt","",""
"","bandit","147","462245","0.0-105.0-0.0","30648645","wem/bandit_party_1","A1TKAM6H43AJZ6","either","4","648","","","","","","","1","0","0","0.09104284411","","0.2","0.8","0.4","0.6","","","","","0.2496415039","0.2618523415","0.3354395381","0.09104284411","","","","","","","","","","76","L","3","","","64","main_expt","",""
"","bandit","148","464521","0.0-106.0-0.0","30648645","wem/bandit_party_1","A1TKAM6H43AJZ6","either","4","728","","","","","","","0","0","1","","0.1264903162","0.2","0.8","0.4","0.6","0.2364994079","0.2686672798","0.2893845237","0.1264903162","","","","","","","","","","","","","","76","L","3","","","65","main_expt","",""
"","bandit","149","467613","0.0-107.0-0.0","30648645","wem/bandit_party_1","A1TKAM6H43AJZ6","either","4","1512","","","","","","","0","0","1","","0.2541683514","0.2","0.8","0.4","0.6","0.2541683514","0.2451656397","0.2355717356","0.1665937301","","","","","","","","","","","","","","72","H","0","img/none_selected.jpg","","66","main_expt","",""
"","bandit","150","469547","0.0-108.0-0.0","30648645","wem/bandit_party_1","A1TKAM6H43AJZ6","either","4","374","","","","","","","0","1","0","","0.2445320338","0.2","0.8","0.4","0.6","0.2985471382","0.2445320338","0.2848755716","0.1740025863","","","","","","","","","","","","","","74","J","1","","","67","main_expt","",""
"","bandit","151","471750","0.0-109.0-0.0","30648645","wem/bandit_party_1","A1TKAM6H43AJZ6","either","4","620","","","","","","","0","1","0","","0.2300011382","0.2","0.8","0.4","0.6","0.3391290389","0.2261158315","0.3341158043","0.2300011382","","","","","","","","","","","","","","76","L","3","","","68","main_expt","",""
"","bandit","152","473844","0.0-110.0-0.0","30648645","wem/bandit_party_1","A1TKAM6H43AJZ6","either","4","519","","","","","","","0","0","1","","0.3253412689","0.2","0.8","0.4","0.6","0.3114764975","0.1627286519","0.3253412689","0.1768594062","","","","","","","","","","","","","","75","K","2","","","69","main_expt","",""
"","bandit","153","475927","0.0-111.0-0.0","30648645","wem/bandit_party_1","A1TKAM6H43AJZ6","either","4","533","","","","","","","0","0","1","","0.3280915152","0.2","0.8","0.4","0.6","0.3056328376","0.1301009224","0.3280915152","0.1906145184","","","","","","","","","","","","","","75","K","2","","","70","main_expt","",""
"","bandit","154","478121","0.0-112.0-0.0","30648645","wem/bandit_party_1","A1TKAM6H43AJZ6","either","4","617","","","","","","","0","1","0","","0.3445325487","0.2","0.8","0.4","0.6","0.3445325487","0.1356707761","0.3772643828","0.1451664327","","","","","","","","","","","","","","72","H","0","img/none_selected.jpg","","71","main_expt","",""
"","bandit","155","480115","0.0-113.0-0.0","30648645","wem/bandit_party_1","A1TKAM6H43AJZ6","either","4","415","","","","","","","0","0","1","0.1091447996","","0.2","0.8","0.4","0.6","","","","","0.364612409","0.1045412551","0.4074174212","0.1091447996","","","","","","","","","","76","L","3","","","72","main_expt","",""
"","bandit","156","482568","0.0-114.0-0.0","30648645","wem/bandit_party_1","A1TKAM6H43AJZ6","either","4","895","","","","","","","0","0","1","0.1248737042","","0.2","0.8","0.4","0.6","","","","","0.4454774056","0.0867882282","0.3736299767","0.1248737042","","","","","","","","","","76","L","3","","","73","main_expt","",""
"","bandit","157","484562","0.0-115.0-0.0","30648645","wem/bandit_party_1","A1TKAM6H43AJZ6","either","4","410","","","","","","","0","0","1","0.1073746888","","0.2","0.8","0.4","0.6","","","","","0.4492830973","0.1018359722","0.383211712","0.1073746888","","","","","","","","","","76","L","3","","","74","main_expt","",""
"","bandit","158","486768","0.0-116.0-0.0","30648645","wem/bandit_party_1","A1TKAM6H43AJZ6","either","4","622","","","","","","","0","0","1","","0.1051395745","0.2","0.8","0.4","0.6","0.449321966","0.09443707336","0.3681962321","0.1051395745","","","","","","","","","","","","","","76","L","3","","","75","main_expt","",""
"","bandit","159","489415","0.0-117.0-0.0","30648645","wem/bandit_party_1","A1TKAM6H43AJZ6","either","4","1092","","","","","","","0","1","0","","0.09171451076","0.2","0.8","0.4","0.6","0.4299726132","0.08768691443","0.3574328021","0.09171451076","","","","","","","","","","","","","","76","L","3","","","76","main_expt","",""
"","bandit","160","491491","0.0-118.0-0.0","30648645","wem/bandit_party_1","A1TKAM6H43AJZ6","either","4","461","","","","","","","0","0","1","0.07744448812","","0.2","0.8","0.4","0.6","","","","","0.4349340462","0.07744448812","0.4041720962","0.1256070833","","","","","","","","","","74","J","1","","","77","main_expt","",""
"","bandit","161","493280","0.0-119.0-0.0","30648645","wem/bandit_party_1","A1TKAM6H43AJZ6","either","4","214","","","","","","","0","0","1","","0.1398604905","0.2","0.8","0.4","0.6","0.4112950215","0.05712631425","0.4000946746","0.1398604905","","","","","","","","","","","","","","76","L","3","","","78","main_expt","",""
"","bandit","162","495217","0.0-120.0-0.0","30648645","wem/bandit_party_1","A1TKAM6H43AJZ6","either","4","390","","","","","","","0","0","1","","0.1303191282","0.2","0.8","0.4","0.6","0.4123046053","0.03981704588","0.425248604","0.1303191282","","","","","","","","","","","","","","76","L","3","","","79","main_expt","",""
"","bandit","163","497810","0.0-121.0-0.0","30648645","wem/bandit_party_1","A1TKAM6H43AJZ6","either","4","1006","","","","","","","0","0","1","0.1491340647","","0.2","0.8","0.4","0.6","","","","","0.4345430878","0.02961196177","0.4263383456","0.1491340647","","","","","","","","","","76","L","3","","","80","main_expt","",""
"","bandit","164","500117","0.0-122.0-0.0","30648645","wem/bandit_party_1","A1TKAM6H43AJZ6","either","4","737","","","","","","","0","1","0","","0.4255274095","0.2","0.8","0.4","0.6","0.4255274095","0.0408206899","0.4377411966","0.1484119081","","","","","","","","","","","","","","72","H","0","img/none_selected.jpg","","81","main_expt","",""
"","bandit","165","502238","0.0-123.0-0.0","30648645","wem/bandit_party_1","A1TKAM6H43AJZ6","either","4","511","","","","","","","0","1","0","","0.4266934287","0.2","0.8","0.4","0.6","0.4266934287","0.03491361241","0.4263216968","0.135460029","","","","","","","","","","","","","","72","H","0","img/none_selected.jpg","","82","main_expt","",""
"","bandit","166","504269","0.0-124.0-0.0","30648645","wem/bandit_party_1","A1TKAM6H43AJZ6","either","4","446","","","","","","","0","0","1","","0.4536492548","0.2","0.8","0.4","0.6","0.4321646522","0.01881925386","0.4536492548","0.09497461961","","","","","","","","","","","","","","75","K","2","","","83","main_expt","",""
"","bandit","167","506505","0.0-125.0-0.0","30648645","wem/bandit_party_1","A1TKAM6H43AJZ6","either","4","675","","","","","","","0","0","1","0.0956585677","","0.2","0.8","0.4","0.6","","","","","0.43129245","0.03441768066","0.4344769981","0.0956585677","","","","","","","","","","76","L","3","","","84","main_expt","",""
"","bandit","168","508677","0.0-126.0-0.0","30648645","wem/bandit_party_1","A1TKAM6H43AJZ6","either","4","629","","","","","","","0","0","1","0.08427930603","","0.2","0.8","0.4","0.6","","","","","0.4307495417","0.04015732792","0.4167097255","0.08427930603","","","","","","","","","","76","L","3","","","85","main_expt","",""
"","bandit","169","510554","0.0-127.0-0.0","30648645","wem/bandit_party_1","A1TKAM6H43AJZ6","either","4","290","","","","","","","0","0","1","0.09540141202","","0.2","0.8","0.4","0.6","","","","","0.4327415212","0.0462821445","0.4215971904","0.09540141202","","","","","","","","","","76","L","3","","","86","main_expt","",""
"","bandit","170","512653","0.0-128.0-0.0","30648645","wem/bandit_party_1","A1TKAM6H43AJZ6","either","4","519","","","","","","","0","0","1","0.06504543429","","0.2","0.8","0.4","0.6","","","","","0.4507305815","0.07236867375","0.3962725568","0.06504543429","","","","","","","","","","76","L","3","","","87","main_expt","",""
"","bandit","171","514929","0.0-129.0-0.0","30648645","wem/bandit_party_1","A1TKAM6H43AJZ6","either","4","727","","","","","","","0","0","1","0.05894337134","","0.2","0.8","0.4","0.6","","","","","0.4571393315","0.1132918069","0.4038430626","0.05894337134","","","","","","","","","","76","L","3","","","88","main_expt","",""
"","bandit","172","517214","0.0-130.0-0.0","30648645","wem/bandit_party_1","A1TKAM6H43AJZ6","either","4","734","","","","","","","0","0","1","0.06803635399","","0.2","0.8","0.4","0.6","","","","","0.4639779763","0.1466354559","0.4247877058","0.06803635399","","","","","","","","","","76","L","3","","","89","main_expt","",""
"","bandit","173","519213","0.0-131.0-0.0","30648645","wem/bandit_party_1","A1TKAM6H43AJZ6","either","4","460","","","","","","","1","0","0","0.4196700557","","0.2","0.8","0.4","0.6","","","","","0.4620017245","0.1746819083","0.4196700557","0.09657856289","","","","","","","","","","75","K","2","","","90","main_expt","",""
"","bandit","174","521200","0.0-132.0-0.0","30648645","wem/bandit_party_1","A1TKAM6H43AJZ6","either","4","449","","","","","","","0","0","1","","0.401758082","0.2","0.8","0.4","0.6","0.4492963398","0.1864657318","0.401758082","0.08522031428","","","","","","","","","","","","","","75","K","2","","","91","main_expt","",""
"","bandit","175","523627","0.0-133.0-0.0","30648645","wem/bandit_party_1","A1TKAM6H43AJZ6","either","4","884","","","","","","","0","0","1","0.3422099147","","0.2","0.8","0.4","0.6","","","","","0.462009279","0.2124622091","0.3422099147","0.07078380504","","","","","","","","","","75","K","2","","","92","main_expt","",""
"","bandit","176","525706","0.0-134.0-0.0","30648645","wem/bandit_party_1","A1TKAM6H43AJZ6","either","4","541","","","","","","","1","0","0","0.3279059742","","0.2","0.8","0.4","0.6","","","","","0.4363090379","0.245786276","0.3279059742","0.0564278809","","","","","","","","","","75","K","2","","","93","main_expt","",""
"","bandit","177","527581","0.0-135.0-0.0","30648645","wem/bandit_party_1","A1TKAM6H43AJZ6","either","4","341","","","","","","","0","0","1","","0.3155724737","0.2","0.8","0.4","0.6","0.4457519602","0.2316759231","0.3155724737","0.06067733924","","","","","","","","","","","","","","75","K","2","","","94","main_expt","",""
"","bandit","178","529624","0.0-136.0-0.0","30648645","wem/bandit_party_1","A1TKAM6H43AJZ6","either","4","403","","","","","","","1","0","0","0.3519625041","","0.2","0.8","0.4","0.6","","","","","0.4231248902","0.2231756969","0.3519625041","0.08632751489","","","","","","","","","","75","K","2","","","95","main_expt","",""
"","bandit","179","531726","0.0-137.0-0.0","30648645","wem/bandit_party_1","A1TKAM6H43AJZ6","either","4","561","","","","","","","0","0","1","","0.3661455107","0.2","0.8","0.4","0.6","0.4210676831","0.1957128212","0.3661455107","0.08481729553","","","","","","","","","","","","","","75","K","2","","","96","main_expt","",""
"","bandit","180","533683","0.0-138.0-0.0","30648645","wem/bandit_party_1","A1TKAM6H43AJZ6","either","4","373","","","","","","","0","0","1","","0.08386440452","0.2","0.8","0.4","0.6","0.4022895305","0.1638116915","0.3558031673","0.08386440452","","","","","","","","","","","","","","76","L","3","","","97","main_expt","",""
"","bandit","181","535943","0.0-139.0-0.0","30648645","wem/bandit_party_1","A1TKAM6H43AJZ6","either","4","676","","","","","","","0","1","0","","0.3558230887","0.2","0.8","0.4","0.6","0.4187351015","0.1405816365","0.3558230887","0.0940701929","","","","","","","","","","","","","","75","K","2","","","98","main_expt","",""
"","bandit","182","537507","0.0-140.0-0.0","30648645","wem/bandit_party_1","A1TKAM6H43AJZ6","either","4","2","","","","","","","0","0","1","0.3981340028","","0.2","0.8","0.4","0.6","","","","","0.3981340028","0.1435678602","0.3064708089","0.1285058524","","","","","","","","","","72","H","0","img/none_selected.jpg","","99","main_expt","",""
"","bandit","183","539456","0.0-141.0-0.0","30648645","wem/bandit_party_1","A1TKAM6H43AJZ6","either","4","395","","","","","","","0","0","1","","0.1478754355","0.2","0.8","0.4","0.6","0.3520446815","0.1478754355","0.352498313","0.065882019","","","","","","","","","","","","","","74","J","1","","","100","main_expt","",""
"","bandit","184","541644","0.0-142.0-0.0","30648645","wem/bandit_party_1","A1TKAM6H43AJZ6","either","4","643","","","","","","","0","0","1","","0.3715523215","0.2","0.8","0.4","0.6","0.3715523215","0.1532559328","0.3511810171","0.05692140794","","","","","","","","","","","","","","72","H","0","img/none_selected.jpg","","101","main_expt","",""
"","bandit","185","543756","0.0-143.0-0.0","30648645","wem/bandit_party_1","A1TKAM6H43AJZ6","either","4","528","","","","","","","0","0","1","","0.04322280369","0.2","0.8","0.4","0.6","0.3966955113","0.15857411","0.3246867477","0.04322280369","","","","","","","","","","","","","","76","L","3","","","102","main_expt","",""
"","bandit","186","545513","0.0-144.0-0.0","30648645","wem/bandit_party_1","A1TKAM6H43AJZ6","either","4","178","","","","","","","0","1","0","","0.2827689756","0.2","0.8","0.4","0.6","0.3865714765","0.1552377357","0.2827689756","0.05121437093","","","","","","","","","","","","","","75","K","2","","","103","main_expt","",""
"","bandit","187","547380","0.0-145.0-0.0","30648645","wem/bandit_party_1","A1TKAM6H43AJZ6","either","4","311","","","","","","","0","0","1","0.1584193753","","0.2","0.8","0.4","0.6","","","","","0.3440646931","0.1584193753","0.3307995119","0.06548077564","","","","","","","","","","74","J","1","","","104","main_expt","",""
"","bandit","188","549573","0.0-146.0-0.0","30648645","wem/bandit_party_1","A1TKAM6H43AJZ6","either","4","634","","","","","","","0","0","1","","0.330981063","0.2","0.8","0.4","0.6","0.330981063","0.192058402","0.3078297571","0.07577357845","","","","","","","","","","","","","","72","H","0","img/none_selected.jpg","","105","main_expt","",""
"","bandit","189","551856","0.0-147.0-0.0","30648645","wem/bandit_party_1","A1TKAM6H43AJZ6","either","4","700","","","","","","","1","0","0","0.09041352565","","0.2","0.8","0.4","0.6","","","","","0.3317280627","0.1562344916","0.3202685942","0.09041352565","","","","","","","","","","76","L","3","","","106","main_expt","",""
"","bandit","190","555663","0.0-148.0-0.0","30648645","wem/bandit_party_1","A1TKAM6H43AJZ6","either","4","2226","","","","","","","0","0","1","","0.3163418234","0.2","0.8","0.4","0.6","0.2760665195","0.1493116313","0.3163418234","0.1184921167","","","","","","","","","","","","","","75","K","2","","","107","main_expt","",""
"","bandit","191","558370","0.0-149.0-0.0","30648645","wem/bandit_party_1","A1TKAM6H43AJZ6","either","4","1121","","","","","","","0","0","1","0.1057615429","","0.2","0.8","0.4","0.6","","","","","0.2826301941","0.1357435498","0.3425943818","0.1057615429","","","","","","","","","","76","L","3","","","108","main_expt","",""
"","bandit","192","560470","0.0-150.0-0.0","30648645","wem/bandit_party_1","A1TKAM6H43AJZ6","either","4","522","","","","","","","0","0","1","0.2852030557","","0.2","0.8","0.4","0.6","","","","","0.318117281","0.1164074326","0.2852030557","0.1464484126","","","","","","","","","","75","K","2","","","109","main_expt","",""
"","bandit","193","562346","0.0-151.0-0.0","30648645","wem/bandit_party_1","A1TKAM6H43AJZ6","either","4","325","","","","","","","0","0","1","0.1444451916","","0.2","0.8","0.4","0.6","","","","","0.3358587519","0.1444451916","0.3392406975","0.1641354829","","","","","","","","","","74","J","1","","","110","main_expt","",""
"","bandit","194","564327","0.0-152.0-0.0","30648645","wem/bandit_party_1","A1TKAM6H43AJZ6","either","4","430","","","","","","","0","1","0","","0.3031660534","0.2","0.8","0.4","0.6","0.3031660534","0.09905323685","0.3023411017","0.1386891192","","","","","","","","","","","","","","72","H","0","img/none_selected.jpg","","111","main_expt","",""
"","bandit","195","566157","0.0-153.0-0.0","30648645","wem/bandit_party_1","A1TKAM6H43AJZ6","either","4","289","","","","","","","0","0","1","","0.1847512065","0.2","0.8","0.4","0.6","0.2773548355","0.09652445584","0.296849772","0.1847512065","","","","","","","","","","","","","","76","L","3","","","112","main_expt","",""
"","bandit","196","568045","0.0-154.0-0.0","30648645","wem/bandit_party_1","A1TKAM6H43AJZ6","either","4","350","","","","","","","0","0","1","0.1304555333","","0.2","0.8","0.4","0.6","","","","","0.2370758425","0.09961189632","0.2673419259","0.1304555333","","","","","","","","","","76","L","3","","","113","main_expt","",""
"","bandit","197","569964","0.0-155.0-0.0","30648645","wem/bandit_party_1","A1TKAM6H43AJZ6","either","4","371","","","","","","","0","0","1","0.2670531803","","0.2","0.8","0.4","0.6","","","","","0.1821928837","0.1036139638","0.2670531803","0.1770102637","","","","","","","","","","75","K","2","","","114","main_expt","",""
"","bandit","198","571634","0.0-156.0-0.0","30648645","wem/bandit_party_1","A1TKAM6H43AJZ6","either","4","82","","","","","","","0","0","1","","0.0968506792","0.2","0.8","0.4","0.6","0.1315453283","0.0968506792","0.2825009356","0.1564651975","","","","","","","","","","","","","","74","J","1","","","115","main_expt","",""
"","bandit","199","573570","0.0-157.0-0.0","30648645","wem/bandit_party_1","A1TKAM6H43AJZ6","either","4","373","","","","","","","0","0","1","","0.08782875681","0.2","0.8","0.4","0.6","0.1102777544","0.08782875681","0.3237719372","0.1665702367","","","","","","","","","","","","","","74","J","1","","","116","main_expt","",""
"","bandit","200","575478","0.0-158.0-0.0","30648645","wem/bandit_party_1","A1TKAM6H43AJZ6","either","4","363","","","","","","","0","0","1","","0.1101610351","0.2","0.8","0.4","0.6","0.1101610351","0.06031800864","0.3154846423","0.1530687496","","","","","","","","","","","","","","72","H","0","img/none_selected.jpg","","117","main_expt","",""
"","bandit","201","577323","0.0-159.0-0.0","30648645","wem/bandit_party_1","A1TKAM6H43AJZ6","either","4","299","","","","","","","1","0","0","0.1674206906","","0.2","0.8","0.4","0.6","","","","","0.122460482","0.05633053331","0.2584508078","0.1674206906","","","","","","","","","","76","L","3","","","118","main_expt","",""
"","bandit","202","579341","0.0-160.0-0.0","30648645","wem/bandit_party_1","A1TKAM6H43AJZ6","either","4","470","","","","","","","0","0","1","","0.2141905193","0.2","0.8","0.4","0.6","0.1451868924","0.07530514027","0.2141905193","0.1990215448","","","","","","","","","","","","","","75","K","2","","","119","main_expt","",""
"","bandit","203","581411","0.0-161.0-0.0","30648645","wem/bandit_party_1","A1TKAM6H43AJZ6","either","4","534","","","","","","","0","0","1","0.09639595661","","0.2","0.8","0.4","0.6","","","","","0.09092593383","0.09639595661","0.2341954374","0.2208640619","","","","","","","","","","74","J","1","","","120","main_expt","",""
"","bandit","204","583510","0.0-162.0-0.0","30648645","wem/bandit_party_1","A1TKAM6H43AJZ6","either","4","562","","","","","","","0","0","1","","0.1886372651","0.2","0.8","0.4","0.6","0.1080456108","0.1421799471","0.1886372651","0.2602917539","","","","","","","","","","","","","","75","K","2","","","121","main_expt","",""
"","bandit","205","586618","0.0-163.0-0.0","30648645","wem/bandit_party_1","A1TKAM6H43AJZ6","either","4","1570","","","","","","","0","0","1","0.1597592322","","0.2","0.8","0.4","0.6","","","","","0.1169053248","0.1624760489","0.1597592322","0.2512498235","","","","","","","","","","75","K","2","","","122","main_expt","",""
"","bandit","206","588594","0.0-164.0-0.0","30648645","wem/bandit_party_1","A1TKAM6H43AJZ6","either","4","437","","","","","","","0","0","1","0.2266242761","","0.2","0.8","0.4","0.6","","","","","0.1571594809","0.1640214383","0.1895266442","0.2266242761","","","","","","","","","","76","L","3","","","123","main_expt","",""
"","bandit","207","590577","0.0-165.0-0.0","30648645","wem/bandit_party_1","A1TKAM6H43AJZ6","either","4","444","","","","","","","0","0","1","","0.2373824638","0.2","0.8","0.4","0.6","0.2231804049","0.2014340991","0.2042850732","0.2373824638","","","","","","","","","","","","","","76","L","3","","","124","main_expt","",""
"","bandit","208","594677","0.0-166.0-0.0","30648645","wem/bandit_party_1","A1TKAM6H43AJZ6","either","4","2555","","","","","","","0","0","1","","0.2538727107","0.2","0.8","0.4","0.6","0.2232794356","0.2229229076","0.1812515389","0.2538727107","","","","","","","","","","","","","","76","L","3","","","125","main_expt","",""
"","bandit","209","597351","0.0-167.0-0.0","30648645","wem/bandit_party_1","A1TKAM6H43AJZ6","either","4","1136","","","","","","","0","0","1","","0.1694736183","0.2","0.8","0.4","0.6","0.2316903634","0.2324712723","0.1694736183","0.290219491","","","","","","","","","","","","","","75","K","2","","","126","main_expt","",""
"","bandit","210","599331","0.0-168.0-0.0","30648645","wem/bandit_party_1","A1TKAM6H43AJZ6","either","4","434","","","","","","","0","0","1","0.2628391623","","0.2","0.8","0.4","0.6","","","","","0.2337524142","0.2628391623","0.1624528765","0.2542505169","","","","","","","","","","74","J","1","","","127","main_expt","",""
"","bandit","211","601179","0.0-169.0-0.0","30648645","wem/bandit_party_1","A1TKAM6H43AJZ6","either","4","297","","","","","","","0","0","1","0.2198210178","","0.2","0.8","0.4","0.6","","","","","0.2198210178","0.2654356302","0.1632982916","0.2582316027","","","","","","","","","","72","H","0","img/none_selected.jpg","","128","main_expt","",""
"","bandit","212","602772","0.0-170.0-0.0","30648645","wem/bandit_party_1","A1TKAM6H43AJZ6","either","4","3","","","","","","","0","1","0","","0.2264598068","0.2","0.8","0.4","0.6","0.2280168395","0.2070569149","0.2264598068","0.3267566011","","","","","","","","","","","","","","75","K","2","","","129","main_expt","",""
"","bandit","213","604988","0.0-171.0-0.0","30648645","wem/bandit_party_1","A1TKAM6H43AJZ6","either","4","641","","","","","","","1","0","0","0.2579182239","","0.2","0.8","0.4","0.6","","","","","0.243895296","0.2579182239","0.202760285","0.3323271388","","","","","","","","","","74","J","1","","","130","main_expt","",""
"","bandit","214","609223","0.0-172.0-0.0","30648645","wem/bandit_party_1","A1TKAM6H43AJZ6","either","4","2641","","","","","","","0","0","1","","0.1585094705","0.2","0.8","0.4","0.6","0.2164454501","0.2329110821","0.1585094705","0.2666668646","","","","","","","","","","","","","","75","K","2","","","131","main_expt","",""
"","bandit","215","610835","0.0-173.0-0.0","30648645","wem/bandit_party_1","A1TKAM6H43AJZ6","either","4","34","","","","","","","0","0","1","","0.2359119393","0.2","0.8","0.4","0.6","0.200468731","0.2400232435","0.1304261544","0.2359119393","","","","","","","","","","","","","","76","L","3","","","132","main_expt","",""
"","bandit","216","612855","0.0-174.0-0.0","30648645","wem/bandit_party_1","A1TKAM6H43AJZ6","either","4","470","","","","","","","0","0","1","0.2038597077","","0.2","0.8","0.4","0.6","","","","","0.2038597077","0.2084798617","0.09339990826","0.2540740643","","","","","","","","","","72","H","0","img/none_selected.jpg","","133","main_expt","",""
"","bandit","217","614764","0.0-175.0-0.0","30648645","wem/bandit_party_1","A1TKAM6H43AJZ6","either","4","357","","","","","","","0","0","1","0.2034544","","0.2","0.8","0.4","0.6","","","","","0.2263269307","0.2034544","0.08524612959","0.2414927735","","","","","","","","","","74","J","1","","","134","main_expt","",""
"","bandit","218","616633","0.0-176.0-0.0","30648645","wem/bandit_party_1","A1TKAM6H43AJZ6","either","4","327","","","","","","","0","1","0","","0.0622033461","0.2","0.8","0.4","0.6","0.2686469146","0.2088958693","0.0622033461","0.2632369982","","","","","","","","","","","","","","75","K","2","","","135","main_expt","",""
"","bandit","219","618631","0.0-177.0-0.0","30648645","wem/bandit_party_1","A1TKAM6H43AJZ6","either","4","456","","","","","","","1","0","0","0.3032623762","","0.2","0.8","0.4","0.6","","","","","0.3170393738","0.2573758916","0.05632890875","0.3032623762","","","","","","","","","","76","L","3","","","136","main_expt","",""
"","bandit","220","620642","0.0-178.0-0.0","30648645","wem/bandit_party_1","A1TKAM6H43AJZ6","either","4","472","","","","","","","0","0","1","","0.2984046037","0.2","0.8","0.4","0.6","0.338962466","0.2467438462","0.06052980877","0.2984046037","","","","","","","","","","","","","","76","L","3","","","137","main_expt","",""
"","bandit","221","622607","0.0-179.0-0.0","30648645","wem/bandit_party_1","A1TKAM6H43AJZ6","either","4","423","","","","","","","1","0","0","0.3110629865","","0.2","0.8","0.4","0.6","","","","","0.3586643031","0.2221944767","0.1038497792","0.3110629865","","","","","","","","","","76","L","3","","","138","main_expt","",""
"","bandit","222","624904","0.0-180.0-0.0","30648645","wem/bandit_party_1","A1TKAM6H43AJZ6","either","4","700","","","","","","","0","0","1","0.08561062373","","0.2","0.8","0.4","0.6","","","","","0.3430902759","0.2750517365","0.08561062373","0.3048373826","","","","","","","","","","75","K","2","","","139","main_expt","",""
"","bandit","223","626949","0.0-181.0-0.0","30648645","wem/bandit_party_1","A1TKAM6H43AJZ6","either","4","465","","","","","","","0","0","1","0.3163642845","","0.2","0.8","0.4","0.6","","","","","0.3777112835","0.277474309","0.08025295029","0.3163642845","","","","","","","","","","76","L","3","","","140","main_expt","",""
"","bandit","224","629040","0.0-182.0-0.0","30648645","wem/bandit_party_1","A1TKAM6H43AJZ6","either","4","512","","","","","","","0","1","0","","0.4276051364","0.2","0.8","0.4","0.6","0.4276051364","0.2932007391","0.09309891757","0.2213861514","","","","","","","","","","","","","","72","H","0","img/none_selected.jpg","","141","main_expt","",""
"","bandit","225","631189","0.0-183.0-0.0","30648645","wem/bandit_party_1","A1TKAM6H43AJZ6","either","4","546","","","","","","","0","0","1","","0.4312347149","0.2","0.8","0.4","0.6","0.4312347149","0.3001807938","0.1107976638","0.2492613222","","","","","","","","","","","","","","72","H","0","img/none_selected.jpg","","142","main_expt","",""
"","bandit","226","633377","0.0-184.0-0.0","30648645","wem/bandit_party_1","A1TKAM6H43AJZ6","either","4","611","","","","","","","0","1","0","","0.3640878437","0.2","0.8","0.4","0.6","0.386657586","0.3640878437","0.09575525052","0.2645663874","","","","","","","","","","","","","","74","J","1","","","143","main_expt","",""
"","bandit","227","635130","0.0-185.0-0.0","30648645","wem/bandit_party_1","A1TKAM6H43AJZ6","either","4","198","","","","","","","0","0","1","","0.07222794989","0.2","0.8","0.4","0.6","0.3409851627","0.2706796495","0.07222794989","0.2928215939","","","","","","","","","","","","","","75","K","2","","","144","main_expt","",""
"","bandit","228","637204","0.0-186.0-0.0","30648645","wem/bandit_party_1","A1TKAM6H43AJZ6","either","4","523","","","","","","","0","1","0","","0.3178979655","0.2","0.8","0.4","0.6","0.3538709708","0.2359726437","0.03203798906","0.3178979655","","","","","","","","","","","","","","76","L","3","","","145","main_expt","",""
"","bandit","229","639466","0.0-187.0-0.0","30648645","wem/bandit_party_1","A1TKAM6H43AJZ6","either","4","713","","","","","","","0","0","1","0.2850957273","","0.2","0.8","0.4","0.6","","","","","0.2745956728","0.2200332621","0.03073079809","0.2850957273","","","","","","","","","","76","L","3","","","146","main_expt","",""
"","bandit","230","641833","0.0-188.0-0.0","30648645","wem/bandit_party_1","A1TKAM6H43AJZ6","either","4","825","","","","","","","0","0","1","","0.2375793476","0.2","0.8","0.4","0.6","0.2375793476","0.1957794229","0.05105424151","0.2483519338","","","","","","","","","","","","","","72","H","0","img/none_selected.jpg","","147","main_expt","",""
"","bandit","231","643633","0.0-189.0-0.0","30648645","wem/bandit_party_1","A1TKAM6H43AJZ6","either","4","253","","","","","","","1","0","0","0.2309770791","","0.2","0.8","0.4","0.6","","","","","0.2954602587","0.1790722045","0.04045355104","0.2309770791","","","","","","","","","","76","L","3","","","148","main_expt","",""
"","bandit","232","645646","0.0-190.0-0.0","30648645","wem/bandit_party_1","A1TKAM6H43AJZ6","either","4","418","","","","","","","0","0","1","","0.1759049641","0.2","0.8","0.4","0.6","0.3435099865","0.2189150546","0.06416506337","0.1759049641","","","","","","","","","","","","","","76","L","3","","","149","main_expt","",""
"","bandit","233","647554","0.0-191.0-0.0","30648645","wem/bandit_party_1","A1TKAM6H43AJZ6","either","4","327","","","","","","","0","0","1","0.07819388902","","0.2","0.8","0.4","0.6","","","","","0.268900415","0.2119229637","0.07819388902","0.1910702346","","","","","","","","","","75","K","2","","","150","main_expt","",""
"","bandit","234","649469","0.0-192.0-0.0","30648645","wem/bandit_party_1","A1TKAM6H43AJZ6","either","4","359","","","","","","","0","0","1","0.2472398003","","0.2","0.8","0.4","0.6","","","","","0.2326488896","0.2472398003","0.1186979887","0.1799178466","","","","","","","","","","74","J","1","","","151","main_expt","",""
"","bandit","235","651412","0.0-193.0-0.0","30648645","wem/bandit_party_1","A1TKAM6H43AJZ6","either","4","387","","","","","","","1","0","0","0.2148428051","","0.2","0.8","0.4","0.6","","","","","0.2768057641","0.2148428051","0.1084773402","0.1826140084","","","","","","","","","","74","J","1","","","152","main_expt","",""
"","bandit","236","653352","0.0-194.0-0.0","30648645","wem/bandit_party_1","A1TKAM6H43AJZ6","either","4","396","","","","","","","0","0","1","","0.2997660112","0.2","0.8","0.4","0.6","0.2997660112","0.1598057249","0.1314289417","0.147924298","","","","","","","","","","","","","","72","H","0","img/none_selected.jpg","","153","main_expt","",""
"","bandit","237","655153","0.0-195.0-0.0","30648645","wem/bandit_party_1","A1TKAM6H43AJZ6","either","4","259","","","","","","","0","0","1","0.1388357139","","0.2","0.8","0.4","0.6","","","","","0.3196464983","0.1489099923","0.1354051011","0.1388357139","","","","","","","","","","76","L","3","","","154","main_expt","",""
"","bandit","238","656907","0.0-196.0-0.0","30648645","wem/bandit_party_1","A1TKAM6H43AJZ6","either","4","212","","","","","","","1","0","0","0.1658398244","","0.2","0.8","0.4","0.6","","","","","0.3141654429","0.1502541116","0.1085215933","0.1658398244","","","","","","","","","","76","L","3","","","155","main_expt","",""
"","bandit","239","658845","0.0-197.0-0.0","30648645","wem/bandit_party_1","A1TKAM6H43AJZ6","either","4","387","","","","","","","0","1","0","","0.1104921729","0.2","0.8","0.4","0.6","0.2667217688","0.1605084188","0.1383379057","0.1104921729","","","","","","","","","","","","","","76","L","3","","","156","main_expt","",""
"","bandit","240","660701","0.0-198.0-0.0","30648645","wem/bandit_party_1","A1TKAM6H43AJZ6","either","4","315","","","","","","","0","0","1","","0.2867075714","0.2","0.8","0.4","0.6","0.2867075714","0.1684101418","0.1428990181","0.09530810267","","","","","","","","","","","","","","72","H","0","img/none_selected.jpg","","157","main_expt","",""
"","bandit","241","662788","0.0-199.0-0.0","30648645","wem/bandit_party_1","A1TKAM6H43AJZ6","either","4","544","","","","","","","0","0","1","","0.1211627972","0.2","0.8","0.4","0.6","0.2788639118","0.1807688322","0.07455979893","0.1211627972","","","","","","","","","","","","","","76","L","3","","","158","main_expt","",""
"","bandit","242","664691","0.0-200.0-0.0","30648645","wem/bandit_party_1","A1TKAM6H43AJZ6","either","4","358","","","","","","","0","0","1","","0.1009372764","0.2","0.8","0.4","0.6","0.3020710819","0.1516426412","0.1009372764","0.1012897464","","","","","","","","","","","","","","75","K","2","","","159","main_expt","",""
"","bandit","243","666635","0.0-201.0-0.0","30648645","wem/bandit_party_1","A1TKAM6H43AJZ6","either","4","396","","","","","","","0","0","1","0.1638698877","","0.2","0.8","0.4","0.6","","","","","0.3404227007","0.1638698877","0.05118862797","0.1188035868","","","","","","","","","","74","J","1","","","160","main_expt","",""
"","bandit","244","668501","0.0-202.0-0.0","30648645","wem/bandit_party_1","A1TKAM6H43AJZ6","either","4","327","","","","","","","1","0","0","0.2876249865","","0.2","0.8","0.4","0.6","","","","","0.2876249865","0.1645359983","0.05265847637","0.1606836622","","","","","","","","","","72","H","0","img/none_selected.jpg","","161","main_expt","",""
"","bandit","245","670467","0.0-203.0-0.0","30648645","wem/bandit_party_1","A1TKAM6H43AJZ6","either","4","427","","","","","","","0","0","1","","0.2401308511","0.2","0.8","0.4","0.6","0.2401308511","0.2509918509","0.07938684611","0.1859884171","","","","","","","","","","","","","","72","H","0","img/none_selected.jpg","","162","main_expt","",""
"","bandit","246","672201","0.0-204.0-0.0","30648645","wem/bandit_party_1","A1TKAM6H43AJZ6","either","4","190","","","","","","","0","0","1","0.2528258464","","0.2","0.8","0.4","0.6","","","","","0.2486605046","0.1883685458","0.0970900163","0.2528258464","","","","","","","","","","76","L","3","","","163","main_expt","",""
"","bandit","247","674179","0.0-205.0-0.0","30648645","wem/bandit_party_1","A1TKAM6H43AJZ6","either","4","434","","","","","","","0","0","1","","0.07401968201","0.2","0.8","0.4","0.6","0.22675384","0.2179532334","0.07401968201","0.2515292425","","","","","","","","","","","","","","75","K","2","","","164","main_expt","",""
"","bandit","248","676058","0.0-206.0-0.0","30648645","wem/bandit_party_1","A1TKAM6H43AJZ6","either","4","339","","","","","","","0","0","1","0.2143704678","","0.2","0.8","0.4","0.6","","","","","0.2841151948","0.2143704678","0.06633104104","0.2068970429","","","","","","","","","","74","J","1","","","165","main_expt","",""
"","bandit","249","677721","0.0-207.0-0.0","30648645","wem/bandit_party_1","A1TKAM6H43AJZ6","either","4","122","","","","","","","0","0","1","","0.1413778631","0.2","0.8","0.4","0.6","0.2842980464","0.2175899085","0.05309652092","0.1413778631","","","","","","","","","","","","","","76","L","3","","","166","main_expt","",""
"","bandit","250","679956","0.0-208.0-0.0","30648645","wem/bandit_party_1","A1TKAM6H43AJZ6","either","4","693","","","","","","","0","0","1","","0.07357446968","0.2","0.8","0.4","0.6","0.3007590714","0.2137120923","0.07357446968","0.1999497975","","","","","","","","","","","","","","75","K","2","","","167","main_expt","",""
"","bandit","251","682249","0.0-209.0-0.0","30648645","wem/bandit_party_1","A1TKAM6H43AJZ6","either","4","749","","","","","","","0","0","1","0.2331560811","","0.2","0.8","0.4","0.6","","","","","0.2884936601","0.2331560811","0.1054325378","0.1696145944","","","","","","","","","","74","J","1","","","168","main_expt","",""
"","bandit","252","684351","0.0-210.0-0.0","30648645","wem/bandit_party_1","A1TKAM6H43AJZ6","either","4","550","","","","","","","0","1","0","","0.2803439438","0.2","0.8","0.4","0.6","0.2803439438","0.2367963754","0.08536867429","0.1338518967","","","","","","","","","","","","","","72","H","0","img/none_selected.jpg","","169","main_expt","",""
"","bandit","253","686051","0.0-211.0-0.0","30648645","wem/bandit_party_1","A1TKAM6H43AJZ6","either","4","107","","","","","","","0","0","1","0.1307598277","","0.2","0.8","0.4","0.6","","","","","0.3010437192","0.2378050175","0.1083432756","0.1307598277","","","","","","","","","","76","L","3","","","170","main_expt","",""
"","bandit","254","688364","0.0-212.0-0.0","30648645","wem/bandit_party_1","A1TKAM6H43AJZ6","either","4","740","","","","","","","0","0","1","","0.09185370626","0.2","0.8","0.4","0.6","0.3243802095","0.2253696972","0.09185370626","0.1200375331","","","","","","","","","","","","","","75","K","2","","","171","main_expt","",""
"","bandit","255","690311","0.0-213.0-0.0","30648645","wem/bandit_party_1","A1TKAM6H43AJZ6","either","4","367","","","","","","","0","1","0","","0.2903394368","0.2","0.8","0.4","0.6","0.3140094691","0.2903394368","0.09458096772","0.07514546963","","","","","","","","","","","","","","74","J","1","","","172","main_expt","",""
"","bandit","256","692755","0.0-214.0-0.0","30648645","wem/bandit_party_1","A1TKAM6H43AJZ6","either","4","874","","","","","","","0","0","1","0.1016296913","","0.2","0.8","0.4","0.6","","","","","0.2433770114","0.2384828248","0.1016296913","0.07704486673","","","","","","","","","","75","K","2","","","173","main_expt","",""
"","bandit","257","694772","0.0-215.0-0.0","30648645","wem/bandit_party_1","A1TKAM6H43AJZ6","either","4","415","","","","","","","0","0","1","","0.04061738922","0.2","0.8","0.4","0.6","0.2080779891","0.2823111034","0.117107939","0.04061738922","","","","","","","","","","","","","","76","L","3","","","174","main_expt","",""
"","bandit","258","696836","0.0-216.0-0.0","30648645","wem/bandit_party_1","A1TKAM6H43AJZ6","either","4","479","","","","","","","0","0","1","0.292147578","","0.2","0.8","0.4","0.6","","","","","0.2211365803","0.292147578","0.1254773658","0.02968316822","","","","","","","","","","74","J","1","","","175","main_expt","",""
"","bandit","259","698824","0.0-217.0-0.0","30648645","wem/bandit_party_1","A1TKAM6H43AJZ6","either","4","417","","","","","","","0","0","1","","0.231280906","0.2","0.8","0.4","0.6","0.231280906","0.2928295457","0.1518856622","0.04419366322","","","","","","","","","","","","","","72","H","0","img/none_selected.jpg","","176","main_expt","",""
"","bandit","260","700669","0.0-218.0-0.0","30648645","wem/bandit_party_1","A1TKAM6H43AJZ6","either","4","297","","","","","","","0","0","1","","0.1502483312","0.2","0.8","0.4","0.6","0.1689881391","0.297241693","0.1502483312","0.04140429262","","","","","","","","","","","","","","75","K","2","","","177","main_expt","",""
"","bandit","261","703525","0.0-219.0-0.0","30648645","wem/bandit_party_1","A1TKAM6H43AJZ6","either","4","1305","","","","","","","0","0","1","0.276241128","","0.2","0.8","0.4","0.6","","","","","0.1699404395","0.276241128","0.2073149786","0.06103489621","","","","","","","","","","74","J","1","","","178","main_expt","",""
"","bandit","262","705406","0.0-220.0-0.0","30648645","wem/bandit_party_1","A1TKAM6H43AJZ6","either","4","335","","","","","","","0","0","1","","0.053608248","0.2","0.8","0.4","0.6","0.1571972967","0.2405339857","0.1928578162","0.053608248","","","","","","","","","","","","","","76","L","3","","","179","main_expt","",""
"","bandit","263","710428","0.0-221.0-0.0","30648645","wem/bandit_party_1","A1TKAM6H43AJZ6","either","4","3474","","","","","","","0","1","0","","0.1567782565","0.2","0.8","0.4","0.6","0.1567782565","0.233428307","0.1412953234","0.06289379635","","","","","","","","","","","","","","72","H","0","img/none_selected.jpg","","180","main_expt","",""
"","bandit","264","711975","0.0-222.0-0.0","30648645","wem/bandit_party_1","A1TKAM6H43AJZ6","either","4","1","","","","","","","0","0","1","","0.1258774719","0.2","0.8","0.4","0.6","0.1492691696","0.1459310114","0.1258774719","0.07748386732","","","","","","","","","","","","","","75","K","2","","","181","main_expt","",""
"","bandit","265","714085","0.0-223.0-0.0","30648645","wem/bandit_party_1","A1TKAM6H43AJZ6","either","4","562","","","","","","","0","0","1","0.1796360657","","0.2","0.8","0.4","0.6","","","","","0.1609613705","0.1796360657","0.1121960069","0.096714051","","","","","","","","","","74","J","1","","","182","main_expt","",""
"","bandit","266","715765","0.0-224.0-0.0","30648645","wem/bandit_party_1","A1TKAM6H43AJZ6","either","4","132","","","","","","","0","0","1","","0.05351369794","0.2","0.8","0.4","0.6","0.1982891881","0.1907874973","0.08335286121","0.05351369794","","","","","","","","","","","","","","76","L","3","","","183","main_expt","",""
"","bandit","267","717513","0.0-225.0-0.0","30648645","wem/bandit_party_1","A1TKAM6H43AJZ6","either","4","199","","","","","","","0","0","1","0.08854511538","","0.2","0.8","0.4","0.6","","","","","0.1703318442","0.1451627339","0.1085923678","0.08854511538","","","","","","","","","","76","L","3","","","184","main_expt","",""
"","bandit","268","719386","0.0-226.0-0.0","30648645","wem/bandit_party_1","A1TKAM6H43AJZ6","either","4","316","","","","","","","0","0","1","","0.136385666","0.2","0.8","0.4","0.6","0.09566746086","0.1692531577","0.1113654269","0.136385666","","","","","","","","","","","","","","76","L","3","","","185","main_expt","",""
"","bandit","269","721324","0.0-227.0-0.0","30648645","wem/bandit_party_1","A1TKAM6H43AJZ6","either","4","391","","","","","","","0","0","1","","0.1383531569","0.2","0.8","0.4","0.6","0.1254261761","0.1885113298","0.1383531569","0.1848043888","","","","","","","","","","","","","","75","K","2","","","186","main_expt","",""
"","bandit","270","723137","0.0-228.0-0.0","30648645","wem/bandit_party_1","A1TKAM6H43AJZ6","either","4","267","","","","","","","0","0","1","","0.1081798115","0.2","0.8","0.4","0.6","0.1081798115","0.2088125345","0.1739713275","0.1640989128","","","","","","","","","","","","","","72","H","0","img/none_selected.jpg","","187","main_expt","",""
"","bandit","271","725092","0.0-229.0-0.0","30648645","wem/bandit_party_1","A1TKAM6H43AJZ6","either","4","410","","","","","","","0","0","1","0.1301402021","","0.2","0.8","0.4","0.6","","","","","0.08529062399","0.2228369986","0.1926366302","0.1301402021","","","","","","","","","","76","L","3","","","188","main_expt","",""
"","bandit","272","726645","0.0-230.0-0.0","30648645","wem/bandit_party_1","A1TKAM6H43AJZ6","either","4","7","","","","","","","1","0","0","0.2567428292","","0.2","0.8","0.4","0.6","","","","","0.07250281893","0.2567428292","0.2499935398","0.1980942663","","","","","","","","","","74","J","1","","","189","main_expt","",""
"","bandit","273","728687","0.0-231.0-0.0","30648645","wem/bandit_party_1","A1TKAM6H43AJZ6","either","4","498","","","","","","","0","1","0","","0.2367317824","0.2","0.8","0.4","0.6","0.07895395147","0.3177850294","0.2367317824","0.1842725295","","","","","","","","","","","","","","75","K","2","","","190","main_expt","",""
"","bandit","274","730714","0.0-232.0-0.0","30648645","wem/bandit_party_1","A1TKAM6H43AJZ6","either","4","481","","","","","","","0","0","1","0.2515026666","","0.2","0.8","0.4","0.6","","","","","0.06204701637","0.2876912335","0.2515026666","0.2087081259","","","","","","","","","","75","K","2","","","191","main_expt","",""
"","bandit","275","733045","0.0-233.0-0.0","30648645","wem/bandit_party_1","A1TKAM6H43AJZ6","either","4","786","","","","","","","0","0","1","0.2383873749","","0.2","0.8","0.4","0.6","","","","","0.064067899","0.2383873749","0.2451916405","0.1800110976","","","","","","","","","","74","J","1","","","192","main_expt","",""
"","bandit","276","735203","0.0-234.0-0.0","30648645","wem/bandit_party_1","A1TKAM6H43AJZ6","either","4","610","","","","","","","0","0","1","","0.1286650472","0.2","0.8","0.4","0.6","0.1286650472","0.24690957","0.2353451433","0.1519186298","","","","","","","","","","","","","","72","H","0","img/none_selected.jpg","","193","main_expt","",""
"","bandit","277","740834","0.0-235.0-0.0","30648645","wem/bandit_party_1","A1TKAM6H43AJZ6","either","4","4077","","","","","","","0","1","0","","0.1431656489","0.2","0.8","0.4","0.6","0.1746490116","0.2728455101","0.307075739","0.1431656489","","","","","","","","","","","","","","76","L","3","","","194","main_expt","",""
"","bandit","278","745112","0.0-236.0-0.0","30648645","wem/bandit_party_1","A1TKAM6H43AJZ6","either","4","2725","","","","","","","0","0","1","","0.1868251083","0.2","0.8","0.4","0.6","0.129035247","0.2421292151","0.3011001907","0.1868251083","","","","","","","","","","","","","","76","L","3","","","195","main_expt","",""
"","bandit","279","747131","0.0-237.0-0.0","30648645","wem/bandit_party_1","A1TKAM6H43AJZ6","either","4","474","","","","","","","0","0","1","0.2861216794","","0.2","0.8","0.4","0.6","","","","","0.09052040682","0.2598052724","0.2861216794","0.176624335","","","","","","","","","","75","K","2","","","196","main_expt","",""
"","bandit","280","749147","0.0-238.0-0.0","30648645","wem/bandit_party_1","A1TKAM6H43AJZ6","either","4","470","","","","","","","0","0","1","0.2540930088","","0.2","0.8","0.4","0.6","","","","","0.08675464884","0.2540930088","0.2121549007","0.2383323772","","","","","","","","","","74","J","1","","","197","main_expt","",""
"","bandit","281","751144","0.0-239.0-0.0","30648645","wem/bandit_party_1","A1TKAM6H43AJZ6","either","4","438","","","","","","","0","0","1","","0.09429549835","0.2","0.8","0.4","0.6","0.09429549835","0.2460150375","0.260340052","0.260618614","","","","","","","","","","","","","","72","H","0","img/none_selected.jpg","","198","main_expt","",""
"","bandit","282","753162","0.0-240.0-0.0","30648645","wem/bandit_party_1","A1TKAM6H43AJZ6","either","4","469","","","","","","","0","0","1","0.2935067364","","0.2","0.8","0.4","0.6","","","","","0.09303778716","0.2217343644","0.3009562829","0.2935067364","","","","","","","","","","76","L","3","","","199","main_expt","",""
"","bandit","283","755178","0.0-241.0-0.0","30648645","wem/bandit_party_1","A1TKAM6H43AJZ6","either","4","468","","","","","","","0","1","0","","0.3430896668","0.2","0.8","0.4","0.6","0.07354084322","0.2830302048","0.3430896668","0.362920627","","","","","","","","","","","","","","75","K","2","","","200","main_expt","",""
"","bandit","284","757318","0.0-242.0-0.0","30648645","wem/bandit_party_1","A1TKAM6H43AJZ6","either","4","542","","","","","","","0","0","1","","0.08115367452","0.2","0.8","0.4","0.6","0.08115367452","0.3175621279","0.2973668079","0.3119044903","","","","","","","","","","","","","","72","H","0","img/none_selected.jpg","","201","main_expt","",""
"","bandit","285","759361","0.0-243.0-0.0","30648645","wem/bandit_party_1","A1TKAM6H43AJZ6","either","4","453","","","","","","","0","1","0","","0.3049471546","0.2","0.8","0.4","0.6","0.0774842685","0.3049471546","0.3219337599","0.3095695708","","","","","","","","","","","","","","74","J","1","","","202","main_expt","",""
"","bandit","286","762712","0.0-244.0-0.0","30648645","wem/bandit_party_1","A1TKAM6H43AJZ6","either","4","1769","","","","","","","0","0","1","","0.3229991028","0.2","0.8","0.4","0.6","0.09704724367","0.2975042969","0.3229991028","0.3005459379","","","","","","","","","","","","","","75","K","2","","","203","main_expt","",""
"","bandit","287","764686","0.0-245.0-0.0","30648645","wem/bandit_party_1","A1TKAM6H43AJZ6","either","4","377","","","","","","","0","0","1","","0.3116824409","0.2","0.8","0.4","0.6","0.1224111047","0.2268457719","0.3077995671","0.3116824409","","","","","","","","","","","","","","76","L","3","","","204","main_expt","",""
"","bandit","288","767072","0.0-246.0-0.0","30648645","wem/bandit_party_1","A1TKAM6H43AJZ6","either","4","811","","","","","","","0","0","1","","0.3291635812","0.2","0.8","0.4","0.6","0.1627664319","0.2582085449","0.3070199156","0.3291635812","","","","","","","","","","","","","","76","L","3","","","205","main_expt","",""
"","bandit","289","769539","0.0-247.0-0.0","30648645","wem/bandit_party_1","A1TKAM6H43AJZ6","either","4","911","","","","","","","0","0","1","0.3109683939","","0.2","0.8","0.4","0.6","","","","","0.1604236747","0.2841247045","0.3109683939","0.4008790519","","","","","","","","","","75","K","2","","","206","main_expt","",""
"","bandit","290","773464","0.0-248.0-0.0","30648645","wem/bandit_party_1","A1TKAM6H43AJZ6","either","4","2375","","","","","","","0","0","1","0.3333225396","","0.2","0.8","0.4","0.6","","","","","0.126388554","0.3333225396","0.2845075958","0.4202180382","","","","","","","","","","74","J","1","","","207","main_expt","",""
"","bandit","291","775142","0.0-249.0-0.0","30648645","wem/bandit_party_1","A1TKAM6H43AJZ6","either","4","132","","","","","","","0","0","1","0.1602309633","","0.2","0.8","0.4","0.6","","","","","0.1602309633","0.290219871","0.2419557814","0.4168586074","","","","","","","","","","72","H","0","img/none_selected.jpg","","208","main_expt","",""
"","bandit","292","777616","0.0-250.0-0.0","30648645","wem/bandit_party_1","A1TKAM6H43AJZ6","either","4","925","","","","","","","0","0","1","","0.2449545816","0.2","0.8","0.4","0.6","0.2009997365","0.3426384504","0.2449545816","0.3949328033","","","","","","","","","","","","","","75","K","2","","","209","main_expt","",""
"","bandit","293","779772","0.0-251.0-0.0","30648645","wem/bandit_party_1","A1TKAM6H43AJZ6","either","4","557","","","","","","","0","0","1","0.2932754766","","0.2","0.8","0.4","0.6","","","","","0.1997114924","0.2932754766","0.2176860071","0.41782505","","","","","","","","","","74","J","1","","","210","main_expt","",""
"","bandit","294","781986","0.0-252.0-0.0","30648645","wem/bandit_party_1","A1TKAM6H43AJZ6","either","4","624","","","","","","","1","0","0","0.4377941382","","0.2","0.8","0.4","0.6","","","","","0.2631807131","0.2522206247","0.2460847292","0.4377941382","","","","","","","","","","76","L","3","","","211","main_expt","",""
"","bandit","295","783965","0.0-253.0-0.0","30648645","wem/bandit_party_1","A1TKAM6H43AJZ6","either","4","403","","","","","","","0","0","1","","0.2017704833","0.2","0.8","0.4","0.6","0.2008991105","0.2323705111","0.2017704833","0.4619006446","","","","","","","","","","","","","","75","K","2","","","212","main_expt","",""
"","bandit","296","785984","0.0-254.0-0.0","30648645","wem/bandit_party_1","A1TKAM6H43AJZ6","either","4","419","","","","","","","0","0","1","0.2815580385","","0.2","0.8","0.4","0.6","","","","","0.1656487101","0.2815580385","0.1891715169","0.4508737721","","","","","","","","","","74","J","1","","","213","main_expt","",""
"","bandit","297","788648","0.0-255.0-0.0","30648645","wem/bandit_party_1","A1TKAM6H43AJZ6","either","4","1076","","","","","","","1","0","0","0.2955812139","","0.2","0.8","0.4","0.6","","","","","0.213788386","0.2955812139","0.1819308411","0.4639731149","","","","","","","","","","74","J","1","","","214","main_expt","",""
"","bandit","298","790761","0.0-256.0-0.0","30648645","wem/bandit_party_1","A1TKAM6H43AJZ6","either","4","532","","","","","","","1","0","0","0.1406935411","","0.2","0.8","0.4","0.6","","","","","0.2206736926","0.2988647484","0.1406935411","0.4690757113","","","","","","","","","","75","K","2","","","215","main_expt","",""
"","bandit","299","792831","0.0-257.0-0.0","30648645","wem/bandit_party_1","A1TKAM6H43AJZ6","either","4","466","","","","","","","0","0","1","0.4685680314","","0.2","0.8","0.4","0.6","","","","","0.2270120675","0.3361974059","0.206739756","0.4685680314","","","","","","","","","","76","L","3","","","216","main_expt","",""
"","bandit","300","794784","0.0-258.0-0.0","30648645","wem/bandit_party_1","A1TKAM6H43AJZ6","either","4","364","","","","","","","0","1","0","","0.2561581829","0.2","0.8","0.4","0.6","0.2561581829","0.2764506131","0.178624692","0.4873952874","","","","","","","","","","","","","","72","H","0","img/none_selected.jpg","","217","main_expt","",""
"","bandit","301","796381","0.0-259.0-0.0","30648645","wem/bandit_party_1","A1TKAM6H43AJZ6","either","4","24","","","","","","","1","0","0","0.4790671899","","0.2","0.8","0.4","0.6","","","","","0.2785758431","0.299893698","0.2021641755","0.4790671899","","","","","","","","","","76","L","3","","","218","main_expt","",""
"","bandit","302","797978","0.0-260.0-0.0","30648645","wem/bandit_party_1","A1TKAM6H43AJZ6","either","4","2","","","","","","","0","0","1","0.2076996705","","0.2","0.8","0.4","0.6","","","","","0.2707863597","0.3213687962","0.2076996705","0.4769795117","","","","","","","","","","75","K","2","","","219","main_expt","",""
"","bandit","303","802957","0.0-261.0-0.0","30648645","wem/bandit_party_1","A1TKAM6H43AJZ6","either","4","3387","","","","","","","1","0","0","0.2479045362","","0.2","0.8","0.4","0.6","","","","","0.2262269101","0.3782095139","0.2479045362","0.4746148145","","","","","","","","","","75","K","2","","","220","main_expt","",""
"","bandit","304","804819","0.0-262.0-0.0","30648645","wem/bandit_party_1","A1TKAM6H43AJZ6","either","4","287","","","","","","","0","0","1","0.3572699546","","0.2","0.8","0.4","0.6","","","","","0.2522421151","0.3572699546","0.251163546","0.4789253058","","","","","","","","","","74","J","1","","","221","main_expt","",""
"","bandit","305","806785","0.0-263.0-0.0","30648645","wem/bandit_party_1","A1TKAM6H43AJZ6","either","4","407","","","","","","","0","1","0","","0.2323100388","0.2","0.8","0.4","0.6","0.2323100388","0.332217079","0.2653622565","0.4765400837","","","","","","","","","","","","","","72","H","0","img/none_selected.jpg","","222","main_expt","",""
"","bandit","306","808663","0.0-264.0-0.0","30648645","wem/bandit_party_1","A1TKAM6H43AJZ6","either","4","322","","","","","","","0","1","0","","0.4872993944","0.2","0.8","0.4","0.6","0.2013525365","0.3327789551","0.2034578964","0.4872993944","","","","","","","","","","","","","","76","L","3","","","223","main_expt","",""
"","bandit","307","810761","0.0-265.0-0.0","30648645","wem/bandit_party_1","A1TKAM6H43AJZ6","either","4","530","","","","","","","0","0","1","","0.1176985371","0.2","0.8","0.4","0.6","0.2017363432","0.3720138676","0.1176985371","0.4864577786","","","","","","","","","","","","","","75","K","2","","","224","main_expt","",""
"","bandit","308","812774","0.0-266.0-0.0","30648645","wem/bandit_party_1","A1TKAM6H43AJZ6","either","4","411","","","","","","","0","0","1","0.4035982493","","0.2","0.8","0.4","0.6","","","","","0.1608447522","0.4035982493","0.08531446518","0.4815865163","","","","","","","","","","74","J","1","","","225","main_expt","",""
"","bandit","309","814764","0.0-267.0-0.0","30648645","wem/bandit_party_1","A1TKAM6H43AJZ6","either","4","400","","","","","","","0","0","1","","0.2023183299","0.2","0.8","0.4","0.6","0.2023183299","0.3538577565","0.0901010045","0.4781941344","","","","","","","","","","","","","","72","H","0","img/none_selected.jpg","","226","main_expt","",""
"","bandit","310","816934","0.0-268.0-0.0","30648645","wem/bandit_party_1","A1TKAM6H43AJZ6","either","4","595","","","","","","","0","0","1","0.4742279627","","0.2","0.8","0.4","0.6","","","","","0.1555458008","0.4205879778","0.06499555022","0.4742279627","","","","","","","","","","76","L","3","","","227","main_expt","",""
"","bandit","311","819234","0.0-269.0-0.0","30648645","wem/bandit_party_1","A1TKAM6H43AJZ6","either","4","694","","","","","","","0","0","1","","0.06967502077","0.2","0.8","0.4","0.6","0.1210896773","0.4082381823","0.06967502077","0.4597327255","","","","","","","","","","","","","","75","K","2","","","228","main_expt","",""
"","bandit","312","821542","0.0-270.0-0.0","30648645","wem/bandit_party_1","A1TKAM6H43AJZ6","either","4","720","","","","","","","0","0","1","0.4274963613","","0.2","0.8","0.4","0.6","","","","","0.1206830913","0.4274963613","0.07642173418","0.4733003713","","","","","","","","","","74","J","1","","","229","main_expt","",""
"","bandit","313","823265","0.0-271.0-0.0","30648645","wem/bandit_party_1","A1TKAM6H43AJZ6","either","4","145","","","","","","","0","1","0","","0.1334008039","0.2","0.8","0.4","0.6","0.1334008039","0.4362488765","0.04973788902","0.4832022084","","","","","","","","","","","","","","72","H","0","img/none_selected.jpg","","230","main_expt","",""
"","bandit","314","825507","0.0-272.0-0.0","30648645","wem/bandit_party_1","A1TKAM6H43AJZ6","either","4","558","","","","","","","1","0","0","0.4802630573","","0.2","0.8","0.4","0.6","","","","","0.1048467088","0.4420629534","0.07419495466","0.4802630573","","","","","","","","","","76","L","3","","","231","main_expt","",""
