"consent","trial_type","trial_index","time_elapsed","internal_node_id","subjID","study","MID","cond","drift","rt","responses","button_pressed","key_press","like","value","connected","gems","bombs","no_reward","GemPrChosen","BombPrChosen","GainOverPainPr_0","GainOverPainPr_1","GainOverPainPr_2","GainOverPainPr_3","LosePr_0","LosePr_1","LosePr_2","LosePr_3","WinPr_0","WinPr_1","WinPr_2","WinPr_3","Q0","Q1","Q2","gender","age","ethnicity","label","expt_phase","target","respCharCode","respKey","respChoiceNum","respChoice","practice","trial_counter","trial_label","Q0_index"
"GDM/GDM_behavioral_consent_30min_online.html","consent","0","15410","0.0-0.0","31344512","wem/bandit_party_1","ASHXZ2ZVZ6HF0","either","5","","","","","","","","","","","","","","","","","","","","","","","","","","","","","","","","","","","","","","","","",""
"","survey-text","1","22983","0.0-1.0","31344512","wem/bandit_party_1","ASHXZ2ZVZ6HF0","either","5","6560","{""Q0"":""ASHXZ2ZVZ6HF0""}","","","","","","","","","","","","","","","","","","","","","","","","","","","","","","","","","","","","","","",""
"","button-response","2","26934","0.0-2.0","31344512","wem/bandit_party_1","ASHXZ2ZVZ6HF0","either","5","2941","","2","","","","","","","","","","","","","","","","","","","","","","","","","","","","","","","","","","","","","",""
"","text-replacement","3","45980","0.0-3.0","31344512","wem/bandit_party_1","ASHXZ2ZVZ6HF0","either","5","18041","","","32","","","","","","","","","","","","","","","","","","","","","","","","","","","","","","","","","","","","",""
"","text-replacement","4","67075","0.0-4.0","31344512","wem/bandit_party_1","ASHXZ2ZVZ6HF0","either","5","21091","","","32","","","","","","","","","","","","","","","","","","","","","","","","","","","","","","","","","","","","",""
"","text-replacement","5","90458","0.0-5.0-0.0","31344512","wem/bandit_party_1","ASHXZ2ZVZ6HF0","either","5","23380","","","32","","","","","","","","","","","","","","","","","","","","","","","","","","","","","","","","","","","","",""
"","identification","6","107970","0.0-6.0-0.0","31344512","wem/bandit_party_1","ASHXZ2ZVZ6HF0","either","5","17482","","","","3","3","2","","","","","","","","","","","","","","","","","","","","","","","","pre","identification_pre","the Republican party","","","","","","","",""
"","identification","7","117058","0.0-6.0-1.0","31344512","wem/bandit_party_1","ASHXZ2ZVZ6HF0","either","5","8062","","","","3","3","2","","","","","","","","","","","","","","","","","","","","","","","","pre","identification_pre","the Democratic Party","","","","","","","",""
"","text-replacement","8","150201","0.0-7.0","31344512","wem/bandit_party_1","ASHXZ2ZVZ6HF0","either","5","32139","","","32","","","","","","","","","","","","","","","","","","","","","","","","","","","","","","","","","","","","",""
"","text-replacement","9","162011","0.0-8.0","31344512","wem/bandit_party_1","ASHXZ2ZVZ6HF0","either","5","11806","","","32","","","","","","","","","","","","","","","","","","","","","","","","","","","","","","","","","","","","",""
"","text-replacement","10","185355","0.0-9.0","31344512","wem/bandit_party_1","ASHXZ2ZVZ6HF0","either","5","23341","","","32","","","","","","","","","","","","","","","","","","","","","","","","","","","","","","","","","","","","",""
"","text-replacement","11","191177","0.0-10.0","31344512","wem/bandit_party_1","ASHXZ2ZVZ6HF0","either","5","5818","","","32","","","","","","","","","","","","","","","","","","","","","","","","","","","","","","","","","","","","",""
"","text-replacement","12","196730","0.0-11.0","31344512","wem/bandit_party_1","ASHXZ2ZVZ6HF0","either","5","5551","","","32","","","","","","","","","","","","","","","","","","","","","","","","","","","","","","","","","","","","",""
"","bandit","13","202530","0.0-12.0-0.0","31344512","wem/bandit_party_1","ASHXZ2ZVZ6HF0","either","5","4288","","","","","","","0","0","1","0","0","","","","","0","","","","0","","","","","","","","","","","","","74","J","0","img/none_selected_demo.jpg","true","0","",""
"","bandit","14","205905","0.0-13.0-0.0","31344512","wem/bandit_party_1","ASHXZ2ZVZ6HF0","either","5","1866","","","","","","","0","0","1","0","0","","","","","0","","","","0","","","","","","","","","","","","","75","K","0","img/none_selected_demo.jpg","true","0","",""
"","text-replacement","15","221355","0.0-14.0","31344512","wem/bandit_party_1","ASHXZ2ZVZ6HF0","either","5","15447","","","32","","","","","","","","","","","","","","","","","","","","","","","","","","","","","","","","","","","","",""
"","text-replacement","16","233418","0.0-15.0","31344512","wem/bandit_party_1","ASHXZ2ZVZ6HF0","either","5","12061","","","32","","","","","","","","","","","","","","","","","","","","","","","","","","","","","","","","","","","","",""
"","text-replacement","17","243738","0.0-16.0","31344512","wem/bandit_party_1","ASHXZ2ZVZ6HF0","either","5","10317","","","32","","","","","","","","","","","","","","","","","","","","","","","","","","","","","","","","","","","","",""
"","text-replacement","18","253737","0.0-17.0","31344512","wem/bandit_party_1","ASHXZ2ZVZ6HF0","either","5","9996","","","32","","","","","","","","","","","","","","","","","","","","","","","","","","","","","","","","","","","","",""
"","bandit","19","256419","0.0-18.0-0.0","31344512","wem/bandit_party_1","ASHXZ2ZVZ6HF0","either","5","1173","","","","","","","1","0","0","0.8","","0.5","0.5","","","","","","","0.8","0.2","","","","","","","","","","","","74","J","0","img/none_selected_demo.jpg","true","0","80_20_practice",""
"","bandit","20","258857","0.0-18.0-1.0","31344512","wem/bandit_party_1","ASHXZ2ZVZ6HF0","either","5","927","","","","","","","0","0","1","","0.8","0.5","0.5","","","0.8","0.2","","","","","","","","","","","","","","","","74","J","0","img/none_selected_demo.jpg","true","0","80_20_practice",""
"","bandit","21","261120","0.0-18.0-2.0","31344512","wem/bandit_party_1","ASHXZ2ZVZ6HF0","either","5","754","","","","","","","0","0","1","","0.8","0.5","0.5","","","0.8","0.2","","","","","","","","","","","","","","","","74","J","0","img/none_selected_demo.jpg","true","0","80_20_practice",""
"","bandit","22","263248","0.0-18.0-3.0","31344512","wem/bandit_party_1","ASHXZ2ZVZ6HF0","either","5","619","","","","","","","0","0","1","","0.8","0.5","0.5","","","0.8","0.2","","","","","","","","","","","","","","","","74","J","0","img/none_selected_demo.jpg","true","0","80_20_practice",""
"","bandit","23","265160","0.0-18.0-4.0","31344512","wem/bandit_party_1","ASHXZ2ZVZ6HF0","either","5","404","","","","","","","1","0","0","0.8","","0.5","0.5","","","","","","","0.8","0.2","","","","","","","","","","","","74","J","0","img/none_selected_demo.jpg","true","0","80_20_practice",""
"","bandit","24","267322","0.0-18.0-5.0","31344512","wem/bandit_party_1","ASHXZ2ZVZ6HF0","either","5","653","","","","","","","0","0","1","","0.2","0.5","0.5","","","0.8","0.2","","","","","","","","","","","","","","","","75","K","1","","true","0","80_20_practice",""
"","bandit","25","269152","0.0-18.0-6.0","31344512","wem/bandit_party_1","ASHXZ2ZVZ6HF0","either","5","321","","","","","","","0","0","1","0.2","","0.5","0.5","","","","","","","0.8","0.2","","","","","","","","","","","","75","K","1","","true","0","80_20_practice",""
"","bandit","26","271073","0.0-18.0-7.0","31344512","wem/bandit_party_1","ASHXZ2ZVZ6HF0","either","5","411","","","","","","","0","0","1","0.2","","0.5","0.5","","","","","","","0.8","0.2","","","","","","","","","","","","75","K","1","","true","0","80_20_practice",""
"","bandit","27","272984","0.0-18.0-8.0","31344512","wem/bandit_party_1","ASHXZ2ZVZ6HF0","either","5","403","","","","","","","0","0","1","0.2","","0.5","0.5","","","","","","","0.8","0.2","","","","","","","","","","","","75","K","1","","true","0","80_20_practice",""
"","bandit","28","274839","0.0-18.0-9.0","31344512","wem/bandit_party_1","ASHXZ2ZVZ6HF0","either","5","346","","","","","","","0","0","1","0.2","","0.5","0.5","","","","","","","0.8","0.2","","","","","","","","","","","","75","K","1","","true","0","80_20_practice",""
"","bandit","29","276415","0.0-18.0-10.0","31344512","wem/bandit_party_1","ASHXZ2ZVZ6HF0","either","5","67","","","","","","","0","1","0","","0.2","0.5","0.5","","","0.8","0.2","","","","","","","","","","","","","","","","75","K","1","","true","0","80_20_practice",""
"","bandit","30","278561","0.0-18.0-11.0","31344512","wem/bandit_party_1","ASHXZ2ZVZ6HF0","either","5","637","","","","","","","0","0","1","0.2","","0.5","0.5","","","","","","","0.8","0.2","","","","","","","","","","","","75","K","1","","true","0","80_20_practice",""
"","bandit","31","280415","0.0-18.0-12.0","31344512","wem/bandit_party_1","ASHXZ2ZVZ6HF0","either","5","345","","","","","","","0","0","1","","0.2","0.5","0.5","","","0.8","0.2","","","","","","","","","","","","","","","","75","K","1","","true","0","80_20_practice",""
"","bandit","32","282271","0.0-18.0-13.0","31344512","wem/bandit_party_1","ASHXZ2ZVZ6HF0","either","5","347","","","","","","","0","0","1","0.2","","0.5","0.5","","","","","","","0.8","0.2","","","","","","","","","","","","75","K","1","","true","0","80_20_practice",""
"","bandit","33","284207","0.0-18.0-14.0","31344512","wem/bandit_party_1","ASHXZ2ZVZ6HF0","either","5","427","","","","","","","0","1","0","","0.2","0.5","0.5","","","0.8","0.2","","","","","","","","","","","","","","","","75","K","1","","true","0","80_20_practice",""
"","bandit","34","286295","0.0-18.0-15.0","31344512","wem/bandit_party_1","ASHXZ2ZVZ6HF0","either","5","579","","","","","","","0","0","1","0.2","","0.5","0.5","","","","","","","0.8","0.2","","","","","","","","","","","","75","K","1","","true","0","80_20_practice",""
"","bandit","35","288416","0.0-18.0-16.0","31344512","wem/bandit_party_1","ASHXZ2ZVZ6HF0","either","5","611","","","","","","","1","0","0","0.8","","0.5","0.5","","","","","","","0.8","0.2","","","","","","","","","","","","74","J","0","img/none_selected_demo.jpg","true","0","80_20_practice",""
"","bandit","36","290401","0.0-18.0-17.0","31344512","wem/bandit_party_1","ASHXZ2ZVZ6HF0","either","5","477","","","","","","","0","1","0","","0.8","0.5","0.5","","","0.8","0.2","","","","","","","","","","","","","","","","74","J","0","img/none_selected_demo.jpg","true","0","80_20_practice",""
"","bandit","37","292191","0.0-18.0-18.0","31344512","wem/bandit_party_1","ASHXZ2ZVZ6HF0","either","5","282","","","","","","","1","0","0","0.8","","0.5","0.5","","","","","","","0.8","0.2","","","","","","","","","","","","74","J","0","img/none_selected_demo.jpg","true","0","80_20_practice",""
"","bandit","38","293935","0.0-18.0-19.0","31344512","wem/bandit_party_1","ASHXZ2ZVZ6HF0","either","5","235","","","","","","","0","1","0","","0.8","0.5","0.5","","","0.8","0.2","","","","","","","","","","","","","","","","74","J","0","img/none_selected_demo.jpg","true","0","80_20_practice",""
"","text-replacement","39","299513","0.0-19.0","31344512","wem/bandit_party_1","ASHXZ2ZVZ6HF0","either","5","5575","","","32","","","","","","","","","","","","","","","","","","","","","","","","","","","","","","","","","","","","",""
"","bandit","40","303968","0.0-20.0-0.0","31344512","wem/bandit_party_1","ASHXZ2ZVZ6HF0","either","5","2945","","","","","","","1","0","0","1","0","","","","","0","1","","","1","0","","","","","","","","","","","","74","J","0","img/none_selected_demo.jpg","true","0","",""
"","text-replacement","41","312089","0.0-21.0","31344512","wem/bandit_party_1","ASHXZ2ZVZ6HF0","either","5","8117","","","32","","","","","","","","","","","","","","","","","","","","","","","","","","","","","","","","","","","","",""
"","text-replacement","42","318447","0.0-22.0","31344512","wem/bandit_party_1","ASHXZ2ZVZ6HF0","either","5","6354","","","32","","","","","","","","","","","","","","","","","","","","","","","","","","","","","","","","","","","","",""
"","text-replacement","43","321663","0.0-23.0","31344512","wem/bandit_party_1","ASHXZ2ZVZ6HF0","either","5","3212","","","32","","","","","","","","","","","","","","","","","","","","","","","","","","","","","","","","","","","","",""
"","text-replacement","44","338738","0.0-24.0","31344512","wem/bandit_party_1","ASHXZ2ZVZ6HF0","either","5","17072","","","32","","","","","","","","","","","","","","","","","","","","","","","","","","","","","","","","","","","","",""
"","text-replacement","45","349698","0.0-25.0","31344512","wem/bandit_party_1","ASHXZ2ZVZ6HF0","either","5","10956","","","32","","","","","","","","","","","","","","","","","","","","","","","","","","","","","","","","","","","","",""
"","text-replacement","46","354224","0.0-26.0","31344512","wem/bandit_party_1","ASHXZ2ZVZ6HF0","either","5","4522","","","32","","","","","","","","","","","","","","","","","","","","","","","","","","","","","","","","","","","","",""
"","text-replacement","47","360291","0.0-27.0","31344512","wem/bandit_party_1","ASHXZ2ZVZ6HF0","either","5","6062","","","32","","","","","","","","","","","","","","","","","","","","","","","","","","","","","","","","","","","","",""
"","text-replacement","48","365960","0.0-28.0","31344512","wem/bandit_party_1","ASHXZ2ZVZ6HF0","either","5","5666","","","32","","","","","","","","","","","","","","","","","","","","","","","","","","","","","","","","","","","","",""
"","text-replacement","49","377483","0.0-29.0","31344512","wem/bandit_party_1","ASHXZ2ZVZ6HF0","either","5","11519","","","32","","","","","","","","","","","","","","","","","","","","","","","","","","","","","","","","","","","","",""
"","text-replacement","50","379825","0.0-30.0","31344512","wem/bandit_party_1","ASHXZ2ZVZ6HF0","either","5","2339","","","32","","","","","","","","","","","","","","","","","","","","","","","","","","","","","","","","","","","","",""
"","text-replacement","51","382856","0.0-31.0","31344512","wem/bandit_party_1","ASHXZ2ZVZ6HF0","either","5","3028","","","32","","","","","","","","","","","","","","","","","","","","","","","","","","","","","","","","","","","","",""
"","bandit","52","385376","0.0-32.0-0.0","31344512","wem/bandit_party_1","ASHXZ2ZVZ6HF0","either","5","1010","","","","","","","0","1","0","","0.8","0.5","0.5","0.5","0.5","0.8","0.2","0.6","0.2","","","","","","","","","","","","","","72","H","0","img/none_selected.jpg","true","0","full_practice",""
"","bandit","53","387192","0.0-32.0-1.0","31344512","wem/bandit_party_1","ASHXZ2ZVZ6HF0","either","5","305","","","","","","","0","1","0","","0.8","0.5","0.5","0.5","0.5","0.8","0.2","0.6","0.2","","","","","","","","","","","","","","72","H","0","img/none_selected.jpg","true","0","full_practice",""
"","bandit","54","389066","0.0-32.0-2.0","31344512","wem/bandit_party_1","ASHXZ2ZVZ6HF0","either","5","365","","","","","","","1","0","0","0.8","","0.5","0.5","0.5","0.5","","","","","0.8","0.2","0.6","0.2","","","","","","","","","","72","H","0","img/none_selected.jpg","true","0","full_practice",""
"","bandit","55","390784","0.0-32.0-3.0","31344512","wem/bandit_party_1","ASHXZ2ZVZ6HF0","either","5","208","","","","","","","0","1","0","","0.8","0.5","0.5","0.5","0.5","0.8","0.2","0.6","0.2","","","","","","","","","","","","","","72","H","0","img/none_selected.jpg","true","0","full_practice",""
"","bandit","56","392616","0.0-32.0-4.0","31344512","wem/bandit_party_1","ASHXZ2ZVZ6HF0","either","5","323","","","","","","","0","1","0","","0.8","0.5","0.5","0.5","0.5","0.8","0.2","0.6","0.2","","","","","","","","","","","","","","72","H","0","img/none_selected.jpg","true","0","full_practice",""
"","bandit","57","394449","0.0-32.0-5.0","31344512","wem/bandit_party_1","ASHXZ2ZVZ6HF0","either","5","324","","","","","","","0","0","1","","0.8","0.5","0.5","0.5","0.5","0.8","0.2","0.6","0.2","","","","","","","","","","","","","","72","H","0","img/none_selected.jpg","true","0","full_practice",""
"","bandit","58","396273","0.0-32.0-6.0","31344512","wem/bandit_party_1","ASHXZ2ZVZ6HF0","either","5","313","","","","","","","1","0","0","0.8","","0.5","0.5","0.5","0.5","","","","","0.8","0.2","0.6","0.2","","","","","","","","","","72","H","0","img/none_selected.jpg","true","0","full_practice",""
"","bandit","59","398112","0.0-32.0-7.0","31344512","wem/bandit_party_1","ASHXZ2ZVZ6HF0","either","5","330","","","","","","","1","0","0","0.8","","0.5","0.5","0.5","0.5","","","","","0.8","0.2","0.6","0.2","","","","","","","","","","72","H","0","img/none_selected.jpg","true","0","full_practice",""
"","bandit","60","399930","0.0-32.0-8.0","31344512","wem/bandit_party_1","ASHXZ2ZVZ6HF0","either","5","309","","","","","","","1","0","0","0.8","","0.5","0.5","0.5","0.5","","","","","0.8","0.2","0.6","0.2","","","","","","","","","","72","H","0","img/none_selected.jpg","true","0","full_practice",""
"","bandit","61","401744","0.0-32.0-9.0","31344512","wem/bandit_party_1","ASHXZ2ZVZ6HF0","either","5","305","","","","","","","0","1","0","","0.8","0.5","0.5","0.5","0.5","0.8","0.2","0.6","0.2","","","","","","","","","","","","","","72","H","0","img/none_selected.jpg","true","0","full_practice",""
"","bandit","62","403632","0.0-32.0-10.0","31344512","wem/bandit_party_1","ASHXZ2ZVZ6HF0","either","5","377","","","","","","","0","0","1","","0.8","0.5","0.5","0.5","0.5","0.8","0.2","0.6","0.2","","","","","","","","","","","","","","72","H","0","img/none_selected.jpg","true","0","full_practice",""
"","bandit","63","405480","0.0-32.0-11.0","31344512","wem/bandit_party_1","ASHXZ2ZVZ6HF0","either","5","338","","","","","","","0","0","1","0.8","","0.5","0.5","0.5","0.5","","","","","0.8","0.2","0.6","0.2","","","","","","","","","","72","H","0","img/none_selected.jpg","true","0","full_practice",""
"","bandit","64","407288","0.0-32.0-12.0","31344512","wem/bandit_party_1","ASHXZ2ZVZ6HF0","either","5","298","","","","","","","0","0","1","0.2","","0.5","0.5","0.5","0.5","","","","","0.8","0.2","0.6","0.2","","","","","","","","","","74","J","1","","true","0","full_practice",""
"","bandit","65","409024","0.0-32.0-13.0","31344512","wem/bandit_party_1","ASHXZ2ZVZ6HF0","either","5","226","","","","","","","0","0","1","","0.2","0.5","0.5","0.5","0.5","0.8","0.2","0.6","0.2","","","","","","","","","","","","","","74","J","1","","true","0","full_practice",""
"","bandit","66","410875","0.0-32.0-14.0","31344512","wem/bandit_party_1","ASHXZ2ZVZ6HF0","either","5","339","","","","","","","0","0","1","0.2","","0.5","0.5","0.5","0.5","","","","","0.8","0.2","0.6","0.2","","","","","","","","","","74","J","1","","true","0","full_practice",""
"","bandit","67","412784","0.0-32.0-15.0","31344512","wem/bandit_party_1","ASHXZ2ZVZ6HF0","either","5","400","","","","","","","0","0","1","","0.6","0.5","0.5","0.5","0.5","0.8","0.2","0.6","0.2","","","","","","","","","","","","","","75","K","2","","true","0","full_practice",""
"","bandit","68","414608","0.0-32.0-16.0","31344512","wem/bandit_party_1","ASHXZ2ZVZ6HF0","either","5","315","","","","","","","0","1","0","","0.6","0.5","0.5","0.5","0.5","0.8","0.2","0.6","0.2","","","","","","","","","","","","","","75","K","2","","true","0","full_practice",""
"","bandit","69","416672","0.0-32.0-17.0","31344512","wem/bandit_party_1","ASHXZ2ZVZ6HF0","either","5","555","","","","","","","1","0","0","0.6","","0.5","0.5","0.5","0.5","","","","","0.8","0.2","0.6","0.2","","","","","","","","","","75","K","2","","true","0","full_practice",""
"","bandit","70","418736","0.0-32.0-18.0","31344512","wem/bandit_party_1","ASHXZ2ZVZ6HF0","either","5","553","","","","","","","1","0","0","0.6","","0.5","0.5","0.5","0.5","","","","","0.8","0.2","0.6","0.2","","","","","","","","","","75","K","2","","true","0","full_practice",""
"","bandit","71","420569","0.0-32.0-19.0","31344512","wem/bandit_party_1","ASHXZ2ZVZ6HF0","either","5","317","","","","","","","0","1","0","","0.6","0.5","0.5","0.5","0.5","0.8","0.2","0.6","0.2","","","","","","","","","","","","","","75","K","2","","true","0","full_practice",""
"","text","72","425778","0.0-33.0","31344512","wem/bandit_party_1","ASHXZ2ZVZ6HF0","either","5","5198","","","32","","","","","","","","","","","","","","","","","","","","","","","","","","","","","","","","","","","","",""
"","text-replacement","73","441674","0.0-34.0","31344512","wem/bandit_party_1","ASHXZ2ZVZ6HF0","either","5","14891","","","32","","","","","","","","","","","","","","","","","","","","","","","","","","","","","","","","","","","","",""
"","text-replacement","74","459962","0.0-35.0","31344512","wem/bandit_party_1","ASHXZ2ZVZ6HF0","either","5","18284","","","32","","","","","","","","","","","","","","","","","","","","","","","","","","","","","","","","","","","","",""
"","text-replacement","75","466041","0.0-36.0","31344512","wem/bandit_party_1","ASHXZ2ZVZ6HF0","either","5","6075","","","32","","","","","","","","","","","","","","","","","","","","","","","","","","","","","","","","","","","","",""
"","text-replacement","76","474298","0.0-37.0","31344512","wem/bandit_party_1","ASHXZ2ZVZ6HF0","either","5","8252","","","32","","","","","","","","","","","","","","","","","","","","","","","","","","","","","","","","","","","","",""
"","text-replacement","77","494946","0.0-38.0","31344512","wem/bandit_party_1","ASHXZ2ZVZ6HF0","either","5","20643","","","32","","","","","","","","","","","","","","","","","","","","","","","","","","","","","","","","","","","","",""
"","survey-multi-choice-replacement","78","501808","0.0-39.0-0.0","31344512","wem/bandit_party_1","ASHXZ2ZVZ6HF0","either","5","6843","","","","","","","","","","","","","","","","","","","","","","","","Money will be added to the pool for <span style='color:blue;'>DEMOCRATS</span>","","","","","","","attn_check","","","","","","","","","0"
"","survey-multi-choice-replacement","79","510240","0.0-40.0-0.0","31344512","wem/bandit_party_1","ASHXZ2ZVZ6HF0","either","5","7412","","","","","","","","","","","","","","","","","","","","","","","","Equal amounts of money will be added to the pool for <span style='color:blue;'>DEMOCRATS</span> and subtracted from the pool for <span style='color:red;'>REPUBLICANS</span>","","","","","","","attn_check","","","","","","","","","2"
"","survey-multi-choice-replacement","80","516897","0.0-41.0-0.0","31344512","wem/bandit_party_1","ASHXZ2ZVZ6HF0","either","5","5637","","","","","","","","","","","","","","","","","","","","","","","","No money will be added to either pool","","","","","","","attn_check","","","","","","","","","3"
"","bandit","81","523490","0.0-42.0-0.0","31344512","wem/bandit_party_1","ASHXZ2ZVZ6HF0","either","5","4078","","","","","","","0","0","1","0.3897275569","","0.4","0.2","0.8","0.6","","","","","0.3897275569","0.3340388524","0.4265570961","0.1165465043","","","","","","","","","","72","H","0","img/none_selected.jpg","","1","main_expt",""
"","bandit","82","525399","0.0-43.0-0.0","31344512","wem/bandit_party_1","ASHXZ2ZVZ6HF0","either","5","397","","","","","","","1","0","0","0.3223834482","","0.4","0.2","0.8","0.6","","","","","0.3911966266","0.3223834482","0.4177099958","0.08371899021","","","","","","","","","","74","J","1","","","2","main_expt",""
"","bandit","83","527191","0.0-44.0-0.0","31344512","wem/bandit_party_1","ASHXZ2ZVZ6HF0","either","5","282","","","","","","","0","1","0","","0.3585509001","0.4","0.2","0.8","0.6","0.4074861021","0.3585509001","0.4192185534","0.04339790364","","","","","","","","","","","","","","74","J","1","","","3","main_expt",""
"","bandit","84","529015","0.0-45.0-0.0","31344512","wem/bandit_party_1","ASHXZ2ZVZ6HF0","either","5","313","","","","","","","0","0","1","","0.3416436242","0.4","0.2","0.8","0.6","0.3965638453","0.3416436242","0.4241610434","0.04073472785","","","","","","","","","","","","","","74","J","1","","","4","main_expt",""
"","bandit","85","530759","0.0-46.0-0.0","31344512","wem/bandit_party_1","ASHXZ2ZVZ6HF0","either","5","232","","","","","","","0","1","0","","0.3444758892","0.4","0.2","0.8","0.6","0.3688269119","0.3444758892","0.4284837315","0.04731773769","","","","","","","","","","","","","","74","J","1","","","5","main_expt",""
"","bandit","86","532567","0.0-47.0-0.0","31344512","wem/bandit_party_1","ASHXZ2ZVZ6HF0","either","5","298","","","","","","","0","0","1","","0.3574177426","0.4","0.2","0.8","0.6","0.3865867917","0.3574177426","0.4328708062","0.05617088868","","","","","","","","","","","","","","74","J","1","","","6","main_expt",""
"","bandit","87","534394","0.0-48.0-0.0","31344512","wem/bandit_party_1","ASHXZ2ZVZ6HF0","either","5","317","","","","","","","1","0","0","0.3634052143","","0.4","0.2","0.8","0.6","","","","","0.4294719924","0.3634052143","0.4176545671","0.05606577856","","","","","","","","","","74","J","1","","","7","main_expt",""
"","bandit","88","536384","0.0-49.0-0.0","31344512","wem/bandit_party_1","ASHXZ2ZVZ6HF0","either","5","478","","","","","","","0","0","1","","0.3675420607","0.4","0.2","0.8","0.6","0.4210378118","0.3675420607","0.4022395488","0.09244853328","","","","","","","","","","","","","","74","J","1","","","8","main_expt",""
"","bandit","89","538184","0.0-50.0-0.0","31344512","wem/bandit_party_1","ASHXZ2ZVZ6HF0","either","5","284","","","","","","","0","0","1","","0.3921196104","0.4","0.2","0.8","0.6","0.4502112583","0.3921196104","0.3929004949","0.1271341085","","","","","","","","","","","","","","74","J","1","","","9","main_expt",""
"","bandit","90","540135","0.0-51.0-0.0","31344512","wem/bandit_party_1","ASHXZ2ZVZ6HF0","either","5","442","","","","","","","0","0","1","0.3863711448","","0.4","0.2","0.8","0.6","","","","","0.4452653155","0.4026182126","0.3863711448","0.1370717255","","","","","","","","","","75","K","2","","","10","main_expt",""
"","bandit","91","542159","0.0-52.0-0.0","31344512","wem/bandit_party_1","ASHXZ2ZVZ6HF0","either","5","513","","","","","","","0","0","1","0.4205849279","","0.4","0.2","0.8","0.6","","","","","0.4352349267","0.3543069494","0.4205849279","0.1275050207","","","","","","","","","","75","K","2","","","11","main_expt",""
"","bandit","92","544023","0.0-53.0-0.0","31344512","wem/bandit_party_1","ASHXZ2ZVZ6HF0","either","5","354","","","","","","","0","0","1","","0.4525069231","0.4","0.2","0.8","0.6","0.4029030639","0.3504097904","0.4525069231","0.122317004","","","","","","","","","","","","","","75","K","2","","","12","main_expt",""
"","bandit","93","545817","0.0-54.0-0.0","31344512","wem/bandit_party_1","ASHXZ2ZVZ6HF0","either","5","284","","","","","","","0","0","1","","0.1251711411","0.4","0.2","0.8","0.6","0.4198147105","0.2787441393","0.4485799753","0.1251711411","","","","","","","","","","","","","","76","L","3","","","13","main_expt",""
"","bandit","94","547591","0.0-55.0-0.0","31344512","wem/bandit_party_1","ASHXZ2ZVZ6HF0","either","5","262","","","","","","","0","1","0","","0.1380641988","0.4","0.2","0.8","0.6","0.3761312174","0.2723245106","0.4504049656","0.1380641988","","","","","","","","","","","","","","76","L","3","","","14","main_expt",""
"","bandit","95","549631","0.0-56.0-0.0","31344512","wem/bandit_party_1","ASHXZ2ZVZ6HF0","either","5","529","","","","","","","0","1","0","","0.2010812313","0.4","0.2","0.8","0.6","0.4017507227","0.3687644442","0.4281165459","0.2010812313","","","","","","","","","","","","","","76","L","3","","","15","main_expt",""
"","bandit","96","551536","0.0-57.0-0.0","31344512","wem/bandit_party_1","ASHXZ2ZVZ6HF0","either","5","393","","","","","","","0","0","1","","0.1747275657","0.4","0.2","0.8","0.6","0.3859888637","0.3992289848","0.4035101098","0.1747275657","","","","","","","","","","","","","","76","L","3","","","16","main_expt",""
"","bandit","97","553392","0.0-58.0-0.0","31344512","wem/bandit_party_1","ASHXZ2ZVZ6HF0","either","5","344","","","","","","","0","0","1","0.1816524112","","0.4","0.2","0.8","0.6","","","","","0.3706978481","0.4067061876","0.4063691663","0.1816524112","","","","","","","","","","76","L","3","","","17","main_expt",""
"","bandit","98","555416","0.0-59.0-0.0","31344512","wem/bandit_party_1","ASHXZ2ZVZ6HF0","either","5","507","","","","","","","0","0","1","","0.1700798448","0.4","0.2","0.8","0.6","0.3323991027","0.3969002131","0.4201618032","0.1700798448","","","","","","","","","","","","","","76","L","3","","","18","main_expt",""
"","bandit","99","557329","0.0-60.0-0.0","31344512","wem/bandit_party_1","ASHXZ2ZVZ6HF0","either","5","403","","","","","","","1","0","0","0.1998500639","","0.4","0.2","0.8","0.6","","","","","0.3301718366","0.3930099592","0.3868389751","0.1998500639","","","","","","","","","","76","L","3","","","19","main_expt",""
"","bandit","100","559351","0.0-61.0-0.0","31344512","wem/bandit_party_1","ASHXZ2ZVZ6HF0","either","5","511","","","","","","","0","0","1","","0.2418808817","0.4","0.2","0.8","0.6","0.3714618997","0.3791602553","0.3868875991","0.2418808817","","","","","","","","","","","","","","76","L","3","","","20","main_expt",""
"","bandit","101","561111","0.0-62.0-0.0","31344512","wem/bandit_party_1","ASHXZ2ZVZ6HF0","either","5","249","","","","","","","0","0","1","","0.2293341009","0.4","0.2","0.8","0.6","0.3621694591","0.4127515201","0.4253770554","0.2293341009","","","","","","","","","","","","","","76","L","3","","","21","main_expt",""
"","bandit","102","563007","0.0-63.0-0.0","31344512","wem/bandit_party_1","ASHXZ2ZVZ6HF0","either","5","385","","","","","","","0","0","1","","0.2074184163","0.4","0.2","0.8","0.6","0.3648829928","0.4164833055","0.4285762007","0.2074184163","","","","","","","","","","","","","","76","L","3","","","22","main_expt",""
"","bandit","103","564742","0.0-64.0-0.0","31344512","wem/bandit_party_1","ASHXZ2ZVZ6HF0","either","5","225","","","","","","","0","0","1","","0.1832507358","0.4","0.2","0.8","0.6","0.2856994719","0.4143027846","0.4082522222","0.1832507358","","","","","","","","","","","","","","76","L","3","","","23","main_expt",""
"","bandit","104","566623","0.0-65.0-0.0","31344512","wem/bandit_party_1","ASHXZ2ZVZ6HF0","either","5","374","","","","","","","1","0","0","0.4027270218","","0.4","0.2","0.8","0.6","","","","","0.3152516524","0.3649270698","0.4027270218","0.1469425149","","","","","","","","","","75","K","2","","","24","main_expt",""
"","bandit","105","568906","0.0-66.0-0.0","31344512","wem/bandit_party_1","ASHXZ2ZVZ6HF0","either","5","770","","","","","","","0","0","1","","0.4100212433","0.4","0.2","0.8","0.6","0.2778145345","0.392676409","0.4100212433","0.102794739","","","","","","","","","","","","","","75","K","2","","","25","main_expt",""
"","bandit","106","570856","0.0-67.0-0.0","31344512","wem/bandit_party_1","ASHXZ2ZVZ6HF0","either","5","439","","","","","","","0","0","1","","0.4190791169","0.4","0.2","0.8","0.6","0.3170506137","0.4031565401","0.4190791169","0.1173732637","","","","","","","","","","","","","","75","K","2","","","26","main_expt",""
"","bandit","107","572744","0.0-68.0-0.0","31344512","wem/bandit_party_1","ASHXZ2ZVZ6HF0","either","5","377","","","","","","","1","0","0","0.4527212376","","0.4","0.2","0.8","0.6","","","","","0.3223143746","0.4245959001","0.4527212376","0.08835016803","","","","","","","","","","75","K","2","","","27","main_expt",""
"","bandit","108","575016","0.0-69.0-0.0","31344512","wem/bandit_party_1","ASHXZ2ZVZ6HF0","either","5","760","","","","","","","1","0","0","0.4480998813","","0.4","0.2","0.8","0.6","","","","","0.3234472479","0.4232885055","0.4480998813","0.1134440288","","","","","","","","","","75","K","2","","","28","main_expt",""
"","bandit","109","577576","0.0-70.0-0.0","31344512","wem/bandit_party_1","ASHXZ2ZVZ6HF0","either","5","1049","","","","","","","0","0","1","0.4628669208","","0.4","0.2","0.8","0.6","","","","","0.2881425904","0.4495512981","0.4628669208","0.1982905849","","","","","","","","","","75","K","2","","","29","main_expt",""
"","bandit","110","580098","0.0-71.0-0.0","31344512","wem/bandit_party_1","ASHXZ2ZVZ6HF0","either","5","1010","","","","","","","0","0","1","0.4565655028","","0.4","0.2","0.8","0.6","","","","","0.2326555855","0.4485299892","0.4565655028","0.2366655967","","","","","","","","","","75","K","2","","","30","main_expt",""
"","bandit","111","581984","0.0-72.0-0.0","31344512","wem/bandit_party_1","ASHXZ2ZVZ6HF0","either","5","375","","","","","","","0","0","1","","0.4599237238","0.4","0.2","0.8","0.6","0.2364604256","0.4599237238","0.4686031056","0.1622470467","","","","","","","","","","","","","","74","J","1","","","31","main_expt",""
"","bandit","112","584016","0.0-73.0-0.0","31344512","wem/bandit_party_1","ASHXZ2ZVZ6HF0","either","5","520","","","","","","","0","1","0","","0.4508116693","0.4","0.2","0.8","0.6","0.2451982598","0.4508116693","0.4659582456","0.1771911602","","","","","","","","","","","","","","74","J","1","","","32","main_expt",""
"","bandit","113","586905","0.0-74.0-0.0","31344512","wem/bandit_party_1","ASHXZ2ZVZ6HF0","either","5","1378","","","","","","","0","1","0","","0.45101727","0.4","0.2","0.8","0.6","0.2360369815","0.45101727","0.4810757035","0.1622836308","","","","","","","","","","","","","","74","J","1","","","33","main_expt",""
"","bandit","114","588999","0.0-75.0-0.0","31344512","wem/bandit_party_1","ASHXZ2ZVZ6HF0","either","5","577","","","","","","","0","1","0","","0.4340174653","0.4","0.2","0.8","0.6","0.2317763892","0.4340174653","0.4842727378","0.1655985557","","","","","","","","","","","","","","74","J","1","","","34","main_expt",""
"","bandit","115","591643","0.0-76.0-0.0","31344512","wem/bandit_party_1","ASHXZ2ZVZ6HF0","either","5","1131","","","","","","","0","0","1","0.2527891731","","0.4","0.2","0.8","0.6","","","","","0.2527891731","0.4040147441","0.4745470136","0.1492797185","","","","","","","","","","72","H","0","img/none_selected.jpg","","35","main_expt",""
"","bandit","116","593936","0.0-77.0-0.0","31344512","wem/bandit_party_1","ASHXZ2ZVZ6HF0","either","5","783","","","","","","","0","0","1","","0.2641283143","0.4","0.2","0.8","0.6","0.2641283143","0.4268829696","0.4440965139","0.1504543003","","","","","","","","","","","","","","72","H","0","img/none_selected.jpg","","36","main_expt",""
"","bandit","117","596272","0.0-78.0-0.0","31344512","wem/bandit_party_1","ASHXZ2ZVZ6HF0","either","5","823","","","","","","","0","0","1","","0.2309310423","0.4","0.2","0.8","0.6","0.2309310423","0.4562327564","0.4544425755","0.1064249526","","","","","","","","","","","","","","72","H","0","img/none_selected.jpg","","37","main_expt",""
"","bandit","118","598528","0.0-79.0-0.0","31344512","wem/bandit_party_1","ASHXZ2ZVZ6HF0","either","5","745","","","","","","","1","0","0","0.2093170459","","0.4","0.2","0.8","0.6","","","","","0.2093170459","0.4481627861","0.4700138218","0.1346530267","","","","","","","","","","72","H","0","img/none_selected.jpg","","38","main_expt",""
"","bandit","119","600376","0.0-80.0-0.0","31344512","wem/bandit_party_1","ASHXZ2ZVZ6HF0","either","5","335","","","","","","","0","0","1","","0.1398625959","0.4","0.2","0.8","0.6","0.1398625959","0.4475890948","0.466948448","0.1303494481","","","","","","","","","","","","","","72","H","0","img/none_selected.jpg","","39","main_expt",""
"","bandit","120","602010","0.0-81.0-0.0","31344512","wem/bandit_party_1","ASHXZ2ZVZ6HF0","either","5","123","","","","","","","0","0","1","0.09690087606","","0.4","0.2","0.8","0.6","","","","","0.09690087606","0.4501575696","0.4679256248","0.1492074344","","","","","","","","","","72","H","0","img/none_selected.jpg","","40","main_expt",""
"","bandit","121","603977","0.0-82.0-0.0","31344512","wem/bandit_party_1","ASHXZ2ZVZ6HF0","either","5","453","","","","","","","1","0","0","0.445537573","","0.4","0.2","0.8","0.6","","","","","0.1129569356","0.4121884666","0.445537573","0.1370672299","","","","","","","","","","75","K","2","","","41","main_expt",""
"","bandit","122","605937","0.0-83.0-0.0","31344512","wem/bandit_party_1","ASHXZ2ZVZ6HF0","either","5","449","","","","","","","0","0","1","0.4521531226","","0.4","0.2","0.8","0.6","","","","","0.1227033228","0.4379939247","0.4521531226","0.08144147181","","","","","","","","","","75","K","2","","","42","main_expt",""
"","bandit","123","607825","0.0-84.0-0.0","31344512","wem/bandit_party_1","ASHXZ2ZVZ6HF0","either","5","375","","","","","","","0","0","1","","0.4695072217","0.4","0.2","0.8","0.6","0.08393287497","0.4271747655","0.4695072217","0.06793865388","","","","","","","","","","","","","","75","K","2","","","43","main_expt",""
"","bandit","124","609664","0.0-85.0-0.0","31344512","wem/bandit_party_1","ASHXZ2ZVZ6HF0","either","5","328","","","","","","","0","0","1","0.05295344446","","0.4","0.2","0.8","0.6","","","","","0.06260074275","0.4480494518","0.4807409838","0.05295344446","","","","","","","","","","76","L","3","","","44","main_expt",""
"","bandit","125","611480","0.0-86.0-0.0","31344512","wem/bandit_party_1","ASHXZ2ZVZ6HF0","either","5","304","","","","","","","0","0","1","","0.02744239742","0.4","0.2","0.8","0.6","0.08062123592","0.4269729589","0.4507048108","0.02744239742","","","","","","","","","","","","","","76","L","3","","","45","main_expt",""
"","bandit","126","613266","0.0-87.0-0.0","31344512","wem/bandit_party_1","ASHXZ2ZVZ6HF0","either","5","274","","","","","","","0","0","1","0.02347437243","","0.4","0.2","0.8","0.6","","","","","0.1110847749","0.4475746277","0.4382321206","0.02347437243","","","","","","","","","","76","L","3","","","46","main_expt",""
"","bandit","127","615040","0.0-88.0-0.0","31344512","wem/bandit_party_1","ASHXZ2ZVZ6HF0","either","5","261","","","","","","","0","0","1","0.02418160198","","0.4","0.2","0.8","0.6","","","","","0.05346849493","0.4295618238","0.4393937913","0.02418160198","","","","","","","","","","76","L","3","","","47","main_expt",""
"","bandit","128","616856","0.0-89.0-0.0","31344512","wem/bandit_party_1","ASHXZ2ZVZ6HF0","either","5","304","","","","","","","0","0","1","","0.440318131","0.4","0.2","0.8","0.6","0.04499733497","0.4431907244","0.440318131","0.01182676654","","","","","","","","","","","","","","75","K","2","","","48","main_expt",""
"","bandit","129","618672","0.0-90.0-0.0","31344512","wem/bandit_party_1","ASHXZ2ZVZ6HF0","either","5","303","","","","","","","0","0","1","0.4362102412","","0.4","0.2","0.8","0.6","","","","","0.07378534534","0.4187732916","0.4362102412","0.0186287842","","","","","","","","","","75","K","2","","","49","main_expt",""
"","bandit","130","620481","0.0-91.0-0.0","31344512","wem/bandit_party_1","ASHXZ2ZVZ6HF0","either","5","296","","","","","","","0","0","1","0.44488671","","0.4","0.2","0.8","0.6","","","","","0.06168845619","0.356579213","0.44488671","0.02550629551","","","","","","","","","","75","K","2","","","50","main_expt",""
"","bandit","131","622257","0.0-92.0-0.0","31344512","wem/bandit_party_1","ASHXZ2ZVZ6HF0","either","5","263","","","","","","","0","1","0","","0.2629404955","0.4","0.2","0.8","0.6","0.1062028567","0.2629404955","0.4633405548","0.04366809707","","","","","","","","","","","","","","74","J","1","","","51","main_expt",""
"","bandit","132","624107","0.0-93.0-0.0","31344512","wem/bandit_party_1","ASHXZ2ZVZ6HF0","either","5","338","","","","","","","0","0","1","0.2919747068","","0.4","0.2","0.8","0.6","","","","","0.1379608546","0.2919747068","0.4528043762","0.04357168116","","","","","","","","","","74","J","1","","","52","main_expt",""
"","bandit","133","625897","0.0-94.0-0.0","31344512","wem/bandit_party_1","ASHXZ2ZVZ6HF0","either","5","277","","","","","","","0","1","0","","0.3809901122","0.4","0.2","0.8","0.6","0.1356826849","0.3809901122","0.4390431751","0.03899227154","","","","","","","","","","","","","","74","J","1","","","53","main_expt",""
"","bandit","134","627809","0.0-95.0-0.0","31344512","wem/bandit_party_1","ASHXZ2ZVZ6HF0","either","5","400","","","","","","","0","0","1","0.3452518694","","0.4","0.2","0.8","0.6","","","","","0.1038772241","0.3452518694","0.4549270822","0.04009146386","","","","","","","","","","74","J","1","","","54","main_expt",""
"","bandit","135","629648","0.0-96.0-0.0","31344512","wem/bandit_party_1","ASHXZ2ZVZ6HF0","either","5","327","","","","","","","0","0","1","","0.3263112327","0.4","0.2","0.8","0.6","0.1689791829","0.3263112327","0.4710341864","0.0155768565","","","","","","","","","","","","","","74","J","1","","","55","main_expt",""
"","bandit","136","631440","0.0-97.0-0.0","31344512","wem/bandit_party_1","ASHXZ2ZVZ6HF0","either","5","280","","","","","","","0","0","1","0.3308963945","","0.4","0.2","0.8","0.6","","","","","0.1108888145","0.3308963945","0.4745834276","0.02112461672","","","","","","","","","","74","J","1","","","56","main_expt",""
"","bandit","137","633416","0.0-98.0-0.0","31344512","wem/bandit_party_1","ASHXZ2ZVZ6HF0","either","5","463","","","","","","","0","0","1","","0.1206542402","0.4","0.2","0.8","0.6","0.1206542402","0.3150326571","0.489318572","0.0126553198","","","","","","","","","","","","","","72","H","0","img/none_selected.jpg","","57","main_expt",""
"","bandit","138","635170","0.0-99.0-0.0","31344512","wem/bandit_party_1","ASHXZ2ZVZ6HF0","either","5","242","","","","","","","0","0","1","0.09707343937","","0.4","0.2","0.8","0.6","","","","","0.09707343937","0.3049116772","0.480037986","0.01131359515","","","","","","","","","","72","H","0","img/none_selected.jpg","","58","main_expt",""
"","bandit","139","636944","0.0-100.0-0.0","31344512","wem/bandit_party_1","ASHXZ2ZVZ6HF0","either","5","261","","","","","","","0","0","1","","0.1044384952","0.4","0.2","0.8","0.6","0.1044384952","0.3050987947","0.4593461039","0.01030075821","","","","","","","","","","","","","","72","H","0","img/none_selected.jpg","","59","main_expt",""
"","bandit","140","638682","0.0-101.0-0.0","31344512","wem/bandit_party_1","ASHXZ2ZVZ6HF0","either","5","224","","","","","","","0","0","1","0.08890369623","","0.4","0.2","0.8","0.6","","","","","0.08890369623","0.3274009355","0.446051488","0.005868957973","","","","","","","","","","72","H","0","img/none_selected.jpg","","60","main_expt",""
"","bandit","141","640401","0.0-102.0-0.0","31344512","wem/bandit_party_1","ASHXZ2ZVZ6HF0","either","5","207","","","","","","","1","0","0","0.08921221942","","0.4","0.2","0.8","0.6","","","","","0.08921221942","0.3428943983","0.4391285327","0.004361943215","","","","","","","","","","72","H","0","img/none_selected.jpg","","61","main_expt",""
"","bandit","142","642201","0.0-103.0-0.0","31344512","wem/bandit_party_1","ASHXZ2ZVZ6HF0","either","5","286","","","","","","","0","0","1","","0.09812025034","0.4","0.2","0.8","0.6","0.09812025034","0.3549763931","0.4063883723","0.005208412743","","","","","","","","","","","","","","72","H","0","img/none_selected.jpg","","62","main_expt",""
"","bandit","143","644017","0.0-104.0-0.0","31344512","wem/bandit_party_1","ASHXZ2ZVZ6HF0","either","5","304","","","","","","","0","0","1","0.09006279409","","0.4","0.2","0.8","0.6","","","","","0.09006279409","0.3496678451","0.4330387396","0.006461011255","","","","","","","","","","72","H","0","img/none_selected.jpg","","63","main_expt",""
"","bandit","144","645818","0.0-105.0-0.0","31344512","wem/bandit_party_1","ASHXZ2ZVZ6HF0","either","5","288","","","","","","","0","0","1","","0.3188537263","0.4","0.2","0.8","0.6","0.1118976224","0.3188537263","0.4207902426","0.01267926231","","","","","","","","","","","","","","74","J","1","","","64","main_expt",""
"","bandit","145","647800","0.0-106.0-0.0","31344512","wem/bandit_party_1","ASHXZ2ZVZ6HF0","either","5","470","","","","","","","0","0","1","0.3719582347","","0.4","0.2","0.8","0.6","","","","","0.1053817613","0.3191795336","0.3719582347","0.009732787917","","","","","","","","","","75","K","2","","","65","main_expt",""
"","bandit","146","650048","0.0-107.0-0.0","31344512","wem/bandit_party_1","ASHXZ2ZVZ6HF0","either","5","734","","","","","","","0","0","1","0.01092542651","","0.4","0.2","0.8","0.6","","","","","0.1307356695","0.268616347","0.3748569955","0.01092542651","","","","","","","","","","76","L","3","","","66","main_expt",""
"","bandit","147","651784","0.0-108.0-0.0","31344512","wem/bandit_party_1","ASHXZ2ZVZ6HF0","either","5","222","","","","","","","0","0","1","","0.335252031","0.4","0.2","0.8","0.6","0.1418436428","0.259194563","0.335252031","0.02125534741","","","","","","","","","","","","","","75","K","2","","","67","main_expt",""
"","bandit","148","653568","0.0-109.0-0.0","31344512","wem/bandit_party_1","ASHXZ2ZVZ6HF0","either","5","272","","","","","","","0","0","1","","0.2281204868","0.4","0.2","0.8","0.6","0.1459089566","0.2281204868","0.3199157278","0.02360283027","","","","","","","","","","","","","","74","J","1","","","68","main_expt",""
"","bandit","149","655377","0.0-110.0-0.0","31344512","wem/bandit_party_1","ASHXZ2ZVZ6HF0","either","5","294","","","","","","","0","1","0","","0.1809721424","0.4","0.2","0.8","0.6","0.1809721424","0.2195844169","0.3068525281","0.02539305756","","","","","","","","","","","","","","72","H","0","img/none_selected.jpg","","69","main_expt",""
"","bandit","150","657228","0.0-111.0-0.0","31344512","wem/bandit_party_1","ASHXZ2ZVZ6HF0","either","5","337","","","","","","","1","0","0","0.1784068974","","0.4","0.2","0.8","0.6","","","","","0.1784068974","0.1883338509","0.3181076016","0.05014388586","","","","","","","","","","72","H","0","img/none_selected.jpg","","70","main_expt",""
"","bandit","151","659025","0.0-112.0-0.0","31344512","wem/bandit_party_1","ASHXZ2ZVZ6HF0","either","5","285","","","","","","","0","0","1","","0.1973023396","0.4","0.2","0.8","0.6","0.1973023396","0.1639708178","0.2926426422","0.04209054697","","","","","","","","","","","","","","72","H","0","img/none_selected.jpg","","71","main_expt",""
"","bandit","152","660809","0.0-113.0-0.0","31344512","wem/bandit_party_1","ASHXZ2ZVZ6HF0","either","5","270","","","","","","","0","0","1","","0.2436342847","0.4","0.2","0.8","0.6","0.2436342847","0.1312842785","0.2380263643","0.05611199342","","","","","","","","","","","","","","72","H","0","img/none_selected.jpg","","72","main_expt",""
"","bandit","153","662673","0.0-114.0-0.0","31344512","wem/bandit_party_1","ASHXZ2ZVZ6HF0","either","5","351","","","","","","","0","0","1","0.1992173182","","0.4","0.2","0.8","0.6","","","","","0.1992173182","0.1805041857","0.2407197948","0.05293238473","","","","","","","","","","72","H","0","img/none_selected.jpg","","73","main_expt",""
"","bandit","154","664488","0.0-115.0-0.0","31344512","wem/bandit_party_1","ASHXZ2ZVZ6HF0","either","5","302","","","","","","","0","0","1","","0.1739557812","0.4","0.2","0.8","0.6","0.2347098304","0.1739557812","0.2317468449","0.0318456884","","","","","","","","","","","","","","74","J","1","","","74","main_expt",""
"","bandit","155","666264","0.0-116.0-0.0","31344512","wem/bandit_party_1","ASHXZ2ZVZ6HF0","either","5","262","","","","","","","0","0","1","","0.2434916027","0.4","0.2","0.8","0.6","0.2641442137","0.2434916027","0.2545997551","0.03873230677","","","","","","","","","","","","","","74","J","1","","","75","main_expt",""
"","bandit","156","668026","0.0-117.0-0.0","31344512","wem/bandit_party_1","ASHXZ2ZVZ6HF0","either","5","249","","","","","","","0","0","1","","0.2438468568","0.4","0.2","0.8","0.6","0.3192644053","0.2438468568","0.2890845388","0.03304947682","","","","","","","","","","","","","","74","J","1","","","76","main_expt",""
"","bandit","157","669648","0.0-118.0-0.0","31344512","wem/bandit_party_1","ASHXZ2ZVZ6HF0","either","5","108","","","","","","","0","0","1","0.2386362654","","0.4","0.2","0.8","0.6","","","","","0.3351132613","0.2425324642","0.2386362654","0.02607887458","","","","","","","","","","75","K","2","","","77","main_expt",""
"","bandit","158","671288","0.0-119.0-0.0","31344512","wem/bandit_party_1","ASHXZ2ZVZ6HF0","either","5","126","","","","","","","0","0","1","0.2673679704","","0.4","0.2","0.8","0.6","","","","","0.3086784207","0.205588479","0.2673679704","0.02492981692","","","","","","","","","","75","K","2","","","78","main_expt",""
"","bandit","159","673073","0.0-120.0-0.0","31344512","wem/bandit_party_1","ASHXZ2ZVZ6HF0","either","5","271","","","","","","","1","0","0","0.2813811921","","0.4","0.2","0.8","0.6","","","","","0.3076482073","0.213062191","0.2813811921","0.01824110002","","","","","","","","","","75","K","2","","","79","main_expt",""
"","bandit","160","674953","0.0-121.0-0.0","31344512","wem/bandit_party_1","ASHXZ2ZVZ6HF0","either","5","366","","","","","","","1","0","0","0.2419447949","","0.4","0.2","0.8","0.6","","","","","0.3605025214","0.1852926048","0.2419447949","0.0202176162","","","","","","","","","","75","K","2","","","80","main_expt",""
"","bandit","161","676825","0.0-122.0-0.0","31344512","wem/bandit_party_1","ASHXZ2ZVZ6HF0","either","5","359","","","","","","","0","0","1","","0.323481111","0.4","0.2","0.8","0.6","0.3286166321","0.2332942271","0.323481111","0.0252752587","","","","","","","","","","","","","","75","K","2","","","81","main_expt",""
"","bandit","162","678603","0.0-123.0-0.0","31344512","wem/bandit_party_1","ASHXZ2ZVZ6HF0","either","5","264","","","","","","","0","0","1","","0.3097244961","0.4","0.2","0.8","0.6","0.3459677762","0.2087797338","0.3097244961","0.05668457717","","","","","","","","","","","","","","75","K","2","","","82","main_expt",""
"","bandit","163","680329","0.0-124.0-0.0","31344512","wem/bandit_party_1","ASHXZ2ZVZ6HF0","either","5","212","","","","","","","0","0","1","0.2787498647","","0.4","0.2","0.8","0.6","","","","","0.3092751195","0.2049979043","0.2787498647","0.07760530004","","","","","","","","","","75","K","2","","","83","main_expt",""
"","bandit","164","682304","0.0-125.0-0.0","31344512","wem/bandit_party_1","ASHXZ2ZVZ6HF0","either","5","463","","","","","","","0","0","1","0.03696005566","","0.4","0.2","0.8","0.6","","","","","0.3044630387","0.2151780091","0.2589524449","0.03696005566","","","","","","","","","","76","L","3","","","84","main_expt",""
"","bandit","165","684056","0.0-126.0-0.0","31344512","wem/bandit_party_1","ASHXZ2ZVZ6HF0","either","5","238","","","","","","","0","0","1","0.04177257934","","0.4","0.2","0.8","0.6","","","","","0.2812480587","0.1497615914","0.2769318636","0.04177257934","","","","","","","","","","76","L","3","","","85","main_expt",""
"","bandit","166","685936","0.0-127.0-0.0","31344512","wem/bandit_party_1","ASHXZ2ZVZ6HF0","either","5","366","","","","","","","0","0","1","0.0385770192","","0.4","0.2","0.8","0.6","","","","","0.2506532223","0.1223687677","0.2849222391","0.0385770192","","","","","","","","","","76","L","3","","","86","main_expt",""
"","bandit","167","687752","0.0-128.0-0.0","31344512","wem/bandit_party_1","ASHXZ2ZVZ6HF0","either","5","303","","","","","","","0","0","1","0.3131087309","","0.4","0.2","0.8","0.6","","","","","0.2269900387","0.1472857413","0.3131087309","0.03720252147","","","","","","","","","","75","K","2","","","87","main_expt",""
"","bandit","168","689554","0.0-129.0-0.0","31344512","wem/bandit_party_1","ASHXZ2ZVZ6HF0","either","5","287","","","","","","","1","0","0","0.3038587512","","0.4","0.2","0.8","0.6","","","","","0.1504729919","0.1252586248","0.3038587512","0.06746059371","","","","","","","","","","75","K","2","","","88","main_expt",""
"","bandit","169","691497","0.0-130.0-0.0","31344512","wem/bandit_party_1","ASHXZ2ZVZ6HF0","either","5","427","","","","","","","1","0","0","0.3308022157","","0.4","0.2","0.8","0.6","","","","","0.1382070302","0.1194927994","0.3308022157","0.04069757945","","","","","","","","","","75","K","2","","","89","main_expt",""
"","bandit","170","693513","0.0-131.0-0.0","31344512","wem/bandit_party_1","ASHXZ2ZVZ6HF0","either","5","503","","","","","","","0","0","1","0.3574922351","","0.4","0.2","0.8","0.6","","","","","0.1364765349","0.1589750007","0.3574922351","0.07325379503","","","","","","","","","","75","K","2","","","90","main_expt",""
"","bandit","171","695385","0.0-132.0-0.0","31344512","wem/bandit_party_1","ASHXZ2ZVZ6HF0","either","5","358","","","","","","","0","0","1","0.3729517688","","0.4","0.2","0.8","0.6","","","","","0.09318196272","0.1859960426","0.3729517688","0.06877471811","","","","","","","","","","75","K","2","","","91","main_expt",""
"","bandit","172","697185","0.0-133.0-0.0","31344512","wem/bandit_party_1","ASHXZ2ZVZ6HF0","either","5","287","","","","","","","0","0","1","0.398352994","","0.4","0.2","0.8","0.6","","","","","0.06946097624","0.192419488","0.398352994","0.04115987362","","","","","","","","","","75","K","2","","","92","main_expt",""
"","bandit","173","698929","0.0-134.0-0.0","31344512","wem/bandit_party_1","ASHXZ2ZVZ6HF0","either","5","229","","","","","","","0","0","1","0.4135860398","","0.4","0.2","0.8","0.6","","","","","0.08102832817","0.1716033463","0.4135860398","0.07078892783","","","","","","","","","","75","K","2","","","93","main_expt",""
"","bandit","174","700658","0.0-135.0-0.0","31344512","wem/bandit_party_1","ASHXZ2ZVZ6HF0","either","5","211","","","","","","","0","1","0","","0.1935897604","0.4","0.2","0.8","0.6","0.1271360848","0.1935897604","0.3786880174","0.05572868433","","","","","","","","","","","","","","74","J","1","","","94","main_expt",""
"","bandit","175","702697","0.0-136.0-0.0","31344512","wem/bandit_party_1","ASHXZ2ZVZ6HF0","either","5","525","","","","","","","0","0","1","0.2193228015","","0.4","0.2","0.8","0.6","","","","","0.1097592989","0.2193228015","0.3823424718","0.05056929995","","","","","","","","","","74","J","1","","","95","main_expt",""
"","bandit","176","704560","0.0-137.0-0.0","31344512","wem/bandit_party_1","ASHXZ2ZVZ6HF0","either","5","350","","","","","","","1","0","0","0.3262643469","","0.4","0.2","0.8","0.6","","","","","0.1085490834","0.3262643469","0.3642725552","0.04159874267","","","","","","","","","","74","J","1","","","96","main_expt",""
"","bandit","177","706416","0.0-138.0-0.0","31344512","wem/bandit_party_1","ASHXZ2ZVZ6HF0","either","5","341","","","","","","","0","0","1","","0.3207405496","0.4","0.2","0.8","0.6","0.1049812554","0.3207405496","0.3197717944","0.03654451862","","","","","","","","","","","","","","74","J","1","","","97","main_expt",""
"","bandit","178","708297","0.0-139.0-0.0","31344512","wem/bandit_party_1","ASHXZ2ZVZ6HF0","either","5","365","","","","","","","0","0","1","","0.08177978443","0.4","0.2","0.8","0.6","0.08177978443","0.3712856991","0.2514424369","0.04190300095","","","","","","","","","","","","","","72","H","0","img/none_selected.jpg","","98","main_expt",""
"","bandit","179","710225","0.0-140.0-0.0","31344512","wem/bandit_party_1","ASHXZ2ZVZ6HF0","either","5","413","","","","","","","0","0","1","0.07574087804","","0.4","0.2","0.8","0.6","","","","","0.07574087804","0.3740145378","0.2926772137","0.08742990617","","","","","","","","","","72","H","0","img/none_selected.jpg","","99","main_expt",""
"","bandit","180","712107","0.0-141.0-0.0","31344512","wem/bandit_party_1","ASHXZ2ZVZ6HF0","either","5","368","","","","","","","0","1","0","","0.07829319678","0.4","0.2","0.8","0.6","0.07829319678","0.3776295542","0.234485335","0.08966523481","","","","","","","","","","","","","","72","H","0","img/none_selected.jpg","","100","main_expt",""
"","bandit","181","713993","0.0-142.0-0.0","31344512","wem/bandit_party_1","ASHXZ2ZVZ6HF0","either","5","373","","","","","","","0","0","1","","0.07919243683","0.4","0.2","0.8","0.6","0.07919243683","0.3592666398","0.250352175","0.07849065771","","","","","","","","","","","","","","72","H","0","img/none_selected.jpg","","101","main_expt",""
"","bandit","182","715760","0.0-143.0-0.0","31344512","wem/bandit_party_1","ASHXZ2ZVZ6HF0","either","5","253","","","","","","","0","0","1","0.1052753188","","0.4","0.2","0.8","0.6","","","","","0.1052753188","0.3412191773","0.2139972863","0.1054267613","","","","","","","","","","72","H","0","img/none_selected.jpg","","102","main_expt",""
"","bandit","183","717608","0.0-144.0-0.0","31344512","wem/bandit_party_1","ASHXZ2ZVZ6HF0","either","5","334","","","","","","","0","0","1","","0.1248526142","0.4","0.2","0.8","0.6","0.1248526142","0.3133100433","0.20092706","0.1120981937","","","","","","","","","","","","","","72","H","0","img/none_selected.jpg","","103","main_expt",""
"","bandit","184","719440","0.0-145.0-0.0","31344512","wem/bandit_party_1","ASHXZ2ZVZ6HF0","either","5","318","","","","","","","0","0","1","0.142969925","","0.4","0.2","0.8","0.6","","","","","0.142969925","0.3219148419","0.2305366804","0.1034740879","","","","","","","","","","72","H","0","img/none_selected.jpg","","104","main_expt",""
"","bandit","185","721191","0.0-146.0-0.0","31344512","wem/bandit_party_1","ASHXZ2ZVZ6HF0","either","5","237","","","","","","","0","0","1","0.13947254","","0.4","0.2","0.8","0.6","","","","","0.13947254","0.3300892518","0.2102135581","0.07597240327","","","","","","","","","","72","H","0","img/none_selected.jpg","","105","main_expt",""
"","bandit","186","723040","0.0-147.0-0.0","31344512","wem/bandit_party_1","ASHXZ2ZVZ6HF0","either","5","334","","","","","","","0","1","0","","0.3401839058","0.4","0.2","0.8","0.6","0.1329526997","0.3401839058","0.2219457329","0.1124257427","","","","","","","","","","","","","","74","J","1","","","106","main_expt",""
"","bandit","187","725072","0.0-148.0-0.0","31344512","wem/bandit_party_1","ASHXZ2ZVZ6HF0","either","5","518","","","","","","","0","0","1","","0.3784706915","0.4","0.2","0.8","0.6","0.1727290233","0.3784706915","0.3048423019","0.1133168519","","","","","","","","","","","","","","74","J","1","","","107","main_expt",""
"","bandit","188","727073","0.0-149.0-0.0","31344512","wem/bandit_party_1","ASHXZ2ZVZ6HF0","either","5","486","","","","","","","0","1","0","","0.3945753887","0.4","0.2","0.8","0.6","0.1864487031","0.3945753887","0.258150515","0.1752395656","","","","","","","","","","","","","","74","J","1","","","108","main_expt",""
"","bandit","189","729193","0.0-150.0-0.0","31344512","wem/bandit_party_1","ASHXZ2ZVZ6HF0","either","5","606","","","","","","","0","0","1","","0.356827327","0.4","0.2","0.8","0.6","0.2463216238","0.356827327","0.1859129148","0.1862973424","","","","","","","","","","","","","","74","J","1","","","109","main_expt",""
"","bandit","190","731025","0.0-151.0-0.0","31344512","wem/bandit_party_1","ASHXZ2ZVZ6HF0","either","5","318","","","","","","","0","1","0","","0.2344179837","0.4","0.2","0.8","0.6","0.2431522628","0.2344179837","0.1371624404","0.2015845776","","","","","","","","","","","","","","74","J","1","","","110","main_expt",""
"","bandit","191","732963","0.0-152.0-0.0","31344512","wem/bandit_party_1","ASHXZ2ZVZ6HF0","either","5","423","","","","","","","0","0","1","","0.2644823096","0.4","0.2","0.8","0.6","0.1757476643","0.2644823096","0.1258232978","0.2003651753","","","","","","","","","","","","","","74","J","1","","","111","main_expt",""
"","bandit","192","734624","0.0-153.0-0.0","31344512","wem/bandit_party_1","ASHXZ2ZVZ6HF0","either","5","148","","","","","","","0","0","1","","0.28311182","0.4","0.2","0.8","0.6","0.2451518953","0.28311182","0.1529967373","0.21392293","","","","","","","","","","","","","","74","J","1","","","112","main_expt",""
"","bandit","193","736408","0.0-154.0-0.0","31344512","wem/bandit_party_1","ASHXZ2ZVZ6HF0","either","5","271","","","","","","","0","0","1","","0.2413269532","0.4","0.2","0.8","0.6","0.2407836715","0.2413269532","0.148248117","0.1606798039","","","","","","","","","","","","","","74","J","1","","","113","main_expt",""
"","bandit","194","738248","0.0-155.0-0.0","31344512","wem/bandit_party_1","ASHXZ2ZVZ6HF0","either","5","325","","","","","","","0","0","1","","0.3100969134","0.4","0.2","0.8","0.6","0.3099317417","0.3100969134","0.1562208239","0.2095980235","","","","","","","","","","","","","","74","J","1","","","114","main_expt",""
"","bandit","195","739968","0.0-156.0-0.0","31344512","wem/bandit_party_1","ASHXZ2ZVZ6HF0","either","5","206","","","","","","","0","0","1","","0.3180754701","0.4","0.2","0.8","0.6","0.3180754701","0.329842252","0.2138032898","0.2550279667","","","","","","","","","","","","","","72","H","0","img/none_selected.jpg","","115","main_expt",""
"","bandit","196","741680","0.0-157.0-0.0","31344512","wem/bandit_party_1","ASHXZ2ZVZ6HF0","either","5","198","","","","","","","0","0","1","","0.2919742107","0.4","0.2","0.8","0.6","0.2919742107","0.3223706096","0.2331260325","0.2471764387","","","","","","","","","","","","","","72","H","0","img/none_selected.jpg","","116","main_expt",""
"","bandit","197","743459","0.0-158.0-0.0","31344512","wem/bandit_party_1","ASHXZ2ZVZ6HF0","either","5","263","","","","","","","0","0","1","","0.2799774295","0.4","0.2","0.8","0.6","0.2799774295","0.3098408215","0.1826309729","0.2730878341","","","","","","","","","","","","","","72","H","0","img/none_selected.jpg","","117","main_expt",""
"","bandit","198","745185","0.0-159.0-0.0","31344512","wem/bandit_party_1","ASHXZ2ZVZ6HF0","either","5","212","","","","","","","0","0","1","0.2646714695","","0.4","0.2","0.8","0.6","","","","","0.2646714695","0.2974554567","0.1511269107","0.2071462199","","","","","","","","","","72","H","0","img/none_selected.jpg","","118","main_expt",""
"","bandit","199","746953","0.0-160.0-0.0","31344512","wem/bandit_party_1","ASHXZ2ZVZ6HF0","either","5","253","","","","","","","0","0","1","","0.1559979654","0.4","0.2","0.8","0.6","0.3179839519","0.3598468986","0.1559979654","0.2275232499","","","","","","","","","","","","","","75","K","2","","","119","main_expt",""
"","bandit","200","748681","0.0-161.0-0.0","31344512","wem/bandit_party_1","ASHXZ2ZVZ6HF0","either","5","211","","","","","","","0","0","1","0.1463004055","","0.4","0.2","0.8","0.6","","","","","0.3302262658","0.2984373086","0.1463004055","0.2767559596","","","","","","","","","","75","K","2","","","120","main_expt",""
"","bandit","201","750449","0.0-162.0-0.0","31344512","wem/bandit_party_1","ASHXZ2ZVZ6HF0","either","5","252","","","","","","","0","0","1","","0.1418195479","0.4","0.2","0.8","0.6","0.3500549905","0.2973090059","0.1418195479","0.3448590315","","","","","","","","","","","","","","75","K","2","","","121","main_expt",""
"","bandit","202","753634","0.0-163.0-0.0","31344512","wem/bandit_party_1","ASHXZ2ZVZ6HF0","either","5","1672","","","","","","","0","0","1","0.1270782113","","0.4","0.2","0.8","0.6","","","","","0.2686616284","0.3382791822","0.1270782113","0.3593301016","","","","","","","","","","75","K","2","","","122","main_expt",""
"","bandit","203","755752","0.0-164.0-0.0","31344512","wem/bandit_party_1","ASHXZ2ZVZ6HF0","either","5","602","","","","","","","0","0","1","","0.3680529171","0.4","0.2","0.8","0.6","0.2277230314","0.3154347028","0.1207154071","0.3680529171","","","","","","","","","","","","","","76","L","3","","","123","main_expt",""
"","bandit","204","757528","0.0-165.0-0.0","31344512","wem/bandit_party_1","ASHXZ2ZVZ6HF0","either","5","261","","","","","","","0","0","1","0.3476523483","","0.4","0.2","0.8","0.6","","","","","0.3287090939","0.2966737815","0.1229329119","0.3476523483","","","","","","","","","","76","L","3","","","124","main_expt",""
"","bandit","205","759424","0.0-166.0-0.0","31344512","wem/bandit_party_1","ASHXZ2ZVZ6HF0","either","5","380","","","","","","","0","0","1","","0.3564603465","0.4","0.2","0.8","0.6","0.3687339586","0.3094831126","0.09241122996","0.3564603465","","","","","","","","","","","","","","76","L","3","","","125","main_expt",""
"","bandit","206","761225","0.0-167.0-0.0","31344512","wem/bandit_party_1","ASHXZ2ZVZ6HF0","either","5","286","","","","","","","0","0","1","0.3550684458","","0.4","0.2","0.8","0.6","","","","","0.3836195774","0.2488993205","0.08418962236","0.3550684458","","","","","","","","","","76","L","3","","","126","main_expt",""
"","bandit","207","762905","0.0-168.0-0.0","31344512","wem/bandit_party_1","ASHXZ2ZVZ6HF0","either","5","164","","","","","","","1","0","0","0.3617365958","","0.4","0.2","0.8","0.6","","","","","0.3617365958","0.1953487027","0.154715772","0.3235559827","","","","","","","","","","72","H","0","img/none_selected.jpg","","127","main_expt",""
"","bandit","208","764747","0.0-169.0-0.0","31344512","wem/bandit_party_1","ASHXZ2ZVZ6HF0","either","5","328","","","","","","","1","0","0","0.3235283493","","0.4","0.2","0.8","0.6","","","","","0.3235283493","0.2171889907","0.1556709078","0.312087491","","","","","","","","","","72","H","0","img/none_selected.jpg","","128","main_expt",""
"","bandit","209","766673","0.0-170.0-0.0","31344512","wem/bandit_party_1","ASHXZ2ZVZ6HF0","either","5","410","","","","","","","1","0","0","0.3453830546","","0.4","0.2","0.8","0.6","","","","","0.3453830546","0.2467699801","0.1214200615","0.2843272188","","","","","","","","","","72","H","0","img/none_selected.jpg","","129","main_expt",""
"","bandit","210","768457","0.0-171.0-0.0","31344512","wem/bandit_party_1","ASHXZ2ZVZ6HF0","either","5","269","","","","","","","1","0","0","0.3242747857","","0.4","0.2","0.8","0.6","","","","","0.3242747857","0.2814443482","0.1377283829","0.2128416856","","","","","","","","","","72","H","0","img/none_selected.jpg","","130","main_expt",""
"","bandit","211","770184","0.0-172.0-0.0","31344512","wem/bandit_party_1","ASHXZ2ZVZ6HF0","either","5","212","","","","","","","0","1","0","","0.3417201858","0.4","0.2","0.8","0.6","0.3417201858","0.2834176508","0.1397421628","0.2403879813","","","","","","","","","","","","","","72","H","0","img/none_selected.jpg","","131","main_expt",""
"","bandit","212","772040","0.0-173.0-0.0","31344512","wem/bandit_party_1","ASHXZ2ZVZ6HF0","either","5","342","","","","","","","0","1","0","","0.3498614837","0.4","0.2","0.8","0.6","0.3498614837","0.2429908031","0.1061875113","0.2811421594","","","","","","","","","","","","","","72","H","0","img/none_selected.jpg","","132","main_expt",""
"","bandit","213","773968","0.0-174.0-0.0","31344512","wem/bandit_party_1","ASHXZ2ZVZ6HF0","either","5","412","","","","","","","0","1","0","","0.3134828643","0.4","0.2","0.8","0.6","0.3134828643","0.3053559495","0.07774811701","0.3002858371","","","","","","","","","","","","","","72","H","0","img/none_selected.jpg","","133","main_expt",""
"","bandit","214","775794","0.0-175.0-0.0","31344512","wem/bandit_party_1","ASHXZ2ZVZ6HF0","either","5","311","","","","","","","0","0","1","","0.3554593188","0.4","0.2","0.8","0.6","0.3554593188","0.2693478067","0.08211281178","0.277406375","","","","","","","","","","","","","","72","H","0","img/none_selected.jpg","","134","main_expt",""
"","bandit","215","777641","0.0-176.0-0.0","31344512","wem/bandit_party_1","ASHXZ2ZVZ6HF0","either","5","330","","","","","","","0","0","1","","0.3150900126","0.4","0.2","0.8","0.6","0.3150900126","0.3369166079","0.1123817552","0.2897147582","","","","","","","","","","","","","","72","H","0","img/none_selected.jpg","","135","main_expt",""
"","bandit","216","779433","0.0-177.0-0.0","31344512","wem/bandit_party_1","ASHXZ2ZVZ6HF0","either","5","277","","","","","","","0","0","1","","0.3199395785","0.4","0.2","0.8","0.6","0.3199395785","0.268603144","0.1478339482","0.3590576628","","","","","","","","","","","","","","72","H","0","img/none_selected.jpg","","136","main_expt",""
"","bandit","217","781521","0.0-178.0-0.0","31344512","wem/bandit_party_1","ASHXZ2ZVZ6HF0","either","5","572","","","","","","","0","0","1","0.1374936615","","0.4","0.2","0.8","0.6","","","","","0.33362357","0.2373427956","0.1374936615","0.3822427384","","","","","","","","","","75","K","2","","","137","main_expt",""
"","bandit","218","783745","0.0-179.0-0.0","31344512","wem/bandit_party_1","ASHXZ2ZVZ6HF0","either","5","709","","","","","","","0","0","1","0.159761955","","0.4","0.2","0.8","0.6","","","","","0.3611324022","0.2206869265","0.159761955","0.3410071165","","","","","","","","","","75","K","2","","","138","main_expt",""
"","bandit","219","785761","0.0-180.0-0.0","31344512","wem/bandit_party_1","ASHXZ2ZVZ6HF0","either","5","500","","","","","","","0","0","1","","0.1363721132","0.4","0.2","0.8","0.6","0.3504145086","0.2177966349","0.1363721132","0.3738014659","","","","","","","","","","","","","","75","K","2","","","139","main_expt",""
"","bandit","220","787625","0.0-181.0-0.0","31344512","wem/bandit_party_1","ASHXZ2ZVZ6HF0","either","5","351","","","","","","","0","0","1","0.422575493","","0.4","0.2","0.8","0.6","","","","","0.309774603","0.2387685432","0.1031445192","0.422575493","","","","","","","","","","76","L","3","","","140","main_expt",""
"","bandit","221","789312","0.0-182.0-0.0","31344512","wem/bandit_party_1","ASHXZ2ZVZ6HF0","either","5","172","","","","","","","0","1","0","","0.4439129864","0.4","0.2","0.8","0.6","0.3506531288","0.2575087366","0.09805286369","0.4439129864","","","","","","","","","","","","","","76","L","3","","","141","main_expt",""
"","bandit","222","791496","0.0-183.0-0.0","31344512","wem/bandit_party_1","ASHXZ2ZVZ6HF0","either","5","669","","","","","","","1","0","0","0.4323802182","","0.4","0.2","0.8","0.6","","","","","0.2965027242","0.2392038972","0.1149002948","0.4323802182","","","","","","","","","","76","L","3","","","142","main_expt",""
"","bandit","223","793328","0.0-184.0-0.0","31344512","wem/bandit_party_1","ASHXZ2ZVZ6HF0","either","5","316","","","","","","","1","0","0","0.4358412593","","0.4","0.2","0.8","0.6","","","","","0.2087517366","0.2216470548","0.1209542099","0.4358412593","","","","","","","","","","76","L","3","","","143","main_expt",""
"","bandit","224","795169","0.0-185.0-0.0","31344512","wem/bandit_party_1","ASHXZ2ZVZ6HF0","either","5","325","","","","","","","0","0","1","","0.4407373256","0.4","0.2","0.8","0.6","0.2313605626","0.2224896139","0.1202521083","0.4407373256","","","","","","","","","","","","","","76","L","3","","","144","main_expt",""
"","bandit","225","797025","0.0-186.0-0.0","31344512","wem/bandit_party_1","ASHXZ2ZVZ6HF0","either","5","340","","","","","","","1","0","0","0.4661091035","","0.4","0.2","0.8","0.6","","","","","0.1785565547","0.1925605464","0.1619743669","0.4661091035","","","","","","","","","","76","L","3","","","145","main_expt",""
"","bandit","226","798771","0.0-187.0-0.0","31344512","wem/bandit_party_1","ASHXZ2ZVZ6HF0","either","5","231","","","","","","","1","0","0","0.4637097668","","0.4","0.2","0.8","0.6","","","","","0.1770660648","0.2069800611","0.1664631043","0.4637097668","","","","","","","","","","76","L","3","","","146","main_expt",""
"","bandit","227","800513","0.0-188.0-0.0","31344512","wem/bandit_party_1","ASHXZ2ZVZ6HF0","either","5","226","","","","","","","0","0","1","","0.4700491642","0.4","0.2","0.8","0.6","0.1063371611","0.2489662189","0.1669241763","0.4700491642","","","","","","","","","","","","","","76","L","3","","","147","main_expt",""
"","bandit","228","802289","0.0-189.0-0.0","31344512","wem/bandit_party_1","ASHXZ2ZVZ6HF0","either","5","261","","","","","","","1","0","0","0.4648109734","","0.4","0.2","0.8","0.6","","","","","0.1216370817","0.1946464158","0.1581456949","0.4648109734","","","","","","","","","","76","L","3","","","148","main_expt",""
"","bandit","229","804129","0.0-190.0-0.0","31344512","wem/bandit_party_1","ASHXZ2ZVZ6HF0","either","5","324","","","","","","","0","0","1","","0.4635511513","0.4","0.2","0.8","0.6","0.1024256959","0.1826562491","0.1698392466","0.4635511513","","","","","","","","","","","","","","76","L","3","","","149","main_expt",""
"","bandit","230","805823","0.0-191.0-0.0","31344512","wem/bandit_party_1","ASHXZ2ZVZ6HF0","either","5","181","","","","","","","0","0","1","","0.4445017148","0.4","0.2","0.8","0.6","0.1371094633","0.1750473563","0.2140114634","0.4445017148","","","","","","","","","","","","","","76","L","3","","","150","main_expt",""
"","bandit","231","807616","0.0-192.0-0.0","31344512","wem/bandit_party_1","ASHXZ2ZVZ6HF0","either","5","278","","","","","","","1","0","0","0.4434799742","","0.4","0.2","0.8","0.6","","","","","0.1702433702","0.1109536645","0.2392960001","0.4434799742","","","","","","","","","","76","L","3","","","151","main_expt",""
"","bandit","232","809442","0.0-193.0-0.0","31344512","wem/bandit_party_1","ASHXZ2ZVZ6HF0","either","5","311","","","","","","","0","1","0","","0.4451665291","0.4","0.2","0.8","0.6","0.1860489046","0.1143086707","0.2095863317","0.4451665291","","","","","","","","","","","","","","76","L","3","","","152","main_expt",""
"","bandit","233","811264","0.0-194.0-0.0","31344512","wem/bandit_party_1","ASHXZ2ZVZ6HF0","either","5","306","","","","","","","1","0","0","0.4401532833","","0.4","0.2","0.8","0.6","","","","","0.2117094388","0.1236290712","0.2543258611","0.4401532833","","","","","","","","","","76","L","3","","","153","main_expt",""
"","bandit","234","813081","0.0-195.0-0.0","31344512","wem/bandit_party_1","ASHXZ2ZVZ6HF0","either","5","301","","","","","","","0","0","1","0.4516855879","","0.4","0.2","0.8","0.6","","","","","0.2072389033","0.1600695342","0.2602259906","0.4516855879","","","","","","","","","","76","L","3","","","154","main_expt",""
"","bandit","235","814865","0.0-196.0-0.0","31344512","wem/bandit_party_1","ASHXZ2ZVZ6HF0","either","5","267","","","","","","","1","0","0","0.4480264808","","0.4","0.2","0.8","0.6","","","","","0.1986333914","0.1770288166","0.2750581274","0.4480264808","","","","","","","","","","76","L","3","","","155","main_expt",""
"","bandit","236","816649","0.0-197.0-0.0","31344512","wem/bandit_party_1","ASHXZ2ZVZ6HF0","either","5","268","","","","","","","0","0","1","","0.4260414265","0.4","0.2","0.8","0.6","0.2054640346","0.1761817894","0.2438045727","0.4260414265","","","","","","","","","","","","","","76","L","3","","","156","main_expt",""
"","bandit","237","818281","0.0-198.0-0.0","31344512","wem/bandit_party_1","ASHXZ2ZVZ6HF0","either","5","115","","","","","","","1","0","0","0.4365201507","","0.4","0.2","0.8","0.6","","","","","0.1810715383","0.1998830888","0.2857025143","0.4365201507","","","","","","","","","","76","L","3","","","157","main_expt",""
"","bandit","238","819970","0.0-199.0-0.0","31344512","wem/bandit_party_1","ASHXZ2ZVZ6HF0","either","5","174","","","","","","","0","0","1","","0.4076244479","0.4","0.2","0.8","0.6","0.2118906364","0.2150354531","0.2887719476","0.4076244479","","","","","","","","","","","","","","76","L","3","","","158","main_expt",""
"","bandit","239","821537","0.0-200.0-0.0","31344512","wem/bandit_party_1","ASHXZ2ZVZ6HF0","either","5","50","","","","","","","0","0","1","","0.403953851","0.4","0.2","0.8","0.6","0.2293976715","0.2221069796","0.2859462397","0.403953851","","","","","","","","","","","","","","76","L","3","","","159","main_expt",""
"","bandit","240","823256","0.0-201.0-0.0","31344512","wem/bandit_party_1","ASHXZ2ZVZ6HF0","either","5","204","","","","","","","1","0","0","0.4282135537","","0.4","0.2","0.8","0.6","","","","","0.2186051381","0.2627335039","0.207432816","0.4282135537","","","","","","","","","","76","L","3","","","160","main_expt",""
"","bandit","241","824976","0.0-202.0-0.0","31344512","wem/bandit_party_1","ASHXZ2ZVZ6HF0","either","5","204","","","","","","","0","0","1","0.4479073124","","0.4","0.2","0.8","0.6","","","","","0.2175927206","0.2922457848","0.1611694724","0.4479073124","","","","","","","","","","76","L","3","","","161","main_expt",""
"","bandit","242","826560","0.0-203.0-0.0","31344512","wem/bandit_party_1","ASHXZ2ZVZ6HF0","either","5","68","","","","","","","0","0","1","","0.4456201243","0.4","0.2","0.8","0.6","0.2370404117","0.3040212123","0.14378348","0.4456201243","","","","","","","","","","","","","","76","L","3","","","162","main_expt",""
"","bandit","243","828168","0.0-204.0-0.0","31344512","wem/bandit_party_1","ASHXZ2ZVZ6HF0","either","5","91","","","","","","","0","1","0","","0.4384930657","0.4","0.2","0.8","0.6","0.2778780432","0.2933359027","0.1707099899","0.4384930657","","","","","","","","","","","","","","76","L","3","","","163","main_expt",""
"","bandit","244","829904","0.0-205.0-0.0","31344512","wem/bandit_party_1","ASHXZ2ZVZ6HF0","either","5","220","","","","","","","0","1","0","","0.4231568034","0.4","0.2","0.8","0.6","0.2643388611","0.2388203062","0.1933693166","0.4231568034","","","","","","","","","","","","","","76","L","3","","","164","main_expt",""
"","bandit","245","831523","0.0-206.0-0.0","31344512","wem/bandit_party_1","ASHXZ2ZVZ6HF0","either","5","102","","","","","","","0","0","1","","0.4412535734","0.4","0.2","0.8","0.6","0.1967204453","0.2646204916","0.2406324952","0.4412535734","","","","","","","","","","","","","","76","L","3","","","165","main_expt",""
"","bandit","246","833417","0.0-207.0-0.0","31344512","wem/bandit_party_1","ASHXZ2ZVZ6HF0","either","5","373","","","","","","","0","0","1","0.438364003","","0.4","0.2","0.8","0.6","","","","","0.1567937345","0.2591758032","0.2650462377","0.438364003","","","","","","","","","","76","L","3","","","166","main_expt",""
"","bandit","247","835001","0.0-208.0-0.0","31344512","wem/bandit_party_1","ASHXZ2ZVZ6HF0","either","5","67","","","","","","","0","0","1","0.4290991351","","0.4","0.2","0.8","0.6","","","","","0.1201482918","0.1955934818","0.245875583","0.4290991351","","","","","","","","","","76","L","3","","","167","main_expt",""
"","bandit","248","836849","0.0-209.0-0.0","31344512","wem/bandit_party_1","ASHXZ2ZVZ6HF0","either","5","332","","","","","","","0","0","1","0.257303599","","0.4","0.2","0.8","0.6","","","","","0.0936051119","0.2090603634","0.257303599","0.4510860662","","","","","","","","","","75","K","2","","","168","main_expt",""
"","bandit","249","838649","0.0-210.0-0.0","31344512","wem/bandit_party_1","ASHXZ2ZVZ6HF0","either","5","283","","","","","","","0","0","1","0.2993732043","","0.4","0.2","0.8","0.6","","","","","0.08775096918","0.2678479696","0.2993732043","0.4491424364","","","","","","","","","","75","K","2","","","169","main_expt",""
"","bandit","250","840570","0.0-211.0-0.0","31344512","wem/bandit_party_1","ASHXZ2ZVZ6HF0","either","5","404","","","","","","","1","0","0","0.3388977639","","0.4","0.2","0.8","0.6","","","","","0.06743429675","0.2532125956","0.3388977639","0.4332244901","","","","","","","","","","75","K","2","","","170","main_expt",""
"","bandit","251","842450","0.0-212.0-0.0","31344512","wem/bandit_party_1","ASHXZ2ZVZ6HF0","either","5","364","","","","","","","1","0","0","0.2947926635","","0.4","0.2","0.8","0.6","","","","","0.05979118822","0.2568627054","0.2947926635","0.4405036994","","","","","","","","","","75","K","2","","","171","main_expt",""
"","bandit","252","844425","0.0-213.0-0.0","31344512","wem/bandit_party_1","ASHXZ2ZVZ6HF0","either","5","459","","","","","","","0","0","1","0.2892529657","","0.4","0.2","0.8","0.6","","","","","0.03200499914","0.2451563353","0.2892529657","0.4358521759","","","","","","","","","","75","K","2","","","172","main_expt",""
"","bandit","253","846336","0.0-214.0-0.0","31344512","wem/bandit_party_1","ASHXZ2ZVZ6HF0","either","5","394","","","","","","","0","0","1","0.2571917514","","0.4","0.2","0.8","0.6","","","","","0.04613358223","0.3003395367","0.2571917514","0.4471617722","","","","","","","","","","75","K","2","","","173","main_expt",""
"","bandit","254","848209","0.0-215.0-0.0","31344512","wem/bandit_party_1","ASHXZ2ZVZ6HF0","either","5","355","","","","","","","0","0","1","","0.2545998681","0.4","0.2","0.8","0.6","0.05969677181","0.2545998681","0.244173221","0.4560251174","","","","","","","","","","","","","","74","J","1","","","174","main_expt",""
"","bandit","255","850489","0.0-216.0-0.0","31344512","wem/bandit_party_1","ASHXZ2ZVZ6HF0","either","5","763","","","","","","","0","0","1","","0.4379349024","0.4","0.2","0.8","0.6","0.05930066603","0.3383135611","0.2038098688","0.4379349024","","","","","","","","","","","","","","76","L","3","","","175","main_expt",""
"","bandit","256","852377","0.0-217.0-0.0","31344512","wem/bandit_party_1","ASHXZ2ZVZ6HF0","either","5","370","","","","","","","0","0","1","0.2053823003","","0.4","0.2","0.8","0.6","","","","","0.08110879181","0.3880627729","0.2053823003","0.4328841116","","","","","","","","","","75","K","2","","","176","main_expt",""
"","bandit","257","855098","0.0-218.0-0.0","31344512","wem/bandit_party_1","ASHXZ2ZVZ6HF0","either","5","1203","","","","","","","0","0","1","","0.07611568943","0.4","0.2","0.8","0.6","0.07611568943","0.3920994557","0.2193083282","0.3965365967","","","","","","","","","","","","","","72","H","0","img/none_selected.jpg","","177","main_expt",""
"","bandit","258","856865","0.0-219.0-0.0","31344512","wem/bandit_party_1","ASHXZ2ZVZ6HF0","either","5","250","","","","","","","0","0","1","","0.1220467165","0.4","0.2","0.8","0.6","0.1220467165","0.3882277994","0.1904263594","0.3899234309","","","","","","","","","","","","","","72","H","0","img/none_selected.jpg","","178","main_expt",""
"","bandit","259","858699","0.0-220.0-0.0","31344512","wem/bandit_party_1","ASHXZ2ZVZ6HF0","either","5","316","","","","","","","0","0","1","0.1698853315","","0.4","0.2","0.8","0.6","","","","","0.1698853315","0.3939691408","0.2212788648","0.4238443777","","","","","","","","","","72","H","0","img/none_selected.jpg","","179","main_expt",""
"","bandit","260","860528","0.0-221.0-0.0","31344512","wem/bandit_party_1","ASHXZ2ZVZ6HF0","either","5","312","","","","","","","0","0","1","","0.1374762061","0.4","0.2","0.8","0.6","0.1374762061","0.4074656662","0.2640717145","0.4487400994","","","","","","","","","","","","","","72","H","0","img/none_selected.jpg","","180","main_expt",""
"","bandit","261","862296","0.0-222.0-0.0","31344512","wem/bandit_party_1","ASHXZ2ZVZ6HF0","either","5","251","","","","","","","0","1","0","","0.3724421945","0.4","0.2","0.8","0.6","0.09961924189","0.3724421945","0.2426483564","0.4314573438","","","","","","","","","","","","","","74","J","1","","","181","main_expt",""
"","bandit","262","864063","0.0-223.0-0.0","31344512","wem/bandit_party_1","ASHXZ2ZVZ6HF0","either","5","250","","","","","","","0","1","0","","0.2998177931","0.4","0.2","0.8","0.6","0.1391043194","0.2998177931","0.2001563476","0.4458059303","","","","","","","","","","","","","","74","J","1","","","182","main_expt",""
"","bandit","263","865907","0.0-224.0-0.0","31344512","wem/bandit_party_1","ASHXZ2ZVZ6HF0","either","5","325","","","","","","","0","1","0","","0.3629728763","0.4","0.2","0.8","0.6","0.1336424596","0.3629728763","0.2167094124","0.4485460149","","","","","","","","","","","","","","74","J","1","","","183","main_expt",""
"","bandit","264","867736","0.0-225.0-0.0","31344512","wem/bandit_party_1","ASHXZ2ZVZ6HF0","either","5","312","","","","","","","0","1","0","","0.3763603645","0.4","0.2","0.8","0.6","0.115911235","0.3763603645","0.2402813617","0.4078350507","","","","","","","","","","","","","","74","J","1","","","184","main_expt",""
"","bandit","265","869560","0.0-226.0-0.0","31344512","wem/bandit_party_1","ASHXZ2ZVZ6HF0","either","5","306","","","","","","","0","1","0","","0.3472982705","0.4","0.2","0.8","0.6","0.1394203739","0.3472982705","0.2745112141","0.3805788675","","","","","","","","","","","","","","74","J","1","","","185","main_expt",""
"","bandit","266","871441","0.0-227.0-0.0","31344512","wem/bandit_party_1","ASHXZ2ZVZ6HF0","either","5","362","","","","","","","0","0","1","","0.3095995051","0.4","0.2","0.8","0.6","0.1557479742","0.3095995051","0.2774566956","0.4236809331","","","","","","","","","","","","","","74","J","1","","","186","main_expt",""
"","bandit","267","873449","0.0-228.0-0.0","31344512","wem/bandit_party_1","ASHXZ2ZVZ6HF0","either","5","490","","","","","","","0","1","0","","0.2567332284","0.4","0.2","0.8","0.6","0.1823611596","0.2567332284","0.2876011691","0.4058627081","","","","","","","","","","","","","","74","J","1","","","187","main_expt",""
"","bandit","268","875344","0.0-229.0-0.0","31344512","wem/bandit_party_1","ASHXZ2ZVZ6HF0","either","5","377","","","","","","","0","0","1","","0.2555256861","0.4","0.2","0.8","0.6","0.1854179297","0.2555256861","0.2947112378","0.3913346521","","","","","","","","","","","","","","74","J","1","","","188","main_expt",""
"","bandit","269","877186","0.0-230.0-0.0","31344512","wem/bandit_party_1","ASHXZ2ZVZ6HF0","either","5","326","","","","","","","0","0","1","0.1875645599","","0.4","0.2","0.8","0.6","","","","","0.1875645599","0.2009875262","0.2581494","0.3760164219","","","","","","","","","","72","H","0","img/none_selected.jpg","","189","main_expt",""
"","bandit","270","878752","0.0-231.0-0.0","31344512","wem/bandit_party_1","ASHXZ2ZVZ6HF0","either","5","48","","","","","","","0","0","1","0.3327352817","","0.4","0.2","0.8","0.6","","","","","0.2018323604","0.2055488595","0.1756323468","0.3327352817","","","","","","","","","","76","L","3","","","190","main_expt",""
"","bandit","271","882601","0.0-232.0-0.0","31344512","wem/bandit_party_1","ASHXZ2ZVZ6HF0","either","5","2330","","","","","","","0","0","1","","0.2521570866","0.4","0.2","0.8","0.6","0.221094727","0.1506387864","0.2521570866","0.3015177445","","","","","","","","","","","","","","75","K","2","","","191","main_expt",""
"","bandit","272","884401","0.0-233.0-0.0","31344512","wem/bandit_party_1","ASHXZ2ZVZ6HF0","either","5","281","","","","","","","0","0","1","0.2964739449","","0.4","0.2","0.8","0.6","","","","","0.2320570195","0.2027442266","0.2964739449","0.2773298268","","","","","","","","","","75","K","2","","","192","main_expt",""
"","bandit","273","886161","0.0-234.0-0.0","31344512","wem/bandit_party_1","ASHXZ2ZVZ6HF0","either","5","241","","","","","","","1","0","0","0.2612966838","","0.4","0.2","0.8","0.6","","","","","0.2948950962","0.1969137872","0.2612966838","0.2836613797","","","","","","","","","","75","K","2","","","193","main_expt",""
"","bandit","274","887971","0.0-235.0-0.0","31344512","wem/bandit_party_1","ASHXZ2ZVZ6HF0","either","5","291","","","","","","","0","0","1","0.3292914436","","0.4","0.2","0.8","0.6","","","","","0.2602906927","0.2114994946","0.3292914436","0.2799350415","","","","","","","","","","75","K","2","","","194","main_expt",""
"","bandit","275","889681","0.0-236.0-0.0","31344512","wem/bandit_party_1","ASHXZ2ZVZ6HF0","either","5","191","","","","","","","0","0","1","","0.4070308407","0.4","0.2","0.8","0.6","0.1771499101","0.2467939011","0.4070308407","0.2068597772","","","","","","","","","","","","","","75","K","2","","","195","main_expt",""
"","bandit","276","891409","0.0-237.0-0.0","31344512","wem/bandit_party_1","ASHXZ2ZVZ6HF0","either","5","209","","","","","","","0","0","1","0.3494820729","","0.4","0.2","0.8","0.6","","","","","0.1746274925","0.2731811988","0.3494820729","0.2679469531","","","","","","","","","","75","K","2","","","196","main_expt",""
"","bandit","277","893161","0.0-238.0-0.0","31344512","wem/bandit_party_1","ASHXZ2ZVZ6HF0","either","5","234","","","","","","","0","0","1","","0.3571939809","0.4","0.2","0.8","0.6","0.193224684","0.2512114903","0.3571939809","0.2448078588","","","","","","","","","","","","","","75","K","2","","","197","main_expt",""
"","bandit","278","894856","0.0-239.0-0.0","31344512","wem/bandit_party_1","ASHXZ2ZVZ6HF0","either","5","177","","","","","","","0","0","1","","0.2433987968","0.4","0.2","0.8","0.6","0.1771509929","0.190651112","0.382430028","0.2433987968","","","","","","","","","","","","","","76","L","3","","","198","main_expt",""
"","bandit","279","896728","0.0-240.0-0.0","31344512","wem/bandit_party_1","ASHXZ2ZVZ6HF0","either","5","353","","","","","","","1","0","0","0.3353474301","","0.4","0.2","0.8","0.6","","","","","0.2466668772","0.1701189695","0.3353474301","0.2653624242","","","","","","","","","","75","K","2","","","199","main_expt",""
"","bandit","280","898482","0.0-241.0-0.0","31344512","wem/bandit_party_1","ASHXZ2ZVZ6HF0","either","5","235","","","","","","","1","0","0","0.3321976498","","0.4","0.2","0.8","0.6","","","","","0.2477816141","0.1656975488","0.3321976498","0.2551376492","","","","","","","","","","75","K","2","","","200","main_expt",""
"","bandit","281","900289","0.0-242.0-0.0","31344512","wem/bandit_party_1","ASHXZ2ZVZ6HF0","either","5","287","","","","","","","0","0","1","0.3218117355","","0.4","0.2","0.8","0.6","","","","","0.2744817861","0.1647298582","0.3218117355","0.2660639347","","","","","","","","","","75","K","2","","","201","main_expt",""
"","bandit","282","902041","0.0-243.0-0.0","31344512","wem/bandit_party_1","ASHXZ2ZVZ6HF0","either","5","232","","","","","","","0","0","1","0.2949214693","","0.4","0.2","0.8","0.6","","","","","0.3043062986","0.1242041815","0.2949214693","0.2220900594","","","","","","","","","","75","K","2","","","202","main_expt",""
"","bandit","283","903680","0.0-244.0-0.0","31344512","wem/bandit_party_1","ASHXZ2ZVZ6HF0","either","5","119","","","","","","","0","0","1","","0.300077299","0.4","0.2","0.8","0.6","0.272185569","0.1684487429","0.300077299","0.1543353204","","","","","","","","","","","","","","75","K","2","","","203","main_expt",""
"","bandit","284","905329","0.0-245.0-0.0","31344512","wem/bandit_party_1","ASHXZ2ZVZ6HF0","either","5","130","","","","","","","1","0","0","0.2866085977","","0.4","0.2","0.8","0.6","","","","","0.2610767704","0.1666409686","0.2866085977","0.1605482003","","","","","","","","","","75","K","2","","","204","main_expt",""
"","bandit","285","906977","0.0-246.0-0.0","31344512","wem/bandit_party_1","ASHXZ2ZVZ6HF0","either","5","129","","","","","","","0","0","1","0.2695546272","","0.4","0.2","0.8","0.6","","","","","0.2832615928","0.2197286508","0.2695546272","0.1406914754","","","","","","","","","","75","K","2","","","205","main_expt",""
"","bandit","286","908619","0.0-247.0-0.0","31344512","wem/bandit_party_1","ASHXZ2ZVZ6HF0","either","5","123","","","","","","","0","0","1","0.2622178416","","0.4","0.2","0.8","0.6","","","","","0.300913322","0.2754509052","0.2622178416","0.1138947463","","","","","","","","","","75","K","2","","","206","main_expt",""
"","bandit","287","910392","0.0-248.0-0.0","31344512","wem/bandit_party_1","ASHXZ2ZVZ6HF0","either","5","255","","","","","","","1","0","0","0.2498186578","","0.4","0.2","0.8","0.6","","","","","0.3260258847","0.2664869377","0.2498186578","0.1096702189","","","","","","","","","","75","K","2","","","207","main_expt",""
"","bandit","288","912112","0.0-249.0-0.0","31344512","wem/bandit_party_1","ASHXZ2ZVZ6HF0","either","5","202","","","","","","","0","0","1","0.2335358635","","0.4","0.2","0.8","0.6","","","","","0.3173829003","0.2686565688","0.2335358635","0.09922356593","","","","","","","","","","75","K","2","","","208","main_expt",""
"","bandit","289","914032","0.0-250.0-0.0","31344512","wem/bandit_party_1","ASHXZ2ZVZ6HF0","either","5","401","","","","","","","0","0","1","0.2638942681","","0.4","0.2","0.8","0.6","","","","","0.3153846937","0.2380255957","0.2638942681","0.101567507","","","","","","","","","","75","K","2","","","209","main_expt",""
"","bandit","290","915711","0.0-251.0-0.0","31344512","wem/bandit_party_1","ASHXZ2ZVZ6HF0","either","5","160","","","","","","","0","0","1","","0.2507768727","0.4","0.2","0.8","0.6","0.3010876552","0.2507768727","0.2526926237","0.08675379402","","","","","","","","","","","","","","74","J","1","","","210","main_expt",""
"","bandit","291","917481","0.0-252.0-0.0","31344512","wem/bandit_party_1","ASHXZ2ZVZ6HF0","either","5","249","","","","","","","0","1","0","","0.2864900033","0.4","0.2","0.8","0.6","0.2864900033","0.2685142319","0.2740367769","0.07512021269","","","","","","","","","","","","","","72","H","0","img/none_selected.jpg","","211","main_expt",""
"","bandit","292","919259","0.0-253.0-0.0","31344512","wem/bandit_party_1","ASHXZ2ZVZ6HF0","either","5","259","","","","","","","0","0","1","0.3163372434","","0.4","0.2","0.8","0.6","","","","","0.3163372434","0.260511483","0.2440836191","0.08144254236","","","","","","","","","","72","H","0","img/none_selected.jpg","","212","main_expt",""
"","bandit","293","921001","0.0-254.0-0.0","31344512","wem/bandit_party_1","ASHXZ2ZVZ6HF0","either","5","223","","","","","","","0","0","1","","0.2701305136","0.4","0.2","0.8","0.6","0.2701305136","0.2579605047","0.2341903104","0.06585574052","","","","","","","","","","","","","","72","H","0","img/none_selected.jpg","","213","main_expt",""
"","bandit","294","922745","0.0-255.0-0.0","31344512","wem/bandit_party_1","ASHXZ2ZVZ6HF0","either","5","225","","","","","","","0","1","0","","0.302599165","0.4","0.2","0.8","0.6","0.302599165","0.2470456849","0.2097526345","0.08686614453","","","","","","","","","","","","","","72","H","0","img/none_selected.jpg","","214","main_expt",""
"","bandit","295","924488","0.0-256.0-0.0","31344512","wem/bandit_party_1","ASHXZ2ZVZ6HF0","either","5","224","","","","","","","0","0","1","","0.2968005471","0.4","0.2","0.8","0.6","0.2968005471","0.3285383036","0.1796882487","0.1068548489","","","","","","","","","","","","","","72","H","0","img/none_selected.jpg","","215","main_expt",""
"","bandit","296","926329","0.0-257.0-0.0","31344512","wem/bandit_party_1","ASHXZ2ZVZ6HF0","either","5","322","","","","","","","0","0","1","","0.2835536598","0.4","0.2","0.8","0.6","0.2835536598","0.3780044773","0.2237900511","0.1211736082","","","","","","","","","","","","","","72","H","0","img/none_selected.jpg","","216","main_expt",""
"","bandit","297","928081","0.0-258.0-0.0","31344512","wem/bandit_party_1","ASHXZ2ZVZ6HF0","either","5","232","","","","","","","0","0","1","","0.2520762718","0.4","0.2","0.8","0.6","0.2520762718","0.3939228946","0.2265358539","0.09343701815","","","","","","","","","","","","","","72","H","0","img/none_selected.jpg","","217","main_expt",""
"","bandit","298","929906","0.0-259.0-0.0","31344512","wem/bandit_party_1","ASHXZ2ZVZ6HF0","either","5","305","","","","","","","0","0","1","0.2364013437","","0.4","0.2","0.8","0.6","","","","","0.2562699476","0.3198270803","0.2364013437","0.1001055386","","","","","","","","","","75","K","2","","","218","main_expt",""
"","bandit","299","931687","0.0-260.0-0.0","31344512","wem/bandit_party_1","ASHXZ2ZVZ6HF0","either","5","263","","","","","","","0","1","0","","0.2810560361","0.4","0.2","0.8","0.6","0.3002431464","0.3502502288","0.2810560361","0.09524874014","","","","","","","","","","","","","","75","K","2","","","219","main_expt",""
"","bandit","300","933496","0.0-261.0-0.0","31344512","wem/bandit_party_1","ASHXZ2ZVZ6HF0","either","5","289","","","","","","","0","0","1","0.3027429446","","0.4","0.2","0.8","0.6","","","","","0.3365413303","0.3402456168","0.3027429446","0.1304899995","","","","","","","","","","75","K","2","","","220","main_expt",""
"","bandit","301","935232","0.0-262.0-0.0","31344512","wem/bandit_party_1","ASHXZ2ZVZ6HF0","either","5","216","","","","","","","0","0","1","","0.3132134988","0.4","0.2","0.8","0.6","0.2946103072","0.3770059732","0.3132134988","0.1272814923","","","","","","","","","","","","","","75","K","2","","","221","main_expt",""
"","bandit","302","936993","0.0-263.0-0.0","31344512","wem/bandit_party_1","ASHXZ2ZVZ6HF0","either","5","241","","","","","","","1","0","0","0.2424821827","","0.4","0.2","0.8","0.6","","","","","0.3267284332","0.3864421123","0.2424821827","0.1654407056","","","","","","","","","","75","K","2","","","222","main_expt",""
"","bandit","303","938792","0.0-264.0-0.0","31344512","wem/bandit_party_1","ASHXZ2ZVZ6HF0","either","5","280","","","","","","","0","0","1","0.2595367495","","0.4","0.2","0.8","0.6","","","","","0.3175152631","0.4205211408","0.2595367495","0.1788325852","","","","","","","","","","75","K","2","","","223","main_expt",""
"","bandit","304","940546","0.0-265.0-0.0","31344512","wem/bandit_party_1","ASHXZ2ZVZ6HF0","either","5","234","","","","","","","0","0","1","","0.1736623033","0.4","0.2","0.8","0.6","0.3192400935","0.4131889957","0.328819141","0.1736623033","","","","","","","","","","","","","","76","L","3","","","224","main_expt",""
"","bandit","305","942352","0.0-266.0-0.0","31344512","wem/bandit_party_1","ASHXZ2ZVZ6HF0","either","5","286","","","","","","","0","1","0","","0.1721911447","0.4","0.2","0.8","0.6","0.3096750449","0.4001513574","0.356121412","0.1721911447","","","","","","","","","","","","","","76","L","3","","","225","main_expt",""
"","bandit","306","944184","0.0-267.0-0.0","31344512","wem/bandit_party_1","ASHXZ2ZVZ6HF0","either","5","312","","","","","","","0","0","1","","0.2133818582","0.4","0.2","0.8","0.6","0.3142833063","0.3963688582","0.3394019192","0.2133818582","","","","","","","","","","","","","","76","L","3","","","226","main_expt",""
"","bandit","307","945920","0.0-268.0-0.0","31344512","wem/bandit_party_1","ASHXZ2ZVZ6HF0","either","5","216","","","","","","","1","0","0","0.2620007467","","0.4","0.2","0.8","0.6","","","","","0.3096885674","0.3979714495","0.2860553004","0.2620007467","","","","","","","","","","76","L","3","","","227","main_expt",""
"","bandit","308","947679","0.0-269.0-0.0","31344512","wem/bandit_party_1","ASHXZ2ZVZ6HF0","either","5","240","","","","","","","0","0","1","","0.2961930455","0.4","0.2","0.8","0.6","0.3048295172","0.3811043637","0.2967856672","0.2961930455","","","","","","","","","","","","","","76","L","3","","","228","main_expt",""
"","bandit","309","949423","0.0-270.0-0.0","31344512","wem/bandit_party_1","ASHXZ2ZVZ6HF0","either","5","225","","","","","","","0","1","0","","0.3081123415","0.4","0.2","0.8","0.6","0.2553920021","0.3488149186","0.2857745529","0.3081123415","","","","","","","","","","","","","","76","L","3","","","229","main_expt",""
"","bandit","310","951121","0.0-271.0-0.0","31344512","wem/bandit_party_1","ASHXZ2ZVZ6HF0","either","5","178","","","","","","","0","0","1","0.3027177586","","0.4","0.2","0.8","0.6","","","","","0.2783794412","0.2883621188","0.2589404948","0.3027177586","","","","","","","","","","76","L","3","","","230","main_expt",""
"","bandit","311","952832","0.0-272.0-0.0","31344512","wem/bandit_party_1","ASHXZ2ZVZ6HF0","either","5","190","","","","","","","1","0","0","0.2495346478","","0.4","0.2","0.8","0.6","","","","","0.2735536708","0.2444465504","0.2628441024","0.2495346478","","","","","","","","","","76","L","3","","","231","main_expt",""
"","bandit","312","954576","0.0-273.0-0.0","31344512","wem/bandit_party_1","ASHXZ2ZVZ6HF0","either","5","224","","","","","","","1","0","0","0.2185872191","","0.4","0.2","0.8","0.6","","","","","0.2262440502","0.2996930955","0.276537748","0.2185872191","","","","","","","","","","76","L","3","","","232","main_expt",""
"","bandit","313","956335","0.0-274.0-0.0","31344512","wem/bandit_party_1","ASHXZ2ZVZ6HF0","either","5","240","","","","","","","0","0","1","0.1874863907","","0.4","0.2","0.8","0.6","","","","","0.2171974885","0.3103031796","0.2485723575","0.1874863907","","","","","","","","","","76","L","3","","","233","main_expt",""
"","bandit","314","958120","0.0-275.0-0.0","31344512","wem/bandit_party_1","ASHXZ2ZVZ6HF0","either","5","265","","","","","","","0","1","0","","0.2165838284","0.4","0.2","0.8","0.6","0.2951485073","0.2971988612","0.2172766866","0.2165838284","","","","","","","","","","","","","","76","L","3","","","234","main_expt",""
"","bandit","315","959895","0.0-276.0-0.0","31344512","wem/bandit_party_1","ASHXZ2ZVZ6HF0","either","5","256","","","","","","","1","0","0","0.1791302586","","0.4","0.2","0.8","0.6","","","","","0.3135740045","0.3266576642","0.221542824","0.1791302586","","","","","","","","","","76","L","3","","","235","main_expt",""
"","bandit","316","961586","0.0-277.0-0.0","31344512","wem/bandit_party_1","ASHXZ2ZVZ6HF0","either","5","171","","","","","","","0","0","1","","0.2463713802","0.4","0.2","0.8","0.6","0.2945285262","0.3596878827","0.2200573756","0.2463713802","","","","","","","","","","","","","","76","L","3","","","236","main_expt",""
"","bandit","317","963280","0.0-278.0-0.0","31344512","wem/bandit_party_1","ASHXZ2ZVZ6HF0","either","5","174","","","","","","","0","0","1","0.2204623923","","0.4","0.2","0.8","0.6","","","","","0.2797454337","0.3951370387","0.2146478317","0.2204623923","","","","","","","","","","76","L","3","","","237","main_expt",""
