"consent","trial_type","trial_index","time_elapsed","internal_node_id","subjID","study","MID","cond","drift","rt","responses","button_pressed","key_press","like","value","connected","gems","bombs","no_reward","GemPrChosen","BombPrChosen","GainOverPainPr_0","GainOverPainPr_1","GainOverPainPr_2","GainOverPainPr_3","LosePr_0","LosePr_1","LosePr_2","LosePr_3","WinPr_0","WinPr_1","WinPr_2","WinPr_3","Q0","Q1","Q2","gender","age","ethnicity","label","expt_phase","target","respCharCode","respKey","respChoiceNum","respChoice","practice","trial_counter","trial_label","Q0_index"
"GDM/GDM_behavioral_consent_30min_online.html","consent","0","13489","0.0-0.0","31446547","wem/bandit_party_1","A3PYFNAED6X1BL","either","4","","","","","","","","","","","","","","","","","","","","","","","","","","","","","","","","","","","","","","","","",""
"","survey-text","1","18401","0.0-1.0","31446547","wem/bandit_party_1","A3PYFNAED6X1BL","either","4","3904","{""Q0"":""A3PYFNAED6X1BL""}","","","","","","","","","","","","","","","","","","","","","","","","","","","","","","","","","","","","","","",""
"","button-response","2","21327","0.0-2.0","31446547","wem/bandit_party_1","A3PYFNAED6X1BL","either","4","1919","","2","","","","","","","","","","","","","","","","","","","","","","","","","","","","","","","","","","","","","",""
"","text-replacement","3","31286","0.0-3.0","31446547","wem/bandit_party_1","A3PYFNAED6X1BL","either","4","8954","","","32","","","","","","","","","","","","","","","","","","","","","","","","","","","","","","","","","","","","",""
"","text-replacement","4","38117","0.0-4.0","31446547","wem/bandit_party_1","A3PYFNAED6X1BL","either","4","6828","","","32","","","","","","","","","","","","","","","","","","","","","","","","","","","","","","","","","","","","",""
"","text-replacement","5","58014","0.0-5.0-0.0","31446547","wem/bandit_party_1","A3PYFNAED6X1BL","either","4","19894","","","32","","","","","","","","","","","","","","","","","","","","","","","","","","","","","","","","","","","","",""
"","identification","6","64292","0.0-6.0-0.0","31446547","wem/bandit_party_1","A3PYFNAED6X1BL","either","4","6267","","","","4","4","3","","","","","","","","","","","","","","","","","","","","","","","","pre","identification_pre","the Democratic Party","","","","","","","",""
"","identification","7","71116","0.0-6.0-1.0","31446547","wem/bandit_party_1","A3PYFNAED6X1BL","either","4","5765","","","","2","3","2","","","","","","","","","","","","","","","","","","","","","","","","pre","identification_pre","the Republican party","","","","","","","",""
"","text-replacement","8","78063","0.0-7.0","31446547","wem/bandit_party_1","A3PYFNAED6X1BL","either","4","5944","","","32","","","","","","","","","","","","","","","","","","","","","","","","","","","","","","","","","","","","",""
"","text-replacement","9","84522","0.0-8.0","31446547","wem/bandit_party_1","A3PYFNAED6X1BL","either","4","6458","","","32","","","","","","","","","","","","","","","","","","","","","","","","","","","","","","","","","","","","",""
"","text-replacement","10","91617","0.0-9.0","31446547","wem/bandit_party_1","A3PYFNAED6X1BL","either","4","7092","","","32","","","","","","","","","","","","","","","","","","","","","","","","","","","","","","","","","","","","",""
"","text-replacement","11","93880","0.0-10.0","31446547","wem/bandit_party_1","A3PYFNAED6X1BL","either","4","2260","","","32","","","","","","","","","","","","","","","","","","","","","","","","","","","","","","","","","","","","",""
"","text-replacement","12","97745","0.0-11.0","31446547","wem/bandit_party_1","A3PYFNAED6X1BL","either","4","3864","","","32","","","","","","","","","","","","","","","","","","","","","","","","","","","","","","","","","","","","",""
"","bandit","13","103873","0.0-12.0-0.0","31446547","wem/bandit_party_1","A3PYFNAED6X1BL","either","4","4620","","","","","","","0","0","1","0","0","","","","","0","","","","0","","","","","","","","","","","","","74","J","0","img/none_selected_demo.jpg","true","0","",""
"","bandit","14","106142","0.0-13.0-0.0","31446547","wem/bandit_party_1","A3PYFNAED6X1BL","either","4","766","","","","","","","0","0","1","0","0","","","","","0","","","","0","","","","","","","","","","","","","75","K","0","img/none_selected_demo.jpg","true","0","",""
"","text-replacement","15","112164","0.0-14.0","31446547","wem/bandit_party_1","A3PYFNAED6X1BL","either","4","6020","","","32","","","","","","","","","","","","","","","","","","","","","","","","","","","","","","","","","","","","",""
"","text-replacement","16","115522","0.0-15.0","31446547","wem/bandit_party_1","A3PYFNAED6X1BL","either","4","3355","","","32","","","","","","","","","","","","","","","","","","","","","","","","","","","","","","","","","","","","",""
"","text-replacement","17","120844","0.0-16.0","31446547","wem/bandit_party_1","A3PYFNAED6X1BL","either","4","5320","","","32","","","","","","","","","","","","","","","","","","","","","","","","","","","","","","","","","","","","",""
"","text-replacement","18","127484","0.0-17.0","31446547","wem/bandit_party_1","A3PYFNAED6X1BL","either","4","6638","","","32","","","","","","","","","","","","","","","","","","","","","","","","","","","","","","","","","","","","",""
"","bandit","19","129684","0.0-18.0-0.0","31446547","wem/bandit_party_1","A3PYFNAED6X1BL","either","4","693","","","","","","","1","0","0","0.8","","0.5","0.5","","","","","","","0.8","0.2","","","","","","","","","","","","74","J","0","img/none_selected_demo.jpg","true","0","80_20_practice",""
"","bandit","20","131611","0.0-18.0-1.0","31446547","wem/bandit_party_1","A3PYFNAED6X1BL","either","4","421","","","","","","","0","0","1","","0.2","0.5","0.5","","","0.8","0.2","","","","","","","","","","","","","","","","75","K","1","","true","0","80_20_practice",""
"","bandit","21","133411","0.0-18.0-2.0","31446547","wem/bandit_party_1","A3PYFNAED6X1BL","either","4","291","","","","","","","1","0","0","0.8","","0.5","0.5","","","","","","","0.8","0.2","","","","","","","","","","","","74","J","0","img/none_selected_demo.jpg","true","0","80_20_practice",""
"","bandit","22","135161","0.0-18.0-3.0","31446547","wem/bandit_party_1","A3PYFNAED6X1BL","either","4","246","","","","","","","1","0","0","0.8","","0.5","0.5","","","","","","","0.8","0.2","","","","","","","","","","","","74","J","0","img/none_selected_demo.jpg","true","0","80_20_practice",""
"","bandit","23","136915","0.0-18.0-4.0","31446547","wem/bandit_party_1","A3PYFNAED6X1BL","either","4","246","","","","","","","1","0","0","0.8","","0.5","0.5","","","","","","","0.8","0.2","","","","","","","","","","","","74","J","0","img/none_selected_demo.jpg","true","0","80_20_practice",""
"","bandit","24","138707","0.0-18.0-5.0","31446547","wem/bandit_party_1","A3PYFNAED6X1BL","either","4","284","","","","","","","1","0","0","0.8","","0.5","0.5","","","","","","","0.8","0.2","","","","","","","","","","","","74","J","0","img/none_selected_demo.jpg","true","0","80_20_practice",""
"","bandit","25","140469","0.0-18.0-6.0","31446547","wem/bandit_party_1","A3PYFNAED6X1BL","either","4","257","","","","","","","1","0","0","0.8","","0.5","0.5","","","","","","","0.8","0.2","","","","","","","","","","","","74","J","0","img/none_selected_demo.jpg","true","0","80_20_practice",""
"","bandit","26","142242","0.0-18.0-7.0","31446547","wem/bandit_party_1","A3PYFNAED6X1BL","either","4","268","","","","","","","0","0","1","0.8","","0.5","0.5","","","","","","","0.8","0.2","","","","","","","","","","","","74","J","0","img/none_selected_demo.jpg","true","0","80_20_practice",""
"","bandit","27","144003","0.0-18.0-8.0","31446547","wem/bandit_party_1","A3PYFNAED6X1BL","either","4","254","","","","","","","1","0","0","0.8","","0.5","0.5","","","","","","","0.8","0.2","","","","","","","","","","","","74","J","0","img/none_selected_demo.jpg","true","0","80_20_practice",""
"","bandit","28","145753","0.0-18.0-9.0","31446547","wem/bandit_party_1","A3PYFNAED6X1BL","either","4","245","","","","","","","1","0","0","0.8","","0.5","0.5","","","","","","","0.8","0.2","","","","","","","","","","","","74","J","0","img/none_selected_demo.jpg","true","0","80_20_practice",""
"","bandit","29","147531","0.0-18.0-10.0","31446547","wem/bandit_party_1","A3PYFNAED6X1BL","either","4","272","","","","","","","0","1","0","","0.8","0.5","0.5","","","0.8","0.2","","","","","","","","","","","","","","","","74","J","0","img/none_selected_demo.jpg","true","0","80_20_practice",""
"","bandit","30","149306","0.0-18.0-11.0","31446547","wem/bandit_party_1","A3PYFNAED6X1BL","either","4","268","","","","","","","1","0","0","0.8","","0.5","0.5","","","","","","","0.8","0.2","","","","","","","","","","","","74","J","0","img/none_selected_demo.jpg","true","0","80_20_practice",""
"","bandit","31","151117","0.0-18.0-12.0","31446547","wem/bandit_party_1","A3PYFNAED6X1BL","either","4","303","","","","","","","0","1","0","","0.8","0.5","0.5","","","0.8","0.2","","","","","","","","","","","","","","","","74","J","0","img/none_selected_demo.jpg","true","0","80_20_practice",""
"","bandit","32","152772","0.0-18.0-13.0","31446547","wem/bandit_party_1","A3PYFNAED6X1BL","either","4","148","","","","","","","1","0","0","0.8","","0.5","0.5","","","","","","","0.8","0.2","","","","","","","","","","","","74","J","0","img/none_selected_demo.jpg","true","0","80_20_practice",""
"","bandit","33","154331","0.0-18.0-14.0","31446547","wem/bandit_party_1","A3PYFNAED6X1BL","either","4","52","","","","","","","0","1","0","","0.8","0.5","0.5","","","0.8","0.2","","","","","","","","","","","","","","","","74","J","0","img/none_selected_demo.jpg","true","0","80_20_practice",""
"","bandit","34","155907","0.0-18.0-15.0","31446547","wem/bandit_party_1","A3PYFNAED6X1BL","either","4","70","","","","","","","0","1","0","","0.8","0.5","0.5","","","0.8","0.2","","","","","","","","","","","","","","","","74","J","0","img/none_selected_demo.jpg","true","0","80_20_practice",""
"","bandit","35","157691","0.0-18.0-16.0","31446547","wem/bandit_party_1","A3PYFNAED6X1BL","either","4","279","","","","","","","0","1","0","","0.8","0.5","0.5","","","0.8","0.2","","","","","","","","","","","","","","","","74","J","0","img/none_selected_demo.jpg","true","0","80_20_practice",""
"","bandit","36","159418","0.0-18.0-17.0","31446547","wem/bandit_party_1","A3PYFNAED6X1BL","either","4","219","","","","","","","1","0","0","0.8","","0.5","0.5","","","","","","","0.8","0.2","","","","","","","","","","","","74","J","0","img/none_selected_demo.jpg","true","0","80_20_practice",""
"","bandit","37","161035","0.0-18.0-18.0","31446547","wem/bandit_party_1","A3PYFNAED6X1BL","either","4","111","","","","","","","0","1","0","","0.8","0.5","0.5","","","0.8","0.2","","","","","","","","","","","","","","","","74","J","0","img/none_selected_demo.jpg","true","0","80_20_practice",""
"","bandit","38","163460","0.0-18.0-19.0","31446547","wem/bandit_party_1","A3PYFNAED6X1BL","either","4","919","","","","","","","1","0","0","0.8","","0.5","0.5","","","","","","","0.8","0.2","","","","","","","","","","","","74","J","0","img/none_selected_demo.jpg","true","0","80_20_practice",""
"","text-replacement","39","166535","0.0-19.0","31446547","wem/bandit_party_1","A3PYFNAED6X1BL","either","4","3073","","","32","","","","","","","","","","","","","","","","","","","","","","","","","","","","","","","","","","","","",""
"","bandit","40","168703","0.0-20.0-0.0","31446547","wem/bandit_party_1","A3PYFNAED6X1BL","either","4","659","","","","","","","1","0","0","1","0","","","","","0","1","","","1","0","","","","","","","","","","","","74","J","0","img/none_selected_demo.jpg","true","0","",""
"","text-replacement","41","172111","0.0-21.0","31446547","wem/bandit_party_1","A3PYFNAED6X1BL","either","4","3404","","","32","","","","","","","","","","","","","","","","","","","","","","","","","","","","","","","","","","","","",""
"","text-replacement","42","174535","0.0-22.0","31446547","wem/bandit_party_1","A3PYFNAED6X1BL","either","4","2422","","","32","","","","","","","","","","","","","","","","","","","","","","","","","","","","","","","","","","","","",""
"","text-replacement","43","175934","0.0-23.0","31446547","wem/bandit_party_1","A3PYFNAED6X1BL","either","4","1396","","","32","","","","","","","","","","","","","","","","","","","","","","","","","","","","","","","","","","","","",""
"","text-replacement","44","178279","0.0-24.0","31446547","wem/bandit_party_1","A3PYFNAED6X1BL","either","4","2343","","","32","","","","","","","","","","","","","","","","","","","","","","","","","","","","","","","","","","","","",""
"","text-replacement","45","183800","0.0-25.0","31446547","wem/bandit_party_1","A3PYFNAED6X1BL","either","4","5519","","","32","","","","","","","","","","","","","","","","","","","","","","","","","","","","","","","","","","","","",""
"","text-replacement","46","185584","0.0-26.0","31446547","wem/bandit_party_1","A3PYFNAED6X1BL","either","4","1781","","","32","","","","","","","","","","","","","","","","","","","","","","","","","","","","","","","","","","","","",""
"","text-replacement","47","188999","0.0-27.0","31446547","wem/bandit_party_1","A3PYFNAED6X1BL","either","4","3411","","","32","","","","","","","","","","","","","","","","","","","","","","","","","","","","","","","","","","","","",""
"","text-replacement","48","191545","0.0-28.0","31446547","wem/bandit_party_1","A3PYFNAED6X1BL","either","4","2543","","","32","","","","","","","","","","","","","","","","","","","","","","","","","","","","","","","","","","","","",""
"","text-replacement","49","194746","0.0-29.0","31446547","wem/bandit_party_1","A3PYFNAED6X1BL","either","4","3197","","","32","","","","","","","","","","","","","","","","","","","","","","","","","","","","","","","","","","","","",""
"","text-replacement","50","196065","0.0-30.0","31446547","wem/bandit_party_1","A3PYFNAED6X1BL","either","4","1314","","","32","","","","","","","","","","","","","","","","","","","","","","","","","","","","","","","","","","","","",""
"","text-replacement","51","197201","0.0-31.0","31446547","wem/bandit_party_1","A3PYFNAED6X1BL","either","4","1133","","","32","","","","","","","","","","","","","","","","","","","","","","","","","","","","","","","","","","","","",""
"","bandit","52","199582","0.0-32.0-0.0","31446547","wem/bandit_party_1","A3PYFNAED6X1BL","either","4","873","","","","","","","1","0","0","0.8","","0.5","0.5","0.5","0.5","","","","","0.8","0.2","0.6","0.2","","","","","","","","","","72","H","0","img/none_selected.jpg","true","0","full_practice",""
"","bandit","53","201335","0.0-32.0-1.0","31446547","wem/bandit_party_1","A3PYFNAED6X1BL","either","4","245","","","","","","","0","0","1","0.2","","0.5","0.5","0.5","0.5","","","","","0.8","0.2","0.6","0.2","","","","","","","","","","74","J","1","","true","0","full_practice",""
"","bandit","54","202990","0.0-32.0-2.0","31446547","wem/bandit_party_1","A3PYFNAED6X1BL","either","4","150","","","","","","","0","1","0","","0.6","0.5","0.5","0.5","0.5","0.8","0.2","0.6","0.2","","","","","","","","","","","","","","75","K","2","","true","0","full_practice",""
"","bandit","55","204751","0.0-32.0-3.0","31446547","wem/bandit_party_1","A3PYFNAED6X1BL","either","4","253","","","","","","","1","0","0","0.2","","0.5","0.5","0.5","0.5","","","","","0.8","0.2","0.6","0.2","","","","","","","","","","76","L","3","","true","0","full_practice",""
"","bandit","56","206533","0.0-32.0-4.0","31446547","wem/bandit_party_1","A3PYFNAED6X1BL","either","4","269","","","","","","","0","1","0","","0.8","0.5","0.5","0.5","0.5","0.8","0.2","0.6","0.2","","","","","","","","","","","","","","72","H","0","img/none_selected.jpg","true","0","full_practice",""
"","bandit","57","208042","0.0-32.0-5.0","31446547","wem/bandit_party_1","A3PYFNAED6X1BL","either","4","1","","","","","","","1","0","0","0.6","","0.5","0.5","0.5","0.5","","","","","0.8","0.2","0.6","0.2","","","","","","","","","","75","K","2","","true","0","full_practice",""
"","bandit","58","209713","0.0-32.0-6.0","31446547","wem/bandit_party_1","A3PYFNAED6X1BL","either","4","161","","","","","","","0","0","1","0.2","","0.5","0.5","0.5","0.5","","","","","0.8","0.2","0.6","0.2","","","","","","","","","","76","L","3","","true","0","full_practice",""
"","bandit","59","211464","0.0-32.0-7.0","31446547","wem/bandit_party_1","A3PYFNAED6X1BL","either","4","241","","","","","","","1","0","0","0.8","","0.5","0.5","0.5","0.5","","","","","0.8","0.2","0.6","0.2","","","","","","","","","","72","H","0","img/none_selected.jpg","true","0","full_practice",""
"","bandit","60","213015","0.0-32.0-8.0","31446547","wem/bandit_party_1","A3PYFNAED6X1BL","either","4","45","","","","","","","0","0","1","","0.6","0.5","0.5","0.5","0.5","0.8","0.2","0.6","0.2","","","","","","","","","","","","","","75","K","2","","true","0","full_practice",""
"","bandit","61","214814","0.0-32.0-9.0","31446547","wem/bandit_party_1","A3PYFNAED6X1BL","either","4","292","","","","","","","0","1","0","","0.8","0.5","0.5","0.5","0.5","0.8","0.2","0.6","0.2","","","","","","","","","","","","","","72","H","0","img/none_selected.jpg","true","0","full_practice",""
"","bandit","62","216457","0.0-32.0-10.0","31446547","wem/bandit_party_1","A3PYFNAED6X1BL","either","4","134","","","","","","","0","1","0","","0.8","0.5","0.5","0.5","0.5","0.8","0.2","0.6","0.2","","","","","","","","","","","","","","72","H","0","img/none_selected.jpg","true","0","full_practice",""
"","bandit","63","218168","0.0-32.0-11.0","31446547","wem/bandit_party_1","A3PYFNAED6X1BL","either","4","204","","","","","","","0","0","1","","0.6","0.5","0.5","0.5","0.5","0.8","0.2","0.6","0.2","","","","","","","","","","","","","","75","K","2","","true","0","full_practice",""
"","bandit","64","220329","0.0-32.0-12.0","31446547","wem/bandit_party_1","A3PYFNAED6X1BL","either","4","650","","","","","","","0","0","1","","0.2","0.5","0.5","0.5","0.5","0.8","0.2","0.6","0.2","","","","","","","","","","","","","","76","L","3","","true","0","full_practice",""
"","bandit","65","221840","0.0-32.0-13.0","31446547","wem/bandit_party_1","A3PYFNAED6X1BL","either","4","6","","","","","","","0","0","1","","0.2","0.5","0.5","0.5","0.5","0.8","0.2","0.6","0.2","","","","","","","","","","","","","","74","J","1","","true","0","full_practice",""
"","bandit","66","223422","0.0-32.0-14.0","31446547","wem/bandit_party_1","A3PYFNAED6X1BL","either","4","79","","","","","","","0","1","0","","0.8","0.5","0.5","0.5","0.5","0.8","0.2","0.6","0.2","","","","","","","","","","","","","","72","H","0","img/none_selected.jpg","true","0","full_practice",""
"","bandit","67","225169","0.0-32.0-15.0","31446547","wem/bandit_party_1","A3PYFNAED6X1BL","either","4","240","","","","","","","1","0","0","0.8","","0.5","0.5","0.5","0.5","","","","","0.8","0.2","0.6","0.2","","","","","","","","","","72","H","0","img/none_selected.jpg","true","0","full_practice",""
"","bandit","68","226897","0.0-32.0-16.0","31446547","wem/bandit_party_1","A3PYFNAED6X1BL","either","4","220","","","","","","","0","1","0","","0.8","0.5","0.5","0.5","0.5","0.8","0.2","0.6","0.2","","","","","","","","","","","","","","72","H","0","img/none_selected.jpg","true","0","full_practice",""
"","bandit","69","228644","0.0-32.0-17.0","31446547","wem/bandit_party_1","A3PYFNAED6X1BL","either","4","238","","","","","","","0","1","0","","0.8","0.5","0.5","0.5","0.5","0.8","0.2","0.6","0.2","","","","","","","","","","","","","","72","H","0","img/none_selected.jpg","true","0","full_practice",""
"","bandit","70","230450","0.0-32.0-18.0","31446547","wem/bandit_party_1","A3PYFNAED6X1BL","either","4","298","","","","","","","0","1","0","","0.8","0.5","0.5","0.5","0.5","0.8","0.2","0.6","0.2","","","","","","","","","","","","","","72","H","0","img/none_selected.jpg","true","0","full_practice",""
"","bandit","71","232199","0.0-32.0-19.0","31446547","wem/bandit_party_1","A3PYFNAED6X1BL","either","4","242","","","","","","","0","1","0","","0.8","0.5","0.5","0.5","0.5","0.8","0.2","0.6","0.2","","","","","","","","","","","","","","72","H","0","img/none_selected.jpg","true","0","full_practice",""
"","text","72","234890","0.0-33.0","31446547","wem/bandit_party_1","A3PYFNAED6X1BL","either","4","2677","","","32","","","","","","","","","","","","","","","","","","","","","","","","","","","","","","","","","","","","",""
"","text-replacement","73","251987","0.0-34.0","31446547","wem/bandit_party_1","A3PYFNAED6X1BL","either","4","16094","","","32","","","","","","","","","","","","","","","","","","","","","","","","","","","","","","","","","","","","",""
"","text-replacement","74","259787","0.0-35.0","31446547","wem/bandit_party_1","A3PYFNAED6X1BL","either","4","7798","","","32","","","","","","","","","","","","","","","","","","","","","","","","","","","","","","","","","","","","",""
"","text-replacement","75","262190","0.0-36.0","31446547","wem/bandit_party_1","A3PYFNAED6X1BL","either","4","2400","","","32","","","","","","","","","","","","","","","","","","","","","","","","","","","","","","","","","","","","",""
"","text-replacement","76","265332","0.0-37.0","31446547","wem/bandit_party_1","A3PYFNAED6X1BL","either","4","3138","","","32","","","","","","","","","","","","","","","","","","","","","","","","","","","","","","","","","","","","",""
"","text-replacement","77","269486","0.0-38.0","31446547","wem/bandit_party_1","A3PYFNAED6X1BL","either","4","4150","","","32","","","","","","","","","","","","","","","","","","","","","","","","","","","","","","","","","","","","",""
"","survey-multi-choice-replacement","78","273771","0.0-39.0-0.0","31446547","wem/bandit_party_1","A3PYFNAED6X1BL","either","4","4272","","","","","","","","","","","","","","","","","","","","","","","","Money will be added to the pool for <span style='color:red;'>REPUBLICANS</span>","","","","","","","attn_check","","","","","","","","","0"
"","survey-multi-choice-replacement","79","277762","0.0-40.0-0.0","31446547","wem/bandit_party_1","A3PYFNAED6X1BL","either","4","2982","","","","","","","","","","","","","","","","","","","","","","","","Equal amounts of money will be added to the pool for <span style='color:red;'>REPUBLICANS</span> and subtracted from the pool for <span style='color:blue;'>DEMOCRATS</span>","","","","","","","attn_check","","","","","","","","","2"
"","survey-multi-choice-replacement","80","281466","0.0-41.0-0.0","31446547","wem/bandit_party_1","A3PYFNAED6X1BL","either","4","2689","","","","","","","","","","","","","","","","","","","","","","","","No money will be added to either pool","","","","","","","attn_check","","","","","","","","","3"
"","bandit","81","285743","0.0-42.0-0.0","31446547","wem/bandit_party_1","A3PYFNAED6X1BL","either","4","1764","","","","","","","0","0","1","0.3242650943","","0.8","0.4","0.6","0.2","","","","","0.3242650943","0.2771551185","0.3525715257","0.3894728165","","","","","","","","","","72","H","0","img/none_selected.jpg","","1","main_expt",""
"","bandit","82","287332","0.0-43.0-0.0","31446547","wem/bandit_party_1","A3PYFNAED6X1BL","either","4","80","","","","","","","0","1","0","","0.3030893157","0.8","0.4","0.6","0.2","0.3296228245","0.3030893157","0.390153736","0.363660736","","","","","","","","","","","","","","74","J","1","","","2","main_expt",""
"","bandit","83","289132","0.0-44.0-0.0","31446547","wem/bandit_party_1","A3PYFNAED6X1BL","either","4","291","","","","","","","0","0","1","0.3725447061","","0.8","0.4","0.6","0.2","","","","","0.3102780753","0.3211059343","0.3725447061","0.3842171554","","","","","","","","","","75","K","2","","","3","main_expt",""
"","bandit","84","290869","0.0-45.0-0.0","31446547","wem/bandit_party_1","A3PYFNAED6X1BL","either","4","228","","","","","","","0","0","1","0.3831963053","","0.8","0.4","0.6","0.2","","","","","0.2749892112","0.2804386453","0.3431524481","0.3831963053","","","","","","","","","","76","L","3","","","4","main_expt",""
"","bandit","85","292590","0.0-46.0-0.0","31446547","wem/bandit_party_1","A3PYFNAED6X1BL","either","4","212","","","","","","","0","1","0","","0.2609559086","0.8","0.4","0.6","0.2","0.3037824898","0.2609559086","0.3448007793","0.4056596471","","","","","","","","","","","","","","74","J","1","","","5","main_expt",""
"","bandit","86","294311","0.0-47.0-0.0","31446547","wem/bandit_party_1","A3PYFNAED6X1BL","either","4","214","","","","","","","0","0","1","","0.2259287768","0.8","0.4","0.6","0.2","0.3217417103","0.2259287768","0.3980888019","0.4409946319","","","","","","","","","","","","","","74","J","1","","","6","main_expt",""
"","bandit","87","295863","0.0-48.0-0.0","31446547","wem/bandit_party_1","A3PYFNAED6X1BL","either","4","43","","","","","","","0","0","1","","0.2433618728","0.8","0.4","0.6","0.2","0.3018715163","0.2433618728","0.3693121862","0.3821747998","","","","","","","","","","","","","","74","J","1","","","7","main_expt",""
"","bandit","88","297958","0.0-49.0-0.0","31446547","wem/bandit_party_1","A3PYFNAED6X1BL","either","4","589","","","","","","","0","0","1","0.2025356769","","0.8","0.4","0.6","0.2","","","","","0.3643645816","0.2025356769","0.2933697555","0.3841844813","","","","","","","","","","74","J","1","","","8","main_expt",""
"","bandit","89","299694","0.0-50.0-0.0","31446547","wem/bandit_party_1","A3PYFNAED6X1BL","either","4","227","","","","","","","0","0","1","","0.3036212831","0.8","0.4","0.6","0.2","0.3418610374","0.1441028094","0.3036212831","0.3412237964","","","","","","","","","","","","","","75","K","2","","","9","main_expt",""
"","bandit","90","301430","0.0-51.0-0.0","31446547","wem/bandit_party_1","A3PYFNAED6X1BL","either","4","229","","","","","","","0","0","1","","0.3256420777","0.8","0.4","0.6","0.2","0.3190157878","0.1736005971","0.308020301","0.3256420777","","","","","","","","","","","","","","76","L","3","","","10","main_expt",""
"","bandit","91","303062","0.0-52.0-0.0","31446547","wem/bandit_party_1","A3PYFNAED6X1BL","either","4","125","","","","","","","0","0","1","0.2998731478","","0.8","0.4","0.6","0.2","","","","","0.2998731478","0.1836365694","0.3065973113","0.3514007431","","","","","","","","","","72","H","0","img/none_selected.jpg","","11","main_expt",""
"","bandit","92","305096","0.0-53.0-0.0","31446547","wem/bandit_party_1","A3PYFNAED6X1BL","either","4","523","","","","","","","0","0","1","0.2143869662","","0.8","0.4","0.6","0.2","","","","","0.2942822571","0.2143869662","0.3271859636","0.3722032088","","","","","","","","","","74","J","1","","","12","main_expt",""
"","bandit","93","306943","0.0-54.0-0.0","31446547","wem/bandit_party_1","A3PYFNAED6X1BL","either","4","337","","","","","","","0","0","1","","0.2761076709","0.8","0.4","0.6","0.2","0.3009212619","0.1637139448","0.2761076709","0.3681707299","","","","","","","","","","","","","","75","K","2","","","13","main_expt",""
"","bandit","94","308656","0.0-55.0-0.0","31446547","wem/bandit_party_1","A3PYFNAED6X1BL","either","4","207","","","","","","","0","0","1","0.3528222564","","0.8","0.4","0.6","0.2","","","","","0.3227424667","0.1488535162","0.2311164494","0.3528222564","","","","","","","","","","76","L","3","","","14","main_expt",""
"","bandit","95","310479","0.0-56.0-0.0","31446547","wem/bandit_party_1","A3PYFNAED6X1BL","either","4","313","","","","","","","1","0","0","0.3547546862","","0.8","0.4","0.6","0.2","","","","","0.3547546862","0.1332411271","0.2905977425","0.3738838661","","","","","","","","","","72","H","0","img/none_selected.jpg","","15","main_expt",""
"","bandit","96","312271","0.0-57.0-0.0","31446547","wem/bandit_party_1","A3PYFNAED6X1BL","either","4","281","","","","","","","1","0","0","0.3241157583","","0.8","0.4","0.6","0.2","","","","","0.3241157583","0.09882415698","0.2924554969","0.3385239332","","","","","","","","","","72","H","0","img/none_selected.jpg","","16","main_expt",""
"","bandit","97","314070","0.0-58.0-0.0","31446547","wem/bandit_party_1","A3PYFNAED6X1BL","either","4","289","","","","","","","0","1","0","","0.3363410386","0.8","0.4","0.6","0.2","0.3363410386","0.1069157009","0.3114836302","0.3111355138","","","","","","","","","","","","","","72","H","0","img/none_selected.jpg","","17","main_expt",""
"","bandit","98","315943","0.0-59.0-0.0","31446547","wem/bandit_party_1","A3PYFNAED6X1BL","either","4","357","","","","","","","1","0","0","0.3880947854","","0.8","0.4","0.6","0.2","","","","","0.3880947854","0.134958137","0.3215333475","0.3487767647","","","","","","","","","","72","H","0","img/none_selected.jpg","","18","main_expt",""
"","bandit","99","317769","0.0-60.0-0.0","31446547","wem/bandit_party_1","A3PYFNAED6X1BL","either","4","313","","","","","","","1","0","0","0.4116912081","","0.8","0.4","0.6","0.2","","","","","0.4116912081","0.1230418706","0.2733398822","0.3010303499","","","","","","","","","","72","H","0","img/none_selected.jpg","","19","main_expt",""
"","bandit","100","319631","0.0-61.0-0.0","31446547","wem/bandit_party_1","A3PYFNAED6X1BL","either","4","356","","","","","","","0","0","1","0.3973894305","","0.8","0.4","0.6","0.2","","","","","0.3973894305","0.09866604889","0.2351410235","0.2907203997","","","","","","","","","","72","H","0","img/none_selected.jpg","","20","main_expt",""
"","bandit","101","321454","0.0-62.0-0.0","31446547","wem/bandit_party_1","A3PYFNAED6X1BL","either","4","317","","","","","","","1","0","0","0.369037109","","0.8","0.4","0.6","0.2","","","","","0.369037109","0.1021222834","0.2257810982","0.3088108907","","","","","","","","","","72","H","0","img/none_selected.jpg","","21","main_expt",""
"","bandit","102","323232","0.0-63.0-0.0","31446547","wem/bandit_party_1","A3PYFNAED6X1BL","either","4","269","","","","","","","0","0","1","0.4179468344","","0.8","0.4","0.6","0.2","","","","","0.4179468344","0.1234138809","0.2221856846","0.349202701","","","","","","","","","","72","H","0","img/none_selected.jpg","","22","main_expt",""
"","bandit","103","325024","0.0-64.0-0.0","31446547","wem/bandit_party_1","A3PYFNAED6X1BL","either","4","286","","","","","","","0","0","1","0.4276062926","","0.8","0.4","0.6","0.2","","","","","0.4276062926","0.1030640584","0.2127124712","0.3785068464","","","","","","","","","","72","H","0","img/none_selected.jpg","","23","main_expt",""
"","bandit","104","326848","0.0-65.0-0.0","31446547","wem/bandit_party_1","A3PYFNAED6X1BL","either","4","314","","","","","","","0","1","0","","0.4078122208","0.8","0.4","0.6","0.2","0.4078122208","0.1261035851","0.1882566648","0.4012919653","","","","","","","","","","","","","","72","H","0","img/none_selected.jpg","","24","main_expt",""
"","bandit","105","328579","0.0-66.0-0.0","31446547","wem/bandit_party_1","A3PYFNAED6X1BL","either","4","224","","","","","","","0","0","1","0.3950411191","","0.8","0.4","0.6","0.2","","","","","0.3950411191","0.1796705612","0.1273223766","0.400899794","","","","","","","","","","72","H","0","img/none_selected.jpg","","25","main_expt",""
"","bandit","106","330387","0.0-67.0-0.0","31446547","wem/bandit_party_1","A3PYFNAED6X1BL","either","4","296","","","","","","","0","0","1","","0.4322303329","0.8","0.4","0.6","0.2","0.4322303329","0.2414651519","0.15747458","0.4126274585","","","","","","","","","","","","","","72","H","0","img/none_selected.jpg","","26","main_expt",""
"","bandit","107","332688","0.0-68.0-0.0","31446547","wem/bandit_party_1","A3PYFNAED6X1BL","either","4","790","","","","","","","0","0","1","0.2005374927","","0.8","0.4","0.6","0.2","","","","","0.4353643722","0.2005374927","0.1442684908","0.3992263875","","","","","","","","","","74","J","1","","","27","main_expt",""
"","bandit","108","334593","0.0-69.0-0.0","31446547","wem/bandit_party_1","A3PYFNAED6X1BL","either","4","394","","","","","","","1","0","0","0.2255404594","","0.8","0.4","0.6","0.2","","","","","0.4464017809","0.3197257227","0.2255404594","0.3846584236","","","","","","","","","","75","K","2","","","28","main_expt",""
"","bandit","109","336457","0.0-70.0-0.0","31446547","wem/bandit_party_1","A3PYFNAED6X1BL","either","4","357","","","","","","","0","0","1","0.2730951691","","0.8","0.4","0.6","0.2","","","","","0.4417109462","0.3141869899","0.2730951691","0.3561298134","","","","","","","","","","75","K","2","","","29","main_expt",""
"","bandit","110","338257","0.0-71.0-0.0","31446547","wem/bandit_party_1","A3PYFNAED6X1BL","either","4","293","","","","","","","0","0","1","","0.3101363315","0.8","0.4","0.6","0.2","0.4065908859","0.3445991012","0.2890412698","0.3101363315","","","","","","","","","","","","","","76","L","3","","","30","main_expt",""
"","bandit","111","340092","0.0-72.0-0.0","31446547","wem/bandit_party_1","A3PYFNAED6X1BL","either","4","321","","","","","","","0","0","1","0.3309226042","","0.8","0.4","0.6","0.2","","","","","0.3954582793","0.3456655029","0.3309226042","0.3322219809","","","","","","","","","","75","K","2","","","31","main_expt",""
"","bandit","112","341866","0.0-73.0-0.0","31446547","wem/bandit_party_1","A3PYFNAED6X1BL","either","4","263","","","","","","","0","0","1","0.3826172224","","0.8","0.4","0.6","0.2","","","","","0.3716723047","0.3826172224","0.3519301717","0.3516269472","","","","","","","","","","74","J","1","","","32","main_expt",""
"","bandit","113","343655","0.0-74.0-0.0","31446547","wem/bandit_party_1","A3PYFNAED6X1BL","either","4","280","","","","","","","1","0","0","0.3799724366","","0.8","0.4","0.6","0.2","","","","","0.3799724366","0.3804083149","0.3414953842","0.3852085553","","","","","","","","","","72","H","0","img/none_selected.jpg","","33","main_expt",""
"","bandit","114","345467","0.0-75.0-0.0","31446547","wem/bandit_party_1","A3PYFNAED6X1BL","either","4","304","","","","","","","1","0","0","0.409480615","","0.8","0.4","0.6","0.2","","","","","0.409480615","0.3808178469","0.2938412915","0.4196644934","","","","","","","","","","72","H","0","img/none_selected.jpg","","34","main_expt",""
"","bandit","115","347304","0.0-76.0-0.0","31446547","wem/bandit_party_1","A3PYFNAED6X1BL","either","4","330","","","","","","","0","1","0","","0.3869649509","0.8","0.4","0.6","0.2","0.3869649509","0.376129724","0.2256616696","0.420891004","","","","","","","","","","","","","","72","H","0","img/none_selected.jpg","","35","main_expt",""
"","bandit","116","349296","0.0-77.0-0.0","31446547","wem/bandit_party_1","A3PYFNAED6X1BL","either","4","486","","","","","","","0","0","1","0.3045389962","","0.8","0.4","0.6","0.2","","","","","0.3045389962","0.4027809904","0.2525957923","0.3808881167","","","","","","","","","","72","H","0","img/none_selected.jpg","","36","main_expt",""
"","bandit","117","351149","0.0-78.0-0.0","31446547","wem/bandit_party_1","A3PYFNAED6X1BL","either","4","345","","","","","","","1","0","0","0.2954217214","","0.8","0.4","0.6","0.2","","","","","0.2954217214","0.3715556026","0.2333373749","0.3634360393","","","","","","","","","","72","H","0","img/none_selected.jpg","","37","main_expt",""
"","bandit","118","353000","0.0-79.0-0.0","31446547","wem/bandit_party_1","A3PYFNAED6X1BL","either","4","340","","","","","","","0","0","1","0.2749906923","","0.8","0.4","0.6","0.2","","","","","0.2749906923","0.354842885","0.2126884676","0.3432691328","","","","","","","","","","72","H","0","img/none_selected.jpg","","38","main_expt",""
"","bandit","119","354881","0.0-80.0-0.0","31446547","wem/bandit_party_1","A3PYFNAED6X1BL","either","4","368","","","","","","","0","0","1","0.2911873598","","0.8","0.4","0.6","0.2","","","","","0.2911873598","0.3066825603","0.212498526","0.3113322025","","","","","","","","","","72","H","0","img/none_selected.jpg","","39","main_expt",""
"","bandit","120","356653","0.0-81.0-0.0","31446547","wem/bandit_party_1","A3PYFNAED6X1BL","either","4","256","","","","","","","0","1","0","","0.3066149412","0.8","0.4","0.6","0.2","0.3066149412","0.3208648015","0.2031275136","0.3298138996","","","","","","","","","","","","","","72","H","0","img/none_selected.jpg","","40","main_expt",""
"","bandit","121","358418","0.0-82.0-0.0","31446547","wem/bandit_party_1","A3PYFNAED6X1BL","either","4","250","","","","","","","0","0","1","0.2612722093","","0.8","0.4","0.6","0.2","","","","","0.2612722093","0.2774570704","0.2409224204","0.3590557929","","","","","","","","","","72","H","0","img/none_selected.jpg","","41","main_expt",""
"","bandit","122","360203","0.0-83.0-0.0","31446547","wem/bandit_party_1","A3PYFNAED6X1BL","either","4","276","","","","","","","0","0","1","0.2579482203","","0.8","0.4","0.6","0.2","","","","","0.2579482203","0.3092882543","0.2166695961","0.3455434044","","","","","","","","","","72","H","0","img/none_selected.jpg","","42","main_expt",""
"","bandit","123","362036","0.0-84.0-0.0","31446547","wem/bandit_party_1","A3PYFNAED6X1BL","either","4","319","","","","","","","0","0","1","","0.3161251671","0.8","0.4","0.6","0.2","0.2232302517","0.3161251671","0.2314197793","0.4020043176","","","","","","","","","","","","","","74","J","1","","","43","main_expt",""
"","bandit","124","363794","0.0-85.0-0.0","31446547","wem/bandit_party_1","A3PYFNAED6X1BL","either","4","244","","","","","","","0","0","1","","0.1889371852","0.8","0.4","0.6","0.2","0.2435669349","0.3032549762","0.1889371852","0.4088695108","","","","","","","","","","","","","","75","K","2","","","44","main_expt",""
"","bandit","125","365579","0.0-86.0-0.0","31446547","wem/bandit_party_1","A3PYFNAED6X1BL","either","4","277","","","","","","","0","0","1","","0.3914045207","0.8","0.4","0.6","0.2","0.1885724617","0.3012359134","0.2152104473","0.3914045207","","","","","","","","","","","","","","76","L","3","","","45","main_expt",""
"","bandit","126","367297","0.0-87.0-0.0","31446547","wem/bandit_party_1","A3PYFNAED6X1BL","either","4","208","","","","","","","0","0","1","","0.104230756","0.8","0.4","0.6","0.2","0.104230756","0.2994346937","0.2260726972","0.3682142312","","","","","","","","","","","","","","72","H","0","img/none_selected.jpg","","46","main_expt",""
"","bandit","127","369065","0.0-88.0-0.0","31446547","wem/bandit_party_1","A3PYFNAED6X1BL","either","4","256","","","","","","","1","0","0","0.3169549043","","0.8","0.4","0.6","0.2","","","","","0.09013225529","0.3169549043","0.2330399618","0.3462276735","","","","","","","","","","74","J","1","","","47","main_expt",""
"","bandit","128","370825","0.0-89.0-0.0","31446547","wem/bandit_party_1","A3PYFNAED6X1BL","either","4","251","","","","","","","0","0","1","0.2769685944","","0.8","0.4","0.6","0.2","","","","","0.1066227192","0.3137179834","0.2769685944","0.3501405617","","","","","","","","","","75","K","2","","","48","main_expt",""
"","bandit","129","372370","0.0-90.0-0.0","31446547","wem/bandit_party_1","A3PYFNAED6X1BL","either","4","37","","","","","","","0","0","1","","0.3607669766","0.8","0.4","0.6","0.2","0.1273062614","0.3026837323","0.2954986192","0.3607669766","","","","","","","","","","","","","","76","L","3","","","49","main_expt",""
"","bandit","130","373945","0.0-91.0-0.0","31446547","wem/bandit_party_1","A3PYFNAED6X1BL","either","4","64","","","","","","","0","1","0","","0.2690248343","0.8","0.4","0.6","0.2","0.08158159543","0.2690248343","0.2730110453","0.3776327681","","","","","","","","","","","","","","74","J","1","","","50","main_expt",""
"","bandit","131","375817","0.0-92.0-0.0","31446547","wem/bandit_party_1","A3PYFNAED6X1BL","either","4","361","","","","","","","1","0","0","0.2407215714","","0.8","0.4","0.6","0.2","","","","","0.08035098666","0.2407215714","0.2672659715","0.3922012959","","","","","","","","","","74","J","1","","","51","main_expt",""
"","bandit","132","377644","0.0-93.0-0.0","31446547","wem/bandit_party_1","A3PYFNAED6X1BL","either","4","319","","","","","","","0","0","1","","0.2758158767","0.8","0.4","0.6","0.2","0.1007468434","0.2758158767","0.2552972095","0.3532085343","","","","","","","","","","","","","","74","J","1","","","52","main_expt",""
"","bandit","133","379506","0.0-94.0-0.0","31446547","wem/bandit_party_1","A3PYFNAED6X1BL","either","4","349","","","","","","","0","0","1","0.2661511239","","0.8","0.4","0.6","0.2","","","","","0.1479770317","0.2661511239","0.1954439593","0.3597378762","","","","","","","","","","74","J","1","","","53","main_expt",""
"","bandit","134","381348","0.0-95.0-0.0","31446547","wem/bandit_party_1","A3PYFNAED6X1BL","either","4","332","","","","","","","0","0","1","0.250303373","","0.8","0.4","0.6","0.2","","","","","0.1450389045","0.250303373","0.1250298759","0.3553644404","","","","","","","","","","74","J","1","","","54","main_expt",""
"","bandit","135","383189","0.0-96.0-0.0","31446547","wem/bandit_party_1","A3PYFNAED6X1BL","either","4","327","","","","","","","0","0","1","0.1850572083","","0.8","0.4","0.6","0.2","","","","","0.1678096349","0.1850572083","0.1224949652","0.3427354451","","","","","","","","","","74","J","1","","","55","main_expt",""
"","bandit","136","384998","0.0-97.0-0.0","31446547","wem/bandit_party_1","A3PYFNAED6X1BL","either","4","299","","","","","","","0","0","1","","0.1748395718","0.8","0.4","0.6","0.2","0.1748395718","0.2410157884","0.1312048923","0.3158877586","","","","","","","","","","","","","","72","H","0","img/none_selected.jpg","","56","main_expt",""
"","bandit","137","386810","0.0-98.0-0.0","31446547","wem/bandit_party_1","A3PYFNAED6X1BL","either","4","300","","","","","","","0","0","1","","0.14452077","0.8","0.4","0.6","0.2","0.146986137","0.2657224069","0.14452077","0.3224611445","","","","","","","","","","","","","","75","K","2","","","57","main_expt",""
"","bandit","138","388650","0.0-99.0-0.0","31446547","wem/bandit_party_1","A3PYFNAED6X1BL","either","4","328","","","","","","","0","0","1","","0.3378672788","0.8","0.4","0.6","0.2","0.1316135006","0.2361308133","0.1198415177","0.3378672788","","","","","","","","","","","","","","76","L","3","","","58","main_expt",""
"","bandit","139","390458","0.0-100.0-0.0","31446547","wem/bandit_party_1","A3PYFNAED6X1BL","either","4","302","","","","","","","0","0","1","","0.1776120447","0.8","0.4","0.6","0.2","0.1776120447","0.2078360154","0.1674914914","0.3438075972","","","","","","","","","","","","","","72","H","0","img/none_selected.jpg","","59","main_expt",""
"","bandit","140","392189","0.0-101.0-0.0","31446547","wem/bandit_party_1","A3PYFNAED6X1BL","either","4","217","","","","","","","0","0","1","","0.2256957235","0.8","0.4","0.6","0.2","0.2034864675","0.2256957235","0.147959707","0.2950987239","","","","","","","","","","","","","","74","J","1","","","60","main_expt",""
"","bandit","141","393998","0.0-102.0-0.0","31446547","wem/bandit_party_1","A3PYFNAED6X1BL","either","4","298","","","","","","","0","0","1","","0.1217284172","0.8","0.4","0.6","0.2","0.1325668513","0.2713547376","0.1217284172","0.2939622289","","","","","","","","","","","","","","75","K","2","","","61","main_expt",""
"","bandit","142","395812","0.0-103.0-0.0","31446547","wem/bandit_party_1","A3PYFNAED6X1BL","either","4","300","","","","","","","0","0","1","","0.2907096119","0.8","0.4","0.6","0.2","0.125492747","0.2800078023","0.1392905859","0.2907096119","","","","","","","","","","","","","","76","L","3","","","62","main_expt",""
"","bandit","143","397589","0.0-104.0-0.0","31446547","wem/bandit_party_1","A3PYFNAED6X1BL","either","4","268","","","","","","","1","0","0","0.1081989139","","0.8","0.4","0.6","0.2","","","","","0.1081989139","0.362183352","0.1953314019","0.2696382907","","","","","","","","","","72","H","0","img/none_selected.jpg","","63","main_expt",""
"","bandit","144","399412","0.0-105.0-0.0","31446547","wem/bandit_party_1","A3PYFNAED6X1BL","either","4","308","","","","","","","0","0","1","0.3354395381","","0.8","0.4","0.6","0.2","","","","","0.09104284411","0.3354395381","0.2618523415","0.2496415039","","","","","","","","","","74","J","1","","","64","main_expt",""
"","bandit","145","401165","0.0-106.0-0.0","31446547","wem/bandit_party_1","A3PYFNAED6X1BL","either","4","244","","","","","","","1","0","0","0.2686672798","","0.8","0.4","0.6","0.2","","","","","0.1264903162","0.2893845237","0.2686672798","0.2364994079","","","","","","","","","","75","K","2","","","65","main_expt",""
"","bandit","146","403228","0.0-107.0-0.0","31446547","wem/bandit_party_1","A3PYFNAED6X1BL","either","4","554","","","","","","","1","0","0","0.1665937301","","0.8","0.4","0.6","0.2","","","","","0.1665937301","0.2355717356","0.2451656397","0.2541683514","","","","","","","","","","72","H","0","img/none_selected.jpg","","66","main_expt",""
"","bandit","147","405166","0.0-108.0-0.0","31446547","wem/bandit_party_1","A3PYFNAED6X1BL","either","4","425","","","","","","","0","0","1","0.2445320338","","0.8","0.4","0.6","0.2","","","","","0.1740025863","0.2848755716","0.2445320338","0.2985471382","","","","","","","","","","75","K","2","","","67","main_expt",""
"","bandit","148","406964","0.0-109.0-0.0","31446547","wem/bandit_party_1","A3PYFNAED6X1BL","either","4","286","","","","","","","0","0","1","","0.2300011382","0.8","0.4","0.6","0.2","0.2300011382","0.3341158043","0.2261158315","0.3391290389","","","","","","","","","","","","","","72","H","0","img/none_selected.jpg","","68","main_expt",""
"","bandit","149","408812","0.0-110.0-0.0","31446547","wem/bandit_party_1","A3PYFNAED6X1BL","either","4","334","","","","","","","0","0","1","0.1627286519","","0.8","0.4","0.6","0.2","","","","","0.1768594062","0.3253412689","0.1627286519","0.3114764975","","","","","","","","","","75","K","2","","","69","main_expt",""
"","bandit","150","410573","0.0-111.0-0.0","31446547","wem/bandit_party_1","A3PYFNAED6X1BL","either","4","248","","","","","","","0","0","1","0.1906145184","","0.8","0.4","0.6","0.2","","","","","0.1906145184","0.3280915152","0.1301009224","0.3056328376","","","","","","","","","","72","H","0","img/none_selected.jpg","","70","main_expt",""
"","bandit","151","412310","0.0-112.0-0.0","31446547","wem/bandit_party_1","A3PYFNAED6X1BL","either","4","227","","","","","","","0","0","1","","0.1356707761","0.8","0.4","0.6","0.2","0.1451664327","0.3772643828","0.1356707761","0.3445325487","","","","","","","","","","","","","","75","K","2","","","71","main_expt",""
"","bandit","152","414166","0.0-113.0-0.0","31446547","wem/bandit_party_1","A3PYFNAED6X1BL","either","4","343","","","","","","","1","0","0","0.364612409","","0.8","0.4","0.6","0.2","","","","","0.1091447996","0.4074174212","0.1045412551","0.364612409","","","","","","","","","","76","L","3","","","72","main_expt",""
"","bandit","153","415982","0.0-114.0-0.0","31446547","wem/bandit_party_1","A3PYFNAED6X1BL","either","4","303","","","","","","","0","0","1","","0.4454774056","0.8","0.4","0.6","0.2","0.1248737042","0.3736299767","0.0867882282","0.4454774056","","","","","","","","","","","","","","76","L","3","","","73","main_expt",""
"","bandit","154","417772","0.0-115.0-0.0","31446547","wem/bandit_party_1","A3PYFNAED6X1BL","either","4","285","","","","","","","1","0","0","0.4492830973","","0.8","0.4","0.6","0.2","","","","","0.1073746888","0.383211712","0.1018359722","0.4492830973","","","","","","","","","","76","L","3","","","74","main_expt",""
"","bandit","155","419444","0.0-116.0-0.0","31446547","wem/bandit_party_1","A3PYFNAED6X1BL","either","4","164","","","","","","","0","0","1","","0.449321966","0.8","0.4","0.6","0.2","0.1051395745","0.3681962321","0.09443707336","0.449321966","","","","","","","","","","","","","","76","L","3","","","75","main_expt",""
"","bandit","156","421263","0.0-117.0-0.0","31446547","wem/bandit_party_1","A3PYFNAED6X1BL","either","4","308","","","","","","","0","1","0","","0.4299726132","0.8","0.4","0.6","0.2","0.09171451076","0.3574328021","0.08768691443","0.4299726132","","","","","","","","","","","","","","76","L","3","","","76","main_expt",""
"","bandit","157","423565","0.0-118.0-0.0","31446547","wem/bandit_party_1","A3PYFNAED6X1BL","either","4","794","","","","","","","0","1","0","","0.4349340462","0.8","0.4","0.6","0.2","0.1256070833","0.4041720962","0.07744448812","0.4349340462","","","","","","","","","","","","","","76","L","3","","","77","main_expt",""
"","bandit","158","425511","0.0-119.0-0.0","31446547","wem/bandit_party_1","A3PYFNAED6X1BL","either","4","433","","","","","","","0","0","1","","0.4112950215","0.8","0.4","0.6","0.2","0.1398604905","0.4000946746","0.05712631425","0.4112950215","","","","","","","","","","","","","","76","L","3","","","78","main_expt",""
"","bandit","159","427421","0.0-120.0-0.0","31446547","wem/bandit_party_1","A3PYFNAED6X1BL","either","4","399","","","","","","","0","0","1","","0.4123046053","0.8","0.4","0.6","0.2","0.1303191282","0.425248604","0.03981704588","0.4123046053","","","","","","","","","","","","","","76","L","3","","","79","main_expt",""
"","bandit","160","429326","0.0-121.0-0.0","31446547","wem/bandit_party_1","A3PYFNAED6X1BL","either","4","397","","","","","","","0","0","1","","0.4263383456","0.8","0.4","0.6","0.2","0.1491340647","0.4263383456","0.02961196177","0.4345430878","","","","","","","","","","","","","","74","J","1","","","80","main_expt",""
"","bandit","161","431165","0.0-122.0-0.0","31446547","wem/bandit_party_1","A3PYFNAED6X1BL","either","4","327","","","","","","","0","0","1","0.0408206899","","0.8","0.4","0.6","0.2","","","","","0.1484119081","0.4377411966","0.0408206899","0.4255274095","","","","","","","","","","75","K","2","","","81","main_expt",""
"","bandit","162","432814","0.0-123.0-0.0","31446547","wem/bandit_party_1","A3PYFNAED6X1BL","either","4","140","","","","","","","0","0","1","","0.135460029","0.8","0.4","0.6","0.2","0.135460029","0.4263216968","0.03491361241","0.4266934287","","","","","","","","","","","","","","72","H","0","img/none_selected.jpg","","82","main_expt",""
"","bandit","163","434647","0.0-124.0-0.0","31446547","wem/bandit_party_1","A3PYFNAED6X1BL","either","4","319","","","","","","","0","0","1","","0.4321646522","0.8","0.4","0.6","0.2","0.09497461961","0.4536492548","0.01881925386","0.4321646522","","","","","","","","","","","","","","76","L","3","","","83","main_expt",""
"","bandit","164","436509","0.0-125.0-0.0","31446547","wem/bandit_party_1","A3PYFNAED6X1BL","either","4","349","","","","","","","0","0","1","0.03441768066","","0.8","0.4","0.6","0.2","","","","","0.0956585677","0.4344769981","0.03441768066","0.43129245","","","","","","","","","","75","K","2","","","84","main_expt",""
"","bandit","165","438296","0.0-126.0-0.0","31446547","wem/bandit_party_1","A3PYFNAED6X1BL","either","4","279","","","","","","","0","0","1","","0.4167097255","0.8","0.4","0.6","0.2","0.08427930603","0.4167097255","0.04015732792","0.4307495417","","","","","","","","","","","","","","74","J","1","","","85","main_expt",""
"","bandit","166","440103","0.0-127.0-0.0","31446547","wem/bandit_party_1","A3PYFNAED6X1BL","either","4","292","","","","","","","0","0","1","0.09540141202","","0.8","0.4","0.6","0.2","","","","","0.09540141202","0.4215971904","0.0462821445","0.4327415212","","","","","","","","","","72","H","0","img/none_selected.jpg","","86","main_expt",""
"","bandit","167","441799","0.0-128.0-0.0","31446547","wem/bandit_party_1","A3PYFNAED6X1BL","either","4","184","","","","","","","0","1","0","","0.4507305815","0.8","0.4","0.6","0.2","0.06504543429","0.3962725568","0.07236867375","0.4507305815","","","","","","","","","","","","","","76","L","3","","","87","main_expt",""
"","bandit","168","443663","0.0-129.0-0.0","31446547","wem/bandit_party_1","A3PYFNAED6X1BL","either","4","351","","","","","","","0","0","1","","0.4571393315","0.8","0.4","0.6","0.2","0.05894337134","0.4038430626","0.1132918069","0.4571393315","","","","","","","","","","","","","","76","L","3","","","88","main_expt",""
"","bandit","169","445534","0.0-130.0-0.0","31446547","wem/bandit_party_1","A3PYFNAED6X1BL","either","4","357","","","","","","","0","0","1","0.4639779763","","0.8","0.4","0.6","0.2","","","","","0.06803635399","0.4247877058","0.1466354559","0.4639779763","","","","","","","","","","76","L","3","","","89","main_expt",""
"","bandit","170","447423","0.0-131.0-0.0","31446547","wem/bandit_party_1","A3PYFNAED6X1BL","either","4","380","","","","","","","0","0","1","","0.4620017245","0.8","0.4","0.6","0.2","0.09657856289","0.4196700557","0.1746819083","0.4620017245","","","","","","","","","","","","","","76","L","3","","","90","main_expt",""
"","bandit","171","449250","0.0-132.0-0.0","31446547","wem/bandit_party_1","A3PYFNAED6X1BL","either","4","316","","","","","","","0","0","1","","0.4492963398","0.8","0.4","0.6","0.2","0.08522031428","0.401758082","0.1864657318","0.4492963398","","","","","","","","","","","","","","76","L","3","","","91","main_expt",""
"","bandit","172","451090","0.0-133.0-0.0","31446547","wem/bandit_party_1","A3PYFNAED6X1BL","either","4","324","","","","","","","1","0","0","0.2124622091","","0.8","0.4","0.6","0.2","","","","","0.07078380504","0.3422099147","0.2124622091","0.462009279","","","","","","","","","","75","K","2","","","92","main_expt",""
"","bandit","173","452953","0.0-134.0-0.0","31446547","wem/bandit_party_1","A3PYFNAED6X1BL","either","4","348","","","","","","","0","0","1","0.245786276","","0.8","0.4","0.6","0.2","","","","","0.0564278809","0.3279059742","0.245786276","0.4363090379","","","","","","","","","","75","K","2","","","93","main_expt",""
"","bandit","174","454754","0.0-135.0-0.0","31446547","wem/bandit_party_1","A3PYFNAED6X1BL","either","4","280","","","","","","","0","1","0","","0.3155724737","0.8","0.4","0.6","0.2","0.06067733924","0.3155724737","0.2316759231","0.4457519602","","","","","","","","","","","","","","74","J","1","","","94","main_expt",""
"","bandit","175","456671","0.0-136.0-0.0","31446547","wem/bandit_party_1","A3PYFNAED6X1BL","either","4","405","","","","","","","1","0","0","0.2231756969","","0.8","0.4","0.6","0.2","","","","","0.08632751489","0.3519625041","0.2231756969","0.4231248902","","","","","","","","","","75","K","2","","","95","main_expt",""
"","bandit","176","458616","0.0-137.0-0.0","31446547","wem/bandit_party_1","A3PYFNAED6X1BL","either","4","435","","","","","","","0","1","0","","0.1957128212","0.8","0.4","0.6","0.2","0.08481729553","0.3661455107","0.1957128212","0.4210676831","","","","","","","","","","","","","","75","K","2","","","96","main_expt",""
"","bandit","177","460515","0.0-138.0-0.0","31446547","wem/bandit_party_1","A3PYFNAED6X1BL","either","4","385","","","","","","","0","1","0","","0.1638116915","0.8","0.4","0.6","0.2","0.08386440452","0.3558031673","0.1638116915","0.4022895305","","","","","","","","","","","","","","75","K","2","","","97","main_expt",""
"","bandit","178","462546","0.0-139.0-0.0","31446547","wem/bandit_party_1","A3PYFNAED6X1BL","either","4","516","","","","","","","0","0","1","","0.1405816365","0.8","0.4","0.6","0.2","0.0940701929","0.3558230887","0.1405816365","0.4187351015","","","","","","","","","","","","","","75","K","2","","","98","main_expt",""
"","bandit","179","464315","0.0-140.0-0.0","31446547","wem/bandit_party_1","A3PYFNAED6X1BL","either","4","251","","","","","","","0","0","1","","0.3064708089","0.8","0.4","0.6","0.2","0.1285058524","0.3064708089","0.1435678602","0.3981340028","","","","","","","","","","","","","","74","J","1","","","99","main_expt",""
"","bandit","180","466233","0.0-141.0-0.0","31446547","wem/bandit_party_1","A3PYFNAED6X1BL","either","4","405","","","","","","","0","0","1","","0.065882019","0.8","0.4","0.6","0.2","0.065882019","0.352498313","0.1478754355","0.3520446815","","","","","","","","","","","","","","72","H","0","img/none_selected.jpg","","100","main_expt",""
"","bandit","181","468026","0.0-142.0-0.0","31446547","wem/bandit_party_1","A3PYFNAED6X1BL","either","4","277","","","","","","","0","0","1","0.1532559328","","0.8","0.4","0.6","0.2","","","","","0.05692140794","0.3511810171","0.1532559328","0.3715523215","","","","","","","","","","75","K","2","","","101","main_expt",""
"","bandit","182","469777","0.0-143.0-0.0","31446547","wem/bandit_party_1","A3PYFNAED6X1BL","either","4","244","","","","","","","1","0","0","0.3246867477","","0.8","0.4","0.6","0.2","","","","","0.04322280369","0.3246867477","0.15857411","0.3966955113","","","","","","","","","","74","J","1","","","102","main_expt",""
"","bandit","183","471682","0.0-144.0-0.0","31446547","wem/bandit_party_1","A3PYFNAED6X1BL","either","4","399","","","","","","","0","0","1","0.2827689756","","0.8","0.4","0.6","0.2","","","","","0.05121437093","0.2827689756","0.1552377357","0.3865714765","","","","","","","","","","74","J","1","","","103","main_expt",""
"","bandit","184","473491","0.0-145.0-0.0","31446547","wem/bandit_party_1","A3PYFNAED6X1BL","either","4","291","","","","","","","0","0","1","","0.3307995119","0.8","0.4","0.6","0.2","0.06548077564","0.3307995119","0.1584193753","0.3440646931","","","","","","","","","","","","","","74","J","1","","","104","main_expt",""
"","bandit","185","475418","0.0-146.0-0.0","31446547","wem/bandit_party_1","A3PYFNAED6X1BL","either","4","409","","","","","","","0","0","1","","0.3078297571","0.8","0.4","0.6","0.2","0.07577357845","0.3078297571","0.192058402","0.330981063","","","","","","","","","","","","","","74","J","1","","","105","main_expt",""
"","bandit","186","477419","0.0-147.0-0.0","31446547","wem/bandit_party_1","A3PYFNAED6X1BL","either","4","492","","","","","","","0","0","1","0.09041352565","","0.8","0.4","0.6","0.2","","","","","0.09041352565","0.3202685942","0.1562344916","0.3317280627","","","","","","","","","","72","H","0","img/none_selected.jpg","","106","main_expt",""
"","bandit","187","479203","0.0-148.0-0.0","31446547","wem/bandit_party_1","A3PYFNAED6X1BL","either","4","275","","","","","","","0","0","1","0.1493116313","","0.8","0.4","0.6","0.2","","","","","0.1184921167","0.3163418234","0.1493116313","0.2760665195","","","","","","","","","","75","K","2","","","107","main_expt",""
"","bandit","188","481052","0.0-149.0-0.0","31446547","wem/bandit_party_1","A3PYFNAED6X1BL","either","4","333","","","","","","","1","0","0","0.3425943818","","0.8","0.4","0.6","0.2","","","","","0.1057615429","0.3425943818","0.1357435498","0.2826301941","","","","","","","","","","74","J","1","","","108","main_expt",""
"","bandit","189","482909","0.0-150.0-0.0","31446547","wem/bandit_party_1","A3PYFNAED6X1BL","either","4","336","","","","","","","0","0","1","","0.2852030557","0.8","0.4","0.6","0.2","0.1464484126","0.2852030557","0.1164074326","0.318117281","","","","","","","","","","","","","","74","J","1","","","109","main_expt",""
"","bandit","190","484738","0.0-151.0-0.0","31446547","wem/bandit_party_1","A3PYFNAED6X1BL","either","4","315","","","","","","","0","0","1","0.3392406975","","0.8","0.4","0.6","0.2","","","","","0.1641354829","0.3392406975","0.1444451916","0.3358587519","","","","","","","","","","74","J","1","","","110","main_expt",""
"","bandit","191","486610","0.0-152.0-0.0","31446547","wem/bandit_party_1","A3PYFNAED6X1BL","either","4","358","","","","","","","0","0","1","","0.3023411017","0.8","0.4","0.6","0.2","0.1386891192","0.3023411017","0.09905323685","0.3031660534","","","","","","","","","","","","","","74","J","1","","","111","main_expt",""
"","bandit","192","488459","0.0-153.0-0.0","31446547","wem/bandit_party_1","A3PYFNAED6X1BL","either","4","332","","","","","","","0","1","0","","0.296849772","0.8","0.4","0.6","0.2","0.1847512065","0.296849772","0.09652445584","0.2773548355","","","","","","","","","","","","","","74","J","1","","","112","main_expt",""
"","bandit","193","490218","0.0-154.0-0.0","31446547","wem/bandit_party_1","A3PYFNAED6X1BL","either","4","252","","","","","","","0","1","0","","0.2673419259","0.8","0.4","0.6","0.2","0.1304555333","0.2673419259","0.09961189632","0.2370758425","","","","","","","","","","","","","","74","J","1","","","113","main_expt",""
"","bandit","194","492044","0.0-155.0-0.0","31446547","wem/bandit_party_1","A3PYFNAED6X1BL","either","4","315","","","","","","","0","0","1","0.2670531803","","0.8","0.4","0.6","0.2","","","","","0.1770102637","0.2670531803","0.1036139638","0.1821928837","","","","","","","","","","74","J","1","","","114","main_expt",""
"","bandit","195","493893","0.0-156.0-0.0","31446547","wem/bandit_party_1","A3PYFNAED6X1BL","either","4","339","","","","","","","0","1","0","","0.2825009356","0.8","0.4","0.6","0.2","0.1564651975","0.2825009356","0.0968506792","0.1315453283","","","","","","","","","","","","","","74","J","1","","","115","main_expt",""
"","bandit","196","495653","0.0-157.0-0.0","31446547","wem/bandit_party_1","A3PYFNAED6X1BL","either","4","251","","","","","","","0","0","1","0.3237719372","","0.8","0.4","0.6","0.2","","","","","0.1665702367","0.3237719372","0.08782875681","0.1102777544","","","","","","","","","","74","J","1","","","116","main_expt",""
"","bandit","197","497412","0.0-158.0-0.0","31446547","wem/bandit_party_1","A3PYFNAED6X1BL","either","4","249","","","","","","","0","0","1","0.3154846423","","0.8","0.4","0.6","0.2","","","","","0.1530687496","0.3154846423","0.06031800864","0.1101610351","","","","","","","","","","74","J","1","","","117","main_expt",""
"","bandit","198","499204","0.0-159.0-0.0","31446547","wem/bandit_party_1","A3PYFNAED6X1BL","either","4","284","","","","","","","0","0","1","","0.2584508078","0.8","0.4","0.6","0.2","0.1674206906","0.2584508078","0.05633053331","0.122460482","","","","","","","","","","","","","","74","J","1","","","118","main_expt",""
"","bandit","199","500988","0.0-160.0-0.0","31446547","wem/bandit_party_1","A3PYFNAED6X1BL","either","4","270","","","","","","","0","0","1","","0.2141905193","0.8","0.4","0.6","0.2","0.1990215448","0.2141905193","0.07530514027","0.1451868924","","","","","","","","","","","","","","74","J","1","","","119","main_expt",""
"","bandit","200","502789","0.0-161.0-0.0","31446547","wem/bandit_party_1","A3PYFNAED6X1BL","either","4","285","","","","","","","0","0","1","","0.2341954374","0.8","0.4","0.6","0.2","0.2208640619","0.2341954374","0.09639595661","0.09092593383","","","","","","","","","","","","","","74","J","1","","","120","main_expt",""
"","bandit","201","504527","0.0-162.0-0.0","31446547","wem/bandit_party_1","A3PYFNAED6X1BL","either","4","222","","","","","","","0","0","1","","0.1080456108","0.8","0.4","0.6","0.2","0.2602917539","0.1886372651","0.1421799471","0.1080456108","","","","","","","","","","","","","","76","L","3","","","121","main_expt",""
"","bandit","202","506324","0.0-163.0-0.0","31446547","wem/bandit_party_1","A3PYFNAED6X1BL","either","4","287","","","","","","","0","0","1","","0.1624760489","0.8","0.4","0.6","0.2","0.2512498235","0.1597592322","0.1624760489","0.1169053248","","","","","","","","","","","","","","75","K","2","","","122","main_expt",""
"","bandit","203","507964","0.0-164.0-0.0","31446547","wem/bandit_party_1","A3PYFNAED6X1BL","either","4","124","","","","","","","0","1","0","","0.2266242761","0.8","0.4","0.6","0.2","0.2266242761","0.1895266442","0.1640214383","0.1571594809","","","","","","","","","","","","","","72","H","0","img/none_selected.jpg","","123","main_expt",""
"","bandit","204","509774","0.0-165.0-0.0","31446547","wem/bandit_party_1","A3PYFNAED6X1BL","either","4","296","","","","","","","0","0","1","0.2373824638","","0.8","0.4","0.6","0.2","","","","","0.2373824638","0.2042850732","0.2014340991","0.2231804049","","","","","","","","","","72","H","0","img/none_selected.jpg","","124","main_expt",""
"","bandit","205","511629","0.0-166.0-0.0","31446547","wem/bandit_party_1","A3PYFNAED6X1BL","either","4","345","","","","","","","0","0","1","0.2538727107","","0.8","0.4","0.6","0.2","","","","","0.2538727107","0.1812515389","0.2229229076","0.2232794356","","","","","","","","","","72","H","0","img/none_selected.jpg","","125","main_expt",""
"","bandit","206","513493","0.0-167.0-0.0","31446547","wem/bandit_party_1","A3PYFNAED6X1BL","either","4","348","","","","","","","0","0","1","","0.290219491","0.8","0.4","0.6","0.2","0.290219491","0.1694736183","0.2324712723","0.2316903634","","","","","","","","","","","","","","72","H","0","img/none_selected.jpg","","126","main_expt",""
"","bandit","207","515287","0.0-168.0-0.0","31446547","wem/bandit_party_1","A3PYFNAED6X1BL","either","4","279","","","","","","","0","0","1","","0.2337524142","0.8","0.4","0.6","0.2","0.2542505169","0.1624528765","0.2628391623","0.2337524142","","","","","","","","","","","","","","76","L","3","","","127","main_expt",""
"","bandit","208","517070","0.0-169.0-0.0","31446547","wem/bandit_party_1","A3PYFNAED6X1BL","either","4","265","","","","","","","0","0","1","","0.2654356302","0.8","0.4","0.6","0.2","0.2582316027","0.1632982916","0.2654356302","0.2198210178","","","","","","","","","","","","","","75","K","2","","","128","main_expt",""
"","bandit","209","518829","0.0-170.0-0.0","31446547","wem/bandit_party_1","A3PYFNAED6X1BL","either","4","245","","","","","","","0","1","0","","0.2264598068","0.8","0.4","0.6","0.2","0.3267566011","0.2264598068","0.2070569149","0.2280168395","","","","","","","","","","","","","","74","J","1","","","129","main_expt",""
"","bandit","210","520598","0.0-171.0-0.0","31446547","wem/bandit_party_1","A3PYFNAED6X1BL","either","4","261","","","","","","","0","0","1","","0.202760285","0.8","0.4","0.6","0.2","0.3323271388","0.202760285","0.2579182239","0.243895296","","","","","","","","","","","","","","74","J","1","","","130","main_expt",""
"","bandit","211","522429","0.0-172.0-0.0","31446547","wem/bandit_party_1","A3PYFNAED6X1BL","either","4","315","","","","","","","0","0","1","","0.1585094705","0.8","0.4","0.6","0.2","0.2666668646","0.1585094705","0.2329110821","0.2164454501","","","","","","","","","","","","","","74","J","1","","","131","main_expt",""
"","bandit","212","524063","0.0-173.0-0.0","31446547","wem/bandit_party_1","A3PYFNAED6X1BL","either","4","123","","","","","","","0","0","1","0.1304261544","","0.8","0.4","0.6","0.2","","","","","0.2359119393","0.1304261544","0.2400232435","0.200468731","","","","","","","","","","74","J","1","","","132","main_expt",""
"","bandit","213","525839","0.0-174.0-0.0","31446547","wem/bandit_party_1","A3PYFNAED6X1BL","either","4","260","","","","","","","0","0","1","0.2038597077","","0.8","0.4","0.6","0.2","","","","","0.2540740643","0.09339990826","0.2084798617","0.2038597077","","","","","","","","","","76","L","3","","","133","main_expt",""
"","bandit","214","527430","0.0-175.0-0.0","31446547","wem/bandit_party_1","A3PYFNAED6X1BL","either","4","81","","","","","","","0","1","0","","0.2034544","0.8","0.4","0.6","0.2","0.2414927735","0.08524612959","0.2034544","0.2263269307","","","","","","","","","","","","","","75","K","2","","","134","main_expt",""
"","bandit","215","529222","0.0-176.0-0.0","31446547","wem/bandit_party_1","A3PYFNAED6X1BL","either","4","278","","","","","","","0","0","1","","0.2088958693","0.8","0.4","0.6","0.2","0.2632369982","0.0622033461","0.2088958693","0.2686469146","","","","","","","","","","","","","","75","K","2","","","135","main_expt",""
"","bandit","216","531030","0.0-177.0-0.0","31446547","wem/bandit_party_1","A3PYFNAED6X1BL","either","4","296","","","","","","","0","0","1","0.2573758916","","0.8","0.4","0.6","0.2","","","","","0.3032623762","0.05632890875","0.2573758916","0.3170393738","","","","","","","","","","75","K","2","","","136","main_expt",""
"","bandit","217","532792","0.0-178.0-0.0","31446547","wem/bandit_party_1","A3PYFNAED6X1BL","either","4","244","","","","","","","0","0","1","","0.2467438462","0.8","0.4","0.6","0.2","0.2984046037","0.06052980877","0.2467438462","0.338962466","","","","","","","","","","","","","","75","K","2","","","137","main_expt",""
"","bandit","218","534358","0.0-179.0-0.0","31446547","wem/bandit_party_1","A3PYFNAED6X1BL","either","4","50","","","","","","","0","0","1","0.1038497792","","0.8","0.4","0.6","0.2","","","","","0.3110629865","0.1038497792","0.2221944767","0.3586643031","","","","","","","","","","74","J","1","","","138","main_expt",""
"","bandit","219","536017","0.0-180.0-0.0","31446547","wem/bandit_party_1","A3PYFNAED6X1BL","either","4","143","","","","","","","0","1","0","","0.3048373826","0.8","0.4","0.6","0.2","0.3048373826","0.08561062373","0.2750517365","0.3430902759","","","","","","","","","","","","","","72","H","0","img/none_selected.jpg","","139","main_expt",""
"","bandit","220","537784","0.0-181.0-0.0","31446547","wem/bandit_party_1","A3PYFNAED6X1BL","either","4","249","","","","","","","0","0","1","0.3163642845","","0.8","0.4","0.6","0.2","","","","","0.3163642845","0.08025295029","0.277474309","0.3777112835","","","","","","","","","","72","H","0","img/none_selected.jpg","","140","main_expt",""
"","bandit","221","539616","0.0-182.0-0.0","31446547","wem/bandit_party_1","A3PYFNAED6X1BL","either","4","322","","","","","","","1","0","0","0.2213861514","","0.8","0.4","0.6","0.2","","","","","0.2213861514","0.09309891757","0.2932007391","0.4276051364","","","","","","","","","","72","H","0","img/none_selected.jpg","","141","main_expt",""
"","bandit","222","541376","0.0-183.0-0.0","31446547","wem/bandit_party_1","A3PYFNAED6X1BL","either","4","242","","","","","","","0","0","1","0.2492613222","","0.8","0.4","0.6","0.2","","","","","0.2492613222","0.1107976638","0.3001807938","0.4312347149","","","","","","","","","","72","H","0","img/none_selected.jpg","","142","main_expt",""
"","bandit","223","543127","0.0-184.0-0.0","31446547","wem/bandit_party_1","A3PYFNAED6X1BL","either","4","234","","","","","","","0","0","1","0.2645663874","","0.8","0.4","0.6","0.2","","","","","0.2645663874","0.09575525052","0.3640878437","0.386657586","","","","","","","","","","72","H","0","img/none_selected.jpg","","143","main_expt",""
"","bandit","224","544959","0.0-185.0-0.0","31446547","wem/bandit_party_1","A3PYFNAED6X1BL","either","4","314","","","","","","","0","0","1","0.2928215939","","0.8","0.4","0.6","0.2","","","","","0.2928215939","0.07222794989","0.2706796495","0.3409851627","","","","","","","","","","72","H","0","img/none_selected.jpg","","144","main_expt",""
"","bandit","225","546746","0.0-186.0-0.0","31446547","wem/bandit_party_1","A3PYFNAED6X1BL","either","4","271","","","","","","","0","0","1","0.3178979655","","0.8","0.4","0.6","0.2","","","","","0.3178979655","0.03203798906","0.2359726437","0.3538709708","","","","","","","","","","72","H","0","img/none_selected.jpg","","145","main_expt",""
"","bandit","226","548535","0.0-187.0-0.0","31446547","wem/bandit_party_1","A3PYFNAED6X1BL","either","4","272","","","","","","","0","0","1","0.2850957273","","0.8","0.4","0.6","0.2","","","","","0.2850957273","0.03073079809","0.2200332621","0.2745956728","","","","","","","","","","72","H","0","img/none_selected.jpg","","146","main_expt",""
"","bandit","227","550074","0.0-188.0-0.0","31446547","wem/bandit_party_1","A3PYFNAED6X1BL","either","4","21","","","","","","","0","0","1","","0.2375793476","0.8","0.4","0.6","0.2","0.2483519338","0.05105424151","0.1957794229","0.2375793476","","","","","","","","","","","","","","76","L","3","","","147","main_expt",""
"","bandit","228","551874","0.0-189.0-0.0","31446547","wem/bandit_party_1","A3PYFNAED6X1BL","either","4","280","","","","","","","0","0","1","0.1790722045","","0.8","0.4","0.6","0.2","","","","","0.2309770791","0.04045355104","0.1790722045","0.2954602587","","","","","","","","","","75","K","2","","","148","main_expt",""
"","bandit","229","553520","0.0-190.0-0.0","31446547","wem/bandit_party_1","A3PYFNAED6X1BL","either","4","139","","","","","","","0","0","1","","0.06416506337","0.8","0.4","0.6","0.2","0.1759049641","0.06416506337","0.2189150546","0.3435099865","","","","","","","","","","","","","","74","J","1","","","149","main_expt",""
"","bandit","230","555271","0.0-191.0-0.0","31446547","wem/bandit_party_1","A3PYFNAED6X1BL","either","4","239","","","","","","","1","0","0","0.1910702346","","0.8","0.4","0.6","0.2","","","","","0.1910702346","0.07819388902","0.2119229637","0.268900415","","","","","","","","","","72","H","0","img/none_selected.jpg","","150","main_expt",""
"","bandit","231","557111","0.0-192.0-0.0","31446547","wem/bandit_party_1","A3PYFNAED6X1BL","either","4","325","","","","","","","1","0","0","0.1799178466","","0.8","0.4","0.6","0.2","","","","","0.1799178466","0.1186979887","0.2472398003","0.2326488896","","","","","","","","","","72","H","0","img/none_selected.jpg","","151","main_expt",""
"","bandit","232","558898","0.0-193.0-0.0","31446547","wem/bandit_party_1","A3PYFNAED6X1BL","either","4","267","","","","","","","0","0","1","","0.1826140084","0.8","0.4","0.6","0.2","0.1826140084","0.1084773402","0.2148428051","0.2768057641","","","","","","","","","","","","","","72","H","0","img/none_selected.jpg","","152","main_expt",""
"","bandit","233","560690","0.0-194.0-0.0","31446547","wem/bandit_party_1","A3PYFNAED6X1BL","either","4","272","","","","","","","0","0","1","0.147924298","","0.8","0.4","0.6","0.2","","","","","0.147924298","0.1314289417","0.1598057249","0.2997660112","","","","","","","","","","72","H","0","img/none_selected.jpg","","153","main_expt",""
"","bandit","234","562585","0.0-195.0-0.0","31446547","wem/bandit_party_1","A3PYFNAED6X1BL","either","4","376","","","","","","","0","0","1","0.1388357139","","0.8","0.4","0.6","0.2","","","","","0.1388357139","0.1354051011","0.1489099923","0.3196464983","","","","","","","","","","72","H","0","img/none_selected.jpg","","154","main_expt",""
"","bandit","235","564402","0.0-196.0-0.0","31446547","wem/bandit_party_1","A3PYFNAED6X1BL","either","4","297","","","","","","","0","0","1","0.1658398244","","0.8","0.4","0.6","0.2","","","","","0.1658398244","0.1085215933","0.1502541116","0.3141654429","","","","","","","","","","72","H","0","img/none_selected.jpg","","155","main_expt",""
"","bandit","236","566234","0.0-197.0-0.0","31446547","wem/bandit_party_1","A3PYFNAED6X1BL","either","4","313","","","","","","","0","0","1","0.1104921729","","0.8","0.4","0.6","0.2","","","","","0.1104921729","0.1383379057","0.1605084188","0.2667217688","","","","","","","","","","72","H","0","img/none_selected.jpg","","156","main_expt",""
"","bandit","237","568057","0.0-198.0-0.0","31446547","wem/bandit_party_1","A3PYFNAED6X1BL","either","4","308","","","","","","","0","0","1","","0.2867075714","0.8","0.4","0.6","0.2","0.09530810267","0.1428990181","0.1684101418","0.2867075714","","","","","","","","","","","","","","76","L","3","","","157","main_expt",""
"","bandit","238","569785","0.0-199.0-0.0","31446547","wem/bandit_party_1","A3PYFNAED6X1BL","either","4","210","","","","","","","1","0","0","0.1807688322","","0.8","0.4","0.6","0.2","","","","","0.1211627972","0.07455979893","0.1807688322","0.2788639118","","","","","","","","","","75","K","2","","","158","main_expt",""
"","bandit","239","571528","0.0-200.0-0.0","31446547","wem/bandit_party_1","A3PYFNAED6X1BL","either","4","236","","","","","","","0","0","1","0.1516426412","","0.8","0.4","0.6","0.2","","","","","0.1012897464","0.1009372764","0.1516426412","0.3020710819","","","","","","","","","","75","K","2","","","159","main_expt",""
"","bandit","240","573320","0.0-201.0-0.0","31446547","wem/bandit_party_1","A3PYFNAED6X1BL","either","4","282","","","","","","","0","0","1","","0.1638698877","0.8","0.4","0.6","0.2","0.1188035868","0.05118862797","0.1638698877","0.3404227007","","","","","","","","","","","","","","75","K","2","","","160","main_expt",""
"","bandit","241","575020","0.0-202.0-0.0","31446547","wem/bandit_party_1","A3PYFNAED6X1BL","either","4","182","","","","","","","0","0","1","","0.05265847637","0.8","0.4","0.6","0.2","0.1606836622","0.05265847637","0.1645359983","0.2876249865","","","","","","","","","","","","","","74","J","1","","","161","main_expt",""
"","bandit","242","576809","0.0-203.0-0.0","31446547","wem/bandit_party_1","A3PYFNAED6X1BL","either","4","280","","","","","","","0","0","1","0.1859884171","","0.8","0.4","0.6","0.2","","","","","0.1859884171","0.07938684611","0.2509918509","0.2401308511","","","","","","","","","","72","H","0","img/none_selected.jpg","","162","main_expt",""
"","bandit","243","578572","0.0-204.0-0.0","31446547","wem/bandit_party_1","A3PYFNAED6X1BL","either","4","244","","","","","","","0","1","0","","0.2486605046","0.8","0.4","0.6","0.2","0.2528258464","0.0970900163","0.1883685458","0.2486605046","","","","","","","","","","","","","","76","L","3","","","163","main_expt",""
"","bandit","244","580419","0.0-205.0-0.0","31446547","wem/bandit_party_1","A3PYFNAED6X1BL","either","4","330","","","","","","","0","0","1","0.2179532334","","0.8","0.4","0.6","0.2","","","","","0.2515292425","0.07401968201","0.2179532334","0.22675384","","","","","","","","","","75","K","2","","","164","main_expt",""
"","bandit","245","582106","0.0-206.0-0.0","31446547","wem/bandit_party_1","A3PYFNAED6X1BL","either","4","170","","","","","","","0","0","1","","0.2841151948","0.8","0.4","0.6","0.2","0.2068970429","0.06633104104","0.2143704678","0.2841151948","","","","","","","","","","","","","","76","L","3","","","165","main_expt",""
"","bandit","246","583907","0.0-207.0-0.0","31446547","wem/bandit_party_1","A3PYFNAED6X1BL","either","4","278","","","","","","","0","0","1","","0.2842980464","0.8","0.4","0.6","0.2","0.1413778631","0.05309652092","0.2175899085","0.2842980464","","","","","","","","","","","","","","76","L","3","","","166","main_expt",""
"","bandit","247","585651","0.0-208.0-0.0","31446547","wem/bandit_party_1","A3PYFNAED6X1BL","either","4","226","","","","","","","0","0","1","","0.07357446968","0.8","0.4","0.6","0.2","0.1999497975","0.07357446968","0.2137120923","0.3007590714","","","","","","","","","","","","","","74","J","1","","","167","main_expt",""
"","bandit","248","587426","0.0-209.0-0.0","31446547","wem/bandit_party_1","A3PYFNAED6X1BL","either","4","259","","","","","","","0","0","1","0.1696145944","","0.8","0.4","0.6","0.2","","","","","0.1696145944","0.1054325378","0.2331560811","0.2884936601","","","","","","","","","","72","H","0","img/none_selected.jpg","","168","main_expt",""
"","bandit","249","589211","0.0-210.0-0.0","31446547","wem/bandit_party_1","A3PYFNAED6X1BL","either","4","276","","","","","","","0","0","1","","0.2367963754","0.8","0.4","0.6","0.2","0.1338518967","0.08536867429","0.2367963754","0.2803439438","","","","","","","","","","","","","","75","K","2","","","169","main_expt",""
"","bandit","250","590781","0.0-211.0-0.0","31446547","wem/bandit_party_1","A3PYFNAED6X1BL","either","4","57","","","","","","","0","0","1","0.1083432756","","0.8","0.4","0.6","0.2","","","","","0.1307598277","0.1083432756","0.2378050175","0.3010437192","","","","","","","","","","74","J","1","","","170","main_expt",""
"","bandit","251","592427","0.0-212.0-0.0","31446547","wem/bandit_party_1","A3PYFNAED6X1BL","either","4","129","","","","","","","0","0","1","0.3243802095","","0.8","0.4","0.6","0.2","","","","","0.1200375331","0.09185370626","0.2253696972","0.3243802095","","","","","","","","","","76","L","3","","","171","main_expt",""
"","bandit","252","594251","0.0-213.0-0.0","31446547","wem/bandit_party_1","A3PYFNAED6X1BL","either","4","304","","","","","","","0","0","1","0.07514546963","","0.8","0.4","0.6","0.2","","","","","0.07514546963","0.09458096772","0.2903394368","0.3140094691","","","","","","","","","","72","H","0","img/none_selected.jpg","","172","main_expt",""
"","bandit","253","595780","0.0-214.0-0.0","31446547","wem/bandit_party_1","A3PYFNAED6X1BL","either","4","10","","","","","","","0","0","1","","0.1016296913","0.8","0.4","0.6","0.2","0.07704486673","0.1016296913","0.2384828248","0.2433770114","","","","","","","","","","","","","","74","J","1","","","173","main_expt",""
"","bandit","254","597596","0.0-215.0-0.0","31446547","wem/bandit_party_1","A3PYFNAED6X1BL","either","4","306","","","","","","","0","0","1","0.2823111034","","0.8","0.4","0.6","0.2","","","","","0.04061738922","0.117107939","0.2823111034","0.2080779891","","","","","","","","","","75","K","2","","","174","main_expt",""
"","bandit","255","600030","0.0-216.0-0.0","31446547","wem/bandit_party_1","A3PYFNAED6X1BL","either","4","912","","","","","","","1","0","0","0.2211365803","","0.8","0.4","0.6","0.2","","","","","0.02968316822","0.1254773658","0.292147578","0.2211365803","","","","","","","","","","76","L","3","","","175","main_expt",""
"","bandit","256","601851","0.0-217.0-0.0","31446547","wem/bandit_party_1","A3PYFNAED6X1BL","either","4","302","","","","","","","0","0","1","0.231280906","","0.8","0.4","0.6","0.2","","","","","0.04419366322","0.1518856622","0.2928295457","0.231280906","","","","","","","","","","76","L","3","","","176","main_expt",""
"","bandit","257","603629","0.0-218.0-0.0","31446547","wem/bandit_party_1","A3PYFNAED6X1BL","either","4","268","","","","","","","0","0","1","","0.1689881391","0.8","0.4","0.6","0.2","0.04140429262","0.1502483312","0.297241693","0.1689881391","","","","","","","","","","","","","","76","L","3","","","177","main_expt",""
"","bandit","258","605444","0.0-219.0-0.0","31446547","wem/bandit_party_1","A3PYFNAED6X1BL","either","4","296","","","","","","","0","0","1","","0.1699404395","0.8","0.4","0.6","0.2","0.06103489621","0.2073149786","0.276241128","0.1699404395","","","","","","","","","","","","","","76","L","3","","","178","main_expt",""
"","bandit","259","607458","0.0-220.0-0.0","31446547","wem/bandit_party_1","A3PYFNAED6X1BL","either","4","502","","","","","","","0","0","1","0.053608248","","0.8","0.4","0.6","0.2","","","","","0.053608248","0.1928578162","0.2405339857","0.1571972967","","","","","","","","","","72","H","0","img/none_selected.jpg","","179","main_expt",""
"","bandit","260","609156","0.0-221.0-0.0","31446547","wem/bandit_party_1","A3PYFNAED6X1BL","either","4","185","","","","","","","0","0","1","","0.1412953234","0.8","0.4","0.6","0.2","0.06289379635","0.1412953234","0.233428307","0.1567782565","","","","","","","","","","","","","","74","J","1","","","180","main_expt",""
"","bandit","261","611000","0.0-222.0-0.0","31446547","wem/bandit_party_1","A3PYFNAED6X1BL","either","4","323","","","","","","","1","0","0","0.1459310114","","0.8","0.4","0.6","0.2","","","","","0.07748386732","0.1258774719","0.1459310114","0.1492691696","","","","","","","","","","75","K","2","","","181","main_expt",""
"","bandit","262","612851","0.0-223.0-0.0","31446547","wem/bandit_party_1","A3PYFNAED6X1BL","either","4","333","","","","","","","0","0","1","0.1796360657","","0.8","0.4","0.6","0.2","","","","","0.096714051","0.1121960069","0.1796360657","0.1609613705","","","","","","","","","","75","K","2","","","182","main_expt",""
"","bandit","263","614637","0.0-224.0-0.0","31446547","wem/bandit_party_1","A3PYFNAED6X1BL","either","4","266","","","","","","","0","0","1","","0.1907874973","0.8","0.4","0.6","0.2","0.05351369794","0.08335286121","0.1907874973","0.1982891881","","","","","","","","","","","","","","75","K","2","","","183","main_expt",""
"","bandit","264","616476","0.0-225.0-0.0","31446547","wem/bandit_party_1","A3PYFNAED6X1BL","either","4","318","","","","","","","0","0","1","0.1451627339","","0.8","0.4","0.6","0.2","","","","","0.08854511538","0.1085923678","0.1451627339","0.1703318442","","","","","","","","","","75","K","2","","","184","main_expt",""
"","bandit","265","618276","0.0-226.0-0.0","31446547","wem/bandit_party_1","A3PYFNAED6X1BL","either","4","286","","","","","","","0","0","1","0.1692531577","","0.8","0.4","0.6","0.2","","","","","0.136385666","0.1113654269","0.1692531577","0.09566746086","","","","","","","","","","75","K","2","","","185","main_expt",""
"","bandit","266","620095","0.0-227.0-0.0","31446547","wem/bandit_party_1","A3PYFNAED6X1BL","either","4","304","","","","","","","0","0","1","","0.1254261761","0.8","0.4","0.6","0.2","0.1848043888","0.1383531569","0.1885113298","0.1254261761","","","","","","","","","","","","","","76","L","3","","","186","main_expt",""
"","bandit","267","621902","0.0-228.0-0.0","31446547","wem/bandit_party_1","A3PYFNAED6X1BL","either","4","286","","","","","","","1","0","0","0.1640989128","","0.8","0.4","0.6","0.2","","","","","0.1640989128","0.1739713275","0.2088125345","0.1081798115","","","","","","","","","","72","H","0","img/none_selected.jpg","","187","main_expt",""
"","bandit","268","623731","0.0-229.0-0.0","31446547","wem/bandit_party_1","A3PYFNAED6X1BL","either","4","321","","","","","","","0","0","1","0.1301402021","","0.8","0.4","0.6","0.2","","","","","0.1301402021","0.1926366302","0.2228369986","0.08529062399","","","","","","","","","","72","H","0","img/none_selected.jpg","","188","main_expt",""
"","bandit","269","626684","0.0-230.0-0.0","31446547","wem/bandit_party_1","A3PYFNAED6X1BL","either","4","1429","","","","","","","0","0","1","0.1980942663","","0.8","0.4","0.6","0.2","","","","","0.1980942663","0.2499935398","0.2567428292","0.07250281893","","","","","","","","","","72","H","0","img/none_selected.jpg","","189","main_expt",""
"","bandit","270","628452","0.0-231.0-0.0","31446547","wem/bandit_party_1","A3PYFNAED6X1BL","either","4","257","","","","","","","0","0","1","","0.2367317824","0.8","0.4","0.6","0.2","0.1842725295","0.2367317824","0.3177850294","0.07895395147","","","","","","","","","","","","","","74","J","1","","","190","main_expt",""
"","bandit","271","630469","0.0-232.0-0.0","31446547","wem/bandit_party_1","A3PYFNAED6X1BL","either","4","508","","","","","","","0","0","1","","0.06204701637","0.8","0.4","0.6","0.2","0.2087081259","0.2515026666","0.2876912335","0.06204701637","","","","","","","","","","","","","","76","L","3","","","191","main_expt",""
"","bandit","272","632328","0.0-233.0-0.0","31446547","wem/bandit_party_1","A3PYFNAED6X1BL","either","4","346","","","","","","","0","0","1","","0.2383873749","0.8","0.4","0.6","0.2","0.1800110976","0.2451916405","0.2383873749","0.064067899","","","","","","","","","","","","","","75","K","2","","","192","main_expt",""
"","bandit","273","634149","0.0-234.0-0.0","31446547","wem/bandit_party_1","A3PYFNAED6X1BL","either","4","307","","","","","","","0","1","0","","0.2353451433","0.8","0.4","0.6","0.2","0.1519186298","0.2353451433","0.24690957","0.1286650472","","","","","","","","","","","","","","74","J","1","","","193","main_expt",""
"","bandit","274","636054","0.0-235.0-0.0","31446547","wem/bandit_party_1","A3PYFNAED6X1BL","either","4","392","","","","","","","0","1","0","","0.307075739","0.8","0.4","0.6","0.2","0.1431656489","0.307075739","0.2728455101","0.1746490116","","","","","","","","","","","","","","74","J","1","","","194","main_expt",""
"","bandit","275","637942","0.0-236.0-0.0","31446547","wem/bandit_party_1","A3PYFNAED6X1BL","either","4","372","","","","","","","0","0","1","","0.3011001907","0.8","0.4","0.6","0.2","0.1868251083","0.3011001907","0.2421292151","0.129035247","","","","","","","","","","","","","","74","J","1","","","195","main_expt",""
"","bandit","276","639838","0.0-237.0-0.0","31446547","wem/bandit_party_1","A3PYFNAED6X1BL","either","4","385","","","","","","","0","0","1","","0.2861216794","0.8","0.4","0.6","0.2","0.176624335","0.2861216794","0.2598052724","0.09052040682","","","","","","","","","","","","","","74","J","1","","","196","main_expt",""
"","bandit","277","641695","0.0-238.0-0.0","31446547","wem/bandit_party_1","A3PYFNAED6X1BL","either","4","346","","","","","","","0","0","1","0.2121549007","","0.8","0.4","0.6","0.2","","","","","0.2383323772","0.2121549007","0.2540930088","0.08675464884","","","","","","","","","","74","J","1","","","197","main_expt",""
"","bandit","278","643542","0.0-239.0-0.0","31446547","wem/bandit_party_1","A3PYFNAED6X1BL","either","4","333","","","","","","","0","0","1","0.260618614","","0.8","0.4","0.6","0.2","","","","","0.260618614","0.260340052","0.2460150375","0.09429549835","","","","","","","","","","72","H","0","img/none_selected.jpg","","198","main_expt",""
"","bandit","279","645341","0.0-240.0-0.0","31446547","wem/bandit_party_1","A3PYFNAED6X1BL","either","4","285","","","","","","","0","0","1","","0.2217343644","0.8","0.4","0.6","0.2","0.2935067364","0.3009562829","0.2217343644","0.09303778716","","","","","","","","","","","","","","75","K","2","","","199","main_expt",""
"","bandit","280","647119","0.0-241.0-0.0","31446547","wem/bandit_party_1","A3PYFNAED6X1BL","either","4","256","","","","","","","0","0","1","","0.07354084322","0.8","0.4","0.6","0.2","0.362920627","0.3430896668","0.2830302048","0.07354084322","","","","","","","","","","","","","","76","L","3","","","200","main_expt",""
"","bandit","281","648920","0.0-242.0-0.0","31446547","wem/bandit_party_1","A3PYFNAED6X1BL","either","4","279","","","","","","","0","0","1","0.2973668079","","0.8","0.4","0.6","0.2","","","","","0.3119044903","0.2973668079","0.3175621279","0.08115367452","","","","","","","","","","74","J","1","","","201","main_expt",""
"","bandit","282","650737","0.0-243.0-0.0","31446547","wem/bandit_party_1","A3PYFNAED6X1BL","either","4","294","","","","","","","1","0","0","0.3049471546","","0.8","0.4","0.6","0.2","","","","","0.3095695708","0.3219337599","0.3049471546","0.0774842685","","","","","","","","","","75","K","2","","","202","main_expt",""
"","bandit","283","652519","0.0-244.0-0.0","31446547","wem/bandit_party_1","A3PYFNAED6X1BL","either","4","259","","","","","","","0","0","1","0.2975042969","","0.8","0.4","0.6","0.2","","","","","0.3005459379","0.3229991028","0.2975042969","0.09704724367","","","","","","","","","","75","K","2","","","203","main_expt",""
"","bandit","284","654347","0.0-245.0-0.0","31446547","wem/bandit_party_1","A3PYFNAED6X1BL","either","4","314","","","","","","","0","0","1","0.2268457719","","0.8","0.4","0.6","0.2","","","","","0.3116824409","0.3077995671","0.2268457719","0.1224111047","","","","","","","","","","75","K","2","","","204","main_expt",""
"","bandit","285","656177","0.0-246.0-0.0","31446547","wem/bandit_party_1","A3PYFNAED6X1BL","either","4","310","","","","","","","0","0","1","0.2582085449","","0.8","0.4","0.6","0.2","","","","","0.3291635812","0.3070199156","0.2582085449","0.1627664319","","","","","","","","","","75","K","2","","","205","main_expt",""
"","bandit","286","657990","0.0-247.0-0.0","31446547","wem/bandit_party_1","A3PYFNAED6X1BL","either","4","298","","","","","","","0","0","1","0.2841247045","","0.8","0.4","0.6","0.2","","","","","0.4008790519","0.3109683939","0.2841247045","0.1604236747","","","","","","","","","","75","K","2","","","206","main_expt",""
"","bandit","287","659688","0.0-248.0-0.0","31446547","wem/bandit_party_1","A3PYFNAED6X1BL","either","4","183","","","","","","","1","0","0","0.4202180382","","0.8","0.4","0.6","0.2","","","","","0.4202180382","0.2845075958","0.3333225396","0.126388554","","","","","","","","","","72","H","0","img/none_selected.jpg","","207","main_expt",""
"","bandit","288","661520","0.0-249.0-0.0","31446547","wem/bandit_party_1","A3PYFNAED6X1BL","either","4","305","","","","","","","1","0","0","0.4168586074","","0.8","0.4","0.6","0.2","","","","","0.4168586074","0.2419557814","0.290219871","0.1602309633","","","","","","","","","","72","H","0","img/none_selected.jpg","","208","main_expt",""
"","bandit","289","663359","0.0-250.0-0.0","31446547","wem/bandit_party_1","A3PYFNAED6X1BL","either","4","320","","","","","","","0","0","1","0.3949328033","","0.8","0.4","0.6","0.2","","","","","0.3949328033","0.2449545816","0.3426384504","0.2009997365","","","","","","","","","","72","H","0","img/none_selected.jpg","","209","main_expt",""
"","bandit","290","665199","0.0-251.0-0.0","31446547","wem/bandit_party_1","A3PYFNAED6X1BL","either","4","320","","","","","","","0","0","1","0.41782505","","0.8","0.4","0.6","0.2","","","","","0.41782505","0.2176860071","0.2932754766","0.1997114924","","","","","","","","","","72","H","0","img/none_selected.jpg","","210","main_expt",""
"","bandit","291","666999","0.0-252.0-0.0","31446547","wem/bandit_party_1","A3PYFNAED6X1BL","either","4","288","","","","","","","0","0","1","0.4377941382","","0.8","0.4","0.6","0.2","","","","","0.4377941382","0.2460847292","0.2522206247","0.2631807131","","","","","","","","","","72","H","0","img/none_selected.jpg","","211","main_expt",""
"","bandit","292","668776","0.0-253.0-0.0","31446547","wem/bandit_party_1","A3PYFNAED6X1BL","either","4","267","","","","","","","0","0","1","0.4619006446","","0.8","0.4","0.6","0.2","","","","","0.4619006446","0.2017704833","0.2323705111","0.2008991105","","","","","","","","","","72","H","0","img/none_selected.jpg","","212","main_expt",""
"","bandit","293","670593","0.0-254.0-0.0","31446547","wem/bandit_party_1","A3PYFNAED6X1BL","either","4","298","","","","","","","0","0","1","0.4508737721","","0.8","0.4","0.6","0.2","","","","","0.4508737721","0.1891715169","0.2815580385","0.1656487101","","","","","","","","","","72","H","0","img/none_selected.jpg","","213","main_expt",""
"","bandit","294","672312","0.0-255.0-0.0","31446547","wem/bandit_party_1","A3PYFNAED6X1BL","either","4","196","","","","","","","0","0","1","","0.4639731149","0.8","0.4","0.6","0.2","0.4639731149","0.1819308411","0.2955812139","0.213788386","","","","","","","","","","","","","","72","H","0","img/none_selected.jpg","","214","main_expt",""
"","bandit","295","674145","0.0-256.0-0.0","31446547","wem/bandit_party_1","A3PYFNAED6X1BL","either","4","311","","","","","","","0","0","1","","0.2206736926","0.8","0.4","0.6","0.2","0.4690757113","0.1406935411","0.2988647484","0.2206736926","","","","","","","","","","","","","","76","L","3","","","215","main_expt",""
"","bandit","296","675867","0.0-257.0-0.0","31446547","wem/bandit_party_1","A3PYFNAED6X1BL","either","4","211","","","","","","","0","0","1","","0.3361974059","0.8","0.4","0.6","0.2","0.4685680314","0.206739756","0.3361974059","0.2270120675","","","","","","","","","","","","","","75","K","2","","","216","main_expt",""
"","bandit","297","677592","0.0-258.0-0.0","31446547","wem/bandit_party_1","A3PYFNAED6X1BL","either","4","203","","","","","","","0","0","1","","0.178624692","0.8","0.4","0.6","0.2","0.4873952874","0.178624692","0.2764506131","0.2561581829","","","","","","","","","","","","","","74","J","1","","","217","main_expt",""
"","bandit","298","679417","0.0-259.0-0.0","31446547","wem/bandit_party_1","A3PYFNAED6X1BL","either","4","304","","","","","","","0","0","1","0.4790671899","","0.8","0.4","0.6","0.2","","","","","0.4790671899","0.2021641755","0.299893698","0.2785758431","","","","","","","","","","72","H","0","img/none_selected.jpg","","218","main_expt",""
"","bandit","299","681211","0.0-260.0-0.0","31446547","wem/bandit_party_1","A3PYFNAED6X1BL","either","4","270","","","","","","","0","1","0","","0.2707863597","0.8","0.4","0.6","0.2","0.4769795117","0.2076996705","0.3213687962","0.2707863597","","","","","","","","","","","","","","76","L","3","","","219","main_expt",""
"","bandit","300","683083","0.0-261.0-0.0","31446547","wem/bandit_party_1","A3PYFNAED6X1BL","either","4","346","","","","","","","0","0","1","0.2262269101","","0.8","0.4","0.6","0.2","","","","","0.4746148145","0.2479045362","0.3782095139","0.2262269101","","","","","","","","","","76","L","3","","","220","main_expt",""
"","bandit","301","684929","0.0-262.0-0.0","31446547","wem/bandit_party_1","A3PYFNAED6X1BL","either","4","328","","","","","","","0","0","1","","0.2522421151","0.8","0.4","0.6","0.2","0.4789253058","0.251163546","0.3572699546","0.2522421151","","","","","","","","","","","","","","76","L","3","","","221","main_expt",""
"","bandit","302","686683","0.0-263.0-0.0","31446547","wem/bandit_party_1","A3PYFNAED6X1BL","either","4","240","","","","","","","0","0","1","","0.332217079","0.8","0.4","0.6","0.2","0.4765400837","0.2653622565","0.332217079","0.2323100388","","","","","","","","","","","","","","75","K","2","","","222","main_expt",""
"","bandit","303","688450","0.0-264.0-0.0","31446547","wem/bandit_party_1","A3PYFNAED6X1BL","either","4","254","","","","","","","0","0","1","","0.2034578964","0.8","0.4","0.6","0.2","0.4872993944","0.2034578964","0.3327789551","0.2013525365","","","","","","","","","","","","","","74","J","1","","","223","main_expt",""
"","bandit","304","690273","0.0-265.0-0.0","31446547","wem/bandit_party_1","A3PYFNAED6X1BL","either","4","313","","","","","","","0","0","1","0.4864577786","","0.8","0.4","0.6","0.2","","","","","0.4864577786","0.1176985371","0.3720138676","0.2017363432","","","","","","","","","","72","H","0","img/none_selected.jpg","","224","main_expt",""
"","bandit","305","692059","0.0-266.0-0.0","31446547","wem/bandit_party_1","A3PYFNAED6X1BL","either","4","262","","","","","","","0","0","1","","0.1608447522","0.8","0.4","0.6","0.2","0.4815865163","0.08531446518","0.4035982493","0.1608447522","","","","","","","","","","","","","","76","L","3","","","225","main_expt",""
"","bandit","306","693706","0.0-267.0-0.0","31446547","wem/bandit_party_1","A3PYFNAED6X1BL","either","4","130","","","","","","","0","1","0","","0.3538577565","0.8","0.4","0.6","0.2","0.4781941344","0.0901010045","0.3538577565","0.2023183299","","","","","","","","","","","","","","75","K","2","","","226","main_expt",""
"","bandit","307","695513","0.0-268.0-0.0","31446547","wem/bandit_party_1","A3PYFNAED6X1BL","either","4","298","","","","","","","0","1","0","","0.4205879778","0.8","0.4","0.6","0.2","0.4742279627","0.06499555022","0.4205879778","0.1555458008","","","","","","","","","","","","","","75","K","2","","","227","main_expt",""
"","bandit","308","697275","0.0-269.0-0.0","31446547","wem/bandit_party_1","A3PYFNAED6X1BL","either","4","241","","","","","","","0","0","1","0.4082381823","","0.8","0.4","0.6","0.2","","","","","0.4597327255","0.06967502077","0.4082381823","0.1210896773","","","","","","","","","","75","K","2","","","228","main_expt",""
"","bandit","309","699123","0.0-270.0-0.0","31446547","wem/bandit_party_1","A3PYFNAED6X1BL","either","4","324","","","","","","","0","0","1","","0.07642173418","0.8","0.4","0.6","0.2","0.4733003713","0.07642173418","0.4274963613","0.1206830913","","","","","","","","","","","","","","74","J","1","","","229","main_expt",""
"","bandit","310","700995","0.0-271.0-0.0","31446547","wem/bandit_party_1","A3PYFNAED6X1BL","either","4","349","","","","","","","0","0","1","","0.4832022084","0.8","0.4","0.6","0.2","0.4832022084","0.04973788902","0.4362488765","0.1334008039","","","","","","","","","","","","","","72","H","0","img/none_selected.jpg","","230","main_expt",""
"","bandit","311","702818","0.0-272.0-0.0","31446547","wem/bandit_party_1","A3PYFNAED6X1BL","either","4","300","","","","","","","0","0","1","","0.1048467088","0.8","0.4","0.6","0.2","0.4802630573","0.07419495466","0.4420629534","0.1048467088","","","","","","","","","","","","","","76","L","3","","","231","main_expt",""
"","bandit","312","704522","0.0-273.0-0.0","31446547","wem/bandit_party_1","A3PYFNAED6X1BL","either","4","183","","","","","","","0","0","1","","0.4287414635","0.8","0.4","0.6","0.2","0.4739318499","0.08125260149","0.4287414635","0.1184002818","","","","","","","","","","","","","","75","K","2","","","232","main_expt",""
"","bandit","313","706414","0.0-274.0-0.0","31446547","wem/bandit_party_1","A3PYFNAED6X1BL","either","4","368","","","","","","","0","1","0","","0.06057073796","0.8","0.4","0.6","0.2","0.4709765286","0.06057073796","0.4395511981","0.08533064469","","","","","","","","","","","","","","74","J","1","","","233","main_expt",""
"","bandit","314","708293","0.0-275.0-0.0","31446547","wem/bandit_party_1","A3PYFNAED6X1BL","either","4","365","","","","","","","0","0","1","0.1037411708","","0.8","0.4","0.6","0.2","","","","","0.4658145356","0.1037411708","0.4479240545","0.1190123434","","","","","","","","","","74","J","1","","","234","main_expt",""
