"consent","trial_type","trial_index","time_elapsed","internal_node_id","subjID","study","MID","cond","drift","rt","responses","button_pressed","key_press","like","value","connected","gems","bombs","no_reward","GemPrChosen","BombPrChosen","GainOverPainPr_0","GainOverPainPr_1","GainOverPainPr_2","GainOverPainPr_3","LosePr_0","LosePr_1","LosePr_2","LosePr_3","WinPr_0","WinPr_1","WinPr_2","WinPr_3","Q0","Q1","Q2","gender","age","ethnicity","label","expt_phase","target","respCharCode","respKey","respChoiceNum","respChoice","practice","trial_counter","trial_label","Q0_index"
"GDM/GDM_behavioral_consent_30min_online.html","consent","0","10927","0.0-0.0","31703130","wem/bandit_party_1","AM0X2DZF3F2E3","either","2","","","","","","","","","","","","","","","","","","","","","","","","","","","","","","","","","","","","","","","","",""
"","survey-text","1","18099","0.0-1.0","31703130","wem/bandit_party_1","AM0X2DZF3F2E3","either","2","6165","{""Q0"":""AM0X2DZF3F2E3""}","","","","","","","","","","","","","","","","","","","","","","","","","","","","","","","","","","","","","","",""
"","button-response","2","20892","0.0-2.0","31703130","wem/bandit_party_1","AM0X2DZF3F2E3","either","2","1790","","1","","","","","","","","","","","","","","","","","","","","","","","","","","","","","","","","","","","","","",""
"","text-replacement","3","31925","0.0-3.0","31703130","wem/bandit_party_1","AM0X2DZF3F2E3","either","2","10030","","","32","","","","","","","","","","","","","","","","","","","","","","","","","","","","","","","","","","","","",""
"","text-replacement","4","39988","0.0-4.0","31703130","wem/bandit_party_1","AM0X2DZF3F2E3","either","2","8061","","","32","","","","","","","","","","","","","","","","","","","","","","","","","","","","","","","","","","","","",""
"","identification","5","51682","0.0-6.0-0.0","31703130","wem/bandit_party_1","AM0X2DZF3F2E3","either","2","11686","","","","0","1","0","","","","","","","","","","","","","","","","","","","","","","","","pre","identification_pre","the Republican party","","","","","","","",""
"","identification","6","58790","0.0-6.0-1.0","31703130","wem/bandit_party_1","AM0X2DZF3F2E3","either","2","6100","","","","3","3","3","","","","","","","","","","","","","","","","","","","","","","","","pre","identification_pre","the Democratic Party","","","","","","","",""
"","text-replacement","7","64613","0.0-7.0","31703130","wem/bandit_party_1","AM0X2DZF3F2E3","either","2","4820","","","32","","","","","","","","","","","","","","","","","","","","","","","","","","","","","","","","","","","","",""
"","text-replacement","8","71415","0.0-8.0","31703130","wem/bandit_party_1","AM0X2DZF3F2E3","either","2","6799","","","32","","","","","","","","","","","","","","","","","","","","","","","","","","","","","","","","","","","","",""
"","text-replacement","9","79677","0.0-9.0","31703130","wem/bandit_party_1","AM0X2DZF3F2E3","either","2","8260","","","32","","","","","","","","","","","","","","","","","","","","","","","","","","","","","","","","","","","","",""
"","text-replacement","10","84357","0.0-10.0","31703130","wem/bandit_party_1","AM0X2DZF3F2E3","either","2","4680","","","32","","","","","","","","","","","","","","","","","","","","","","","","","","","","","","","","","","","","",""
"","text-replacement","11","90598","0.0-11.0","31703130","wem/bandit_party_1","AM0X2DZF3F2E3","either","2","6240","","","32","","","","","","","","","","","","","","","","","","","","","","","","","","","","","","","","","","","","",""
"","bandit","12","93541","0.0-12.0-0.0","31703130","wem/bandit_party_1","AM0X2DZF3F2E3","either","2","1435","","","","","","","0","0","1","0","0","","","","","0","","","","0","","","","","","","","","","","","","74","J","0","img/none_selected_demo.jpg","true","0","",""
"","bandit","13","95573","0.0-13.0-0.0","31703130","wem/bandit_party_1","AM0X2DZF3F2E3","either","2","525","","","","","","","0","0","1","0","0","","","","","0","","","","0","","","","","","","","","","","","","75","K","0","img/none_selected_demo.jpg","true","0","",""
"","text-replacement","14","119341","0.0-14.0","31703130","wem/bandit_party_1","AM0X2DZF3F2E3","either","2","23767","","","32","","","","","","","","","","","","","","","","","","","","","","","","","","","","","","","","","","","","",""
"","text-replacement","15","123789","0.0-15.0","31703130","wem/bandit_party_1","AM0X2DZF3F2E3","either","2","4446","","","32","","","","","","","","","","","","","","","","","","","","","","","","","","","","","","","","","","","","",""
"","text-replacement","16","130414","0.0-16.0","31703130","wem/bandit_party_1","AM0X2DZF3F2E3","either","2","6624","","","32","","","","","","","","","","","","","","","","","","","","","","","","","","","","","","","","","","","","",""
"","text-replacement","17","133829","0.0-17.0","31703130","wem/bandit_party_1","AM0X2DZF3F2E3","either","2","3413","","","32","","","","","","","","","","","","","","","","","","","","","","","","","","","","","","","","","","","","",""
"","bandit","18","136140","0.0-18.0-0.0","31703130","wem/bandit_party_1","AM0X2DZF3F2E3","either","2","805","","","","","","","1","0","0","0.8","","0.5","0.5","","","","","","","0.8","0.2","","","","","","","","","","","","74","J","0","img/none_selected_demo.jpg","true","0","80_20_practice",""
"","bandit","19","138002","0.0-18.0-1.0","31703130","wem/bandit_party_1","AM0X2DZF3F2E3","either","2","359","","","","","","","0","0","1","0.8","","0.5","0.5","","","","","","","0.8","0.2","","","","","","","","","","","","74","J","0","img/none_selected_demo.jpg","true","0","80_20_practice",""
"","bandit","20","139731","0.0-18.0-2.0","31703130","wem/bandit_party_1","AM0X2DZF3F2E3","either","2","224","","","","","","","0","0","1","","0.2","0.5","0.5","","","0.8","0.2","","","","","","","","","","","","","","","","75","K","1","","true","0","80_20_practice",""
"","bandit","21","143036","0.0-18.0-3.0","31703130","wem/bandit_party_1","AM0X2DZF3F2E3","either","2","1801","","","","","","","0","0","1","","0.2","0.5","0.5","","","0.8","0.2","","","","","","","","","","","","","","","","75","K","1","","true","0","80_20_practice",""
"","bandit","22","144803","0.0-18.0-4.0","31703130","wem/bandit_party_1","AM0X2DZF3F2E3","either","2","263","","","","","","","0","0","1","","0.8","0.5","0.5","","","0.8","0.2","","","","","","","","","","","","","","","","74","J","0","img/none_selected_demo.jpg","true","0","80_20_practice",""
"","bandit","23","146595","0.0-18.0-5.0","31703130","wem/bandit_party_1","AM0X2DZF3F2E3","either","2","288","","","","","","","0","0","1","0.8","","0.5","0.5","","","","","","","0.8","0.2","","","","","","","","","","","","74","J","0","img/none_selected_demo.jpg","true","0","80_20_practice",""
"","bandit","24","148309","0.0-18.0-6.0","31703130","wem/bandit_party_1","AM0X2DZF3F2E3","either","2","207","","","","","","","0","1","0","","0.8","0.5","0.5","","","0.8","0.2","","","","","","","","","","","","","","","","74","J","0","img/none_selected_demo.jpg","true","0","80_20_practice",""
"","bandit","25","150060","0.0-18.0-7.0","31703130","wem/bandit_party_1","AM0X2DZF3F2E3","either","2","245","","","","","","","0","0","1","0.2","","0.5","0.5","","","","","","","0.8","0.2","","","","","","","","","","","","75","K","1","","true","0","80_20_practice",""
"","bandit","26","151803","0.0-18.0-8.0","31703130","wem/bandit_party_1","AM0X2DZF3F2E3","either","2","238","","","","","","","0","1","0","","0.2","0.5","0.5","","","0.8","0.2","","","","","","","","","","","","","","","","75","K","1","","true","0","80_20_practice",""
"","bandit","27","153517","0.0-18.0-9.0","31703130","wem/bandit_party_1","AM0X2DZF3F2E3","either","2","209","","","","","","","0","0","1","0.2","","0.5","0.5","","","","","","","0.8","0.2","","","","","","","","","","","","75","K","1","","true","0","80_20_practice",""
"","bandit","28","155266","0.0-18.0-10.0","31703130","wem/bandit_party_1","AM0X2DZF3F2E3","either","2","246","","","","","","","0","0","1","0.2","","0.5","0.5","","","","","","","0.8","0.2","","","","","","","","","","","","75","K","1","","true","0","80_20_practice",""
"","bandit","29","156998","0.0-18.0-11.0","31703130","wem/bandit_party_1","AM0X2DZF3F2E3","either","2","225","","","","","","","0","0","1","0.8","","0.5","0.5","","","","","","","0.8","0.2","","","","","","","","","","","","74","J","0","img/none_selected_demo.jpg","true","0","80_20_practice",""
"","bandit","30","158755","0.0-18.0-12.0","31703130","wem/bandit_party_1","AM0X2DZF3F2E3","either","2","253","","","","","","","0","1","0","","0.8","0.5","0.5","","","0.8","0.2","","","","","","","","","","","","","","","","74","J","0","img/none_selected_demo.jpg","true","0","80_20_practice",""
"","bandit","31","160643","0.0-18.0-13.0","31703130","wem/bandit_party_1","AM0X2DZF3F2E3","either","2","383","","","","","","","1","0","0","0.8","","0.5","0.5","","","","","","","0.8","0.2","","","","","","","","","","","","74","J","0","img/none_selected_demo.jpg","true","0","80_20_practice",""
"","bandit","32","162331","0.0-18.0-14.0","31703130","wem/bandit_party_1","AM0X2DZF3F2E3","either","2","182","","","","","","","0","0","1","","0.8","0.5","0.5","","","0.8","0.2","","","","","","","","","","","","","","","","74","J","0","img/none_selected_demo.jpg","true","0","80_20_practice",""
"","bandit","33","164387","0.0-18.0-15.0","31703130","wem/bandit_party_1","AM0X2DZF3F2E3","either","2","551","","","","","","","0","1","0","","0.8","0.5","0.5","","","0.8","0.2","","","","","","","","","","","","","","","","74","J","0","img/none_selected_demo.jpg","true","0","80_20_practice",""
"","bandit","34","166355","0.0-18.0-16.0","31703130","wem/bandit_party_1","AM0X2DZF3F2E3","either","2","464","","","","","","","0","1","0","","0.8","0.5","0.5","","","0.8","0.2","","","","","","","","","","","","","","","","74","J","0","img/none_selected_demo.jpg","true","0","80_20_practice",""
"","bandit","35","168371","0.0-18.0-17.0","31703130","wem/bandit_party_1","AM0X2DZF3F2E3","either","2","512","","","","","","","0","1","0","","0.8","0.5","0.5","","","0.8","0.2","","","","","","","","","","","","","","","","74","J","0","img/none_selected_demo.jpg","true","0","80_20_practice",""
"","bandit","36","170084","0.0-18.0-18.0","31703130","wem/bandit_party_1","AM0X2DZF3F2E3","either","2","207","","","","","","","1","0","0","0.8","","0.5","0.5","","","","","","","0.8","0.2","","","","","","","","","","","","74","J","0","img/none_selected_demo.jpg","true","0","80_20_practice",""
"","bandit","37","171859","0.0-18.0-19.0","31703130","wem/bandit_party_1","AM0X2DZF3F2E3","either","2","270","","","","","","","1","0","0","0.8","","0.5","0.5","","","","","","","0.8","0.2","","","","","","","","","","","","74","J","0","img/none_selected_demo.jpg","true","0","80_20_practice",""
"","text-replacement","38","175646","0.0-19.0","31703130","wem/bandit_party_1","AM0X2DZF3F2E3","either","2","3787","","","32","","","","","","","","","","","","","","","","","","","","","","","","","","","","","","","","","","","","",""
"","bandit","39","177730","0.0-20.0-0.0","31703130","wem/bandit_party_1","AM0X2DZF3F2E3","either","2","579","","","","","","","1","0","0","1","0","","","","","0","1","","","1","0","","","","","","","","","","","","74","J","0","img/none_selected_demo.jpg","true","0","",""
"","text-replacement","40","188758","0.0-21.0","31703130","wem/bandit_party_1","AM0X2DZF3F2E3","either","2","11027","","","32","","","","","","","","","","","","","","","","","","","","","","","","","","","","","","","","","","","","",""
"","text-replacement","41","203542","0.0-22.0","31703130","wem/bandit_party_1","AM0X2DZF3F2E3","either","2","14781","","","32","","","","","","","","","","","","","","","","","","","","","","","","","","","","","","","","","","","","",""
"","text-replacement","42","207477","0.0-23.0","31703130","wem/bandit_party_1","AM0X2DZF3F2E3","either","2","3933","","","32","","","","","","","","","","","","","","","","","","","","","","","","","","","","","","","","","","","","",""
"","text-replacement","43","209893","0.0-24.0","31703130","wem/bandit_party_1","AM0X2DZF3F2E3","either","2","2414","","","32","","","","","","","","","","","","","","","","","","","","","","","","","","","","","","","","","","","","",""
"","text-replacement","44","215605","0.0-25.0","31703130","wem/bandit_party_1","AM0X2DZF3F2E3","either","2","5711","","","32","","","","","","","","","","","","","","","","","","","","","","","","","","","","","","","","","","","","",""
"","text-replacement","45","219861","0.0-26.0","31703130","wem/bandit_party_1","AM0X2DZF3F2E3","either","2","4254","","","32","","","","","","","","","","","","","","","","","","","","","","","","","","","","","","","","","","","","",""
"","text-replacement","46","223589","0.0-27.0","31703130","wem/bandit_party_1","AM0X2DZF3F2E3","either","2","3726","","","32","","","","","","","","","","","","","","","","","","","","","","","","","","","","","","","","","","","","",""
"","text-replacement","47","227341","0.0-28.0","31703130","wem/bandit_party_1","AM0X2DZF3F2E3","either","2","3751","","","32","","","","","","","","","","","","","","","","","","","","","","","","","","","","","","","","","","","","",""
"","text-replacement","48","230909","0.0-29.0","31703130","wem/bandit_party_1","AM0X2DZF3F2E3","either","2","3565","","","32","","","","","","","","","","","","","","","","","","","","","","","","","","","","","","","","","","","","",""
"","text-replacement","49","233532","0.0-30.0","31703130","wem/bandit_party_1","AM0X2DZF3F2E3","either","2","2623","","","32","","","","","","","","","","","","","","","","","","","","","","","","","","","","","","","","","","","","",""
"","text-replacement","50","235236","0.0-31.0","31703130","wem/bandit_party_1","AM0X2DZF3F2E3","either","2","1703","","","32","","","","","","","","","","","","","","","","","","","","","","","","","","","","","","","","","","","","",""
"","bandit","51","237347","0.0-32.0-0.0","31703130","wem/bandit_party_1","AM0X2DZF3F2E3","either","2","606","","","","","","","0","1","0","","0.8","0.5","0.5","0.5","0.5","0.8","0.2","0.6","0.2","","","","","","","","","","","","","","72","H","0","img/none_selected.jpg","true","0","full_practice",""
"","bandit","52","239108","0.0-32.0-1.0","31703130","wem/bandit_party_1","AM0X2DZF3F2E3","either","2","255","","","","","","","0","0","1","0.2","","0.5","0.5","0.5","0.5","","","","","0.8","0.2","0.6","0.2","","","","","","","","","","74","J","1","","true","0","full_practice",""
"","bandit","53","240748","0.0-32.0-2.0","31703130","wem/bandit_party_1","AM0X2DZF3F2E3","either","2","131","","","","","","","0","0","1","0.6","","0.5","0.5","0.5","0.5","","","","","0.8","0.2","0.6","0.2","","","","","","","","","","75","K","2","","true","0","full_practice",""
"","bandit","54","242707","0.0-32.0-3.0","31703130","wem/bandit_party_1","AM0X2DZF3F2E3","either","2","454","","","","","","","0","0","1","","0.2","0.5","0.5","0.5","0.5","0.8","0.2","0.6","0.2","","","","","","","","","","","","","","76","L","3","","true","0","full_practice",""
"","bandit","55","244277","0.0-32.0-4.0","31703130","wem/bandit_party_1","AM0X2DZF3F2E3","either","2","61","","","","","","","0","1","0","","0.8","0.5","0.5","0.5","0.5","0.8","0.2","0.6","0.2","","","","","","","","","","","","","","72","H","0","img/none_selected.jpg","true","0","full_practice",""
"","bandit","56","246044","0.0-32.0-5.0","31703130","wem/bandit_party_1","AM0X2DZF3F2E3","either","2","260","","","","","","","1","0","0","0.8","","0.5","0.5","0.5","0.5","","","","","0.8","0.2","0.6","0.2","","","","","","","","","","72","H","0","img/none_selected.jpg","true","0","full_practice",""
"","bandit","57","247803","0.0-32.0-6.0","31703130","wem/bandit_party_1","AM0X2DZF3F2E3","either","2","254","","","","","","","1","0","0","0.8","","0.5","0.5","0.5","0.5","","","","","0.8","0.2","0.6","0.2","","","","","","","","","","72","H","0","img/none_selected.jpg","true","0","full_practice",""
"","bandit","58","249509","0.0-32.0-7.0","31703130","wem/bandit_party_1","AM0X2DZF3F2E3","either","2","200","","","","","","","1","0","0","0.8","","0.5","0.5","0.5","0.5","","","","","0.8","0.2","0.6","0.2","","","","","","","","","","72","H","0","img/none_selected.jpg","true","0","full_practice",""
"","bandit","59","251556","0.0-32.0-8.0","31703130","wem/bandit_party_1","AM0X2DZF3F2E3","either","2","541","","","","","","","0","0","1","0.8","","0.5","0.5","0.5","0.5","","","","","0.8","0.2","0.6","0.2","","","","","","","","","","72","H","0","img/none_selected.jpg","true","0","full_practice",""
"","bandit","60","253363","0.0-32.0-9.0","31703130","wem/bandit_party_1","AM0X2DZF3F2E3","either","2","302","","","","","","","0","1","0","","0.8","0.5","0.5","0.5","0.5","0.8","0.2","0.6","0.2","","","","","","","","","","","","","","72","H","0","img/none_selected.jpg","true","0","full_practice",""
"","bandit","61","255109","0.0-32.0-10.0","31703130","wem/bandit_party_1","AM0X2DZF3F2E3","either","2","240","","","","","","","1","0","0","0.8","","0.5","0.5","0.5","0.5","","","","","0.8","0.2","0.6","0.2","","","","","","","","","","72","H","0","img/none_selected.jpg","true","0","full_practice",""
"","bandit","62","256787","0.0-32.0-11.0","31703130","wem/bandit_party_1","AM0X2DZF3F2E3","either","2","170","","","","","","","0","0","1","0.8","","0.5","0.5","0.5","0.5","","","","","0.8","0.2","0.6","0.2","","","","","","","","","","72","H","0","img/none_selected.jpg","true","0","full_practice",""
"","bandit","63","258426","0.0-32.0-12.0","31703130","wem/bandit_party_1","AM0X2DZF3F2E3","either","2","136","","","","","","","1","0","0","0.8","","0.5","0.5","0.5","0.5","","","","","0.8","0.2","0.6","0.2","","","","","","","","","","72","H","0","img/none_selected.jpg","true","0","full_practice",""
"","bandit","64","260165","0.0-32.0-13.0","31703130","wem/bandit_party_1","AM0X2DZF3F2E3","either","2","234","","","","","","","1","0","0","0.8","","0.5","0.5","0.5","0.5","","","","","0.8","0.2","0.6","0.2","","","","","","","","","","72","H","0","img/none_selected.jpg","true","0","full_practice",""
"","bandit","65","261891","0.0-32.0-14.0","31703130","wem/bandit_party_1","AM0X2DZF3F2E3","either","2","220","","","","","","","1","0","0","0.8","","0.5","0.5","0.5","0.5","","","","","0.8","0.2","0.6","0.2","","","","","","","","","","72","H","0","img/none_selected.jpg","true","0","full_practice",""
"","bandit","66","263398","0.0-32.0-15.0","31703130","wem/bandit_party_1","AM0X2DZF3F2E3","either","2","1","","","","","","","0","0","1","","0.8","0.5","0.5","0.5","0.5","0.8","0.2","0.6","0.2","","","","","","","","","","","","","","72","H","0","img/none_selected.jpg","true","0","full_practice",""
"","bandit","67","265140","0.0-32.0-16.0","31703130","wem/bandit_party_1","AM0X2DZF3F2E3","either","2","236","","","","","","","1","0","0","0.8","","0.5","0.5","0.5","0.5","","","","","0.8","0.2","0.6","0.2","","","","","","","","","","72","H","0","img/none_selected.jpg","true","0","full_practice",""
"","bandit","68","267020","0.0-32.0-17.0","31703130","wem/bandit_party_1","AM0X2DZF3F2E3","either","2","373","","","","","","","0","1","0","","0.8","0.5","0.5","0.5","0.5","0.8","0.2","0.6","0.2","","","","","","","","","","","","","","72","H","0","img/none_selected.jpg","true","0","full_practice",""
"","bandit","69","268748","0.0-32.0-18.0","31703130","wem/bandit_party_1","AM0X2DZF3F2E3","either","2","220","","","","","","","1","0","0","0.8","","0.5","0.5","0.5","0.5","","","","","0.8","0.2","0.6","0.2","","","","","","","","","","72","H","0","img/none_selected.jpg","true","0","full_practice",""
"","bandit","70","270404","0.0-32.0-19.0","31703130","wem/bandit_party_1","AM0X2DZF3F2E3","either","2","150","","","","","","","0","1","0","","0.8","0.5","0.5","0.5","0.5","0.8","0.2","0.6","0.2","","","","","","","","","","","","","","72","H","0","img/none_selected.jpg","true","0","full_practice",""
"","text","71","290573","0.0-33.0","31703130","wem/bandit_party_1","AM0X2DZF3F2E3","either","2","20162","","","32","","","","","","","","","","","","","","","","","","","","","","","","","","","","","","","","","","","","",""
"","text-replacement","72","305494","0.0-34.0","31703130","wem/bandit_party_1","AM0X2DZF3F2E3","either","2","13917","","","32","","","","","","","","","","","","","","","","","","","","","","","","","","","","","","","","","","","","",""
"","text-replacement","73","317533","0.0-35.0","31703130","wem/bandit_party_1","AM0X2DZF3F2E3","either","2","12038","","","32","","","","","","","","","","","","","","","","","","","","","","","","","","","","","","","","","","","","",""
"","text-replacement","74","323460","0.0-36.0","31703130","wem/bandit_party_1","AM0X2DZF3F2E3","either","2","5926","","","32","","","","","","","","","","","","","","","","","","","","","","","","","","","","","","","","","","","","",""
"","text-replacement","75","329717","0.0-37.0","31703130","wem/bandit_party_1","AM0X2DZF3F2E3","either","2","6256","","","32","","","","","","","","","","","","","","","","","","","","","","","","","","","","","","","","","","","","",""
"","text-replacement","76","333188","0.0-38.0","31703130","wem/bandit_party_1","AM0X2DZF3F2E3","either","2","3469","","","32","","","","","","","","","","","","","","","","","","","","","","","","","","","","","","","","","","","","",""
"","survey-multi-choice-replacement","77","342180","0.0-39.0-0.0","31703130","wem/bandit_party_1","AM0X2DZF3F2E3","either","2","8985","","","","","","","","","","","","","","","","","","","","","","","","Money will be added to the pool for <span style='color:blue;'>DEMOCRATS</span>","","","","","","","attn_check","","","","","","","","","0"
"","survey-multi-choice-replacement","78","346288","0.0-40.0-0.0","31703130","wem/bandit_party_1","AM0X2DZF3F2E3","either","2","3098","","","","","","","","","","","","","","","","","","","","","","","","Equal amounts of money will be added to the pool for <span style='color:blue;'>DEMOCRATS</span> and subtracted from the pool for <span style='color:red;'>REPUBLICANS</span>","","","","","","","attn_check","","","","","","","","","2"
"","survey-multi-choice-replacement","79","369489","0.0-41.0-0.0","31703130","wem/bandit_party_1","AM0X2DZF3F2E3","either","2","22195","","","","","","","","","","","","","","","","","","","","","","","","No money will be added to either pool","","","","","","","attn_check","","","","","","","","","3"
"","bandit","80","375515","0.0-42.0-0.0","31703130","wem/bandit_party_1","AM0X2DZF3F2E3","either","2","3519","","","","","","","0","0","1","0.326135308","","0.8","0.4","0.2","0.6","","","","","0.326135308","0.362799796","0.3653736811","0.4781977867","","","","","","","","","","72","H","0","img/none_selected.jpg","","1","main_expt",""
"","bandit","81","377732","0.0-43.0-0.0","31703130","wem/bandit_party_1","AM0X2DZF3F2E3","either","2","710","","","","","","","0","0","1","","0.3891507205","0.8","0.4","0.2","0.6","0.3564958201","0.3891507205","0.3999069229","0.4765481994","","","","","","","","","","","","","","74","J","1","","","2","main_expt",""
"","bandit","82","379531","0.0-44.0-0.0","31703130","wem/bandit_party_1","AM0X2DZF3F2E3","either","2","295","","","","","","","0","0","1","","0.4363582421","0.8","0.4","0.2","0.6","0.3309056029","0.3151339382","0.4363582421","0.4722158263","","","","","","","","","","","","","","75","K","2","","","3","main_expt",""
"","bandit","83","381291","0.0-45.0-0.0","31703130","wem/bandit_party_1","AM0X2DZF3F2E3","either","2","255","","","","","","","0","0","1","","0.4609570051","0.8","0.4","0.2","0.6","0.308467875","0.250648122","0.4300921111","0.4609570051","","","","","","","","","","","","","","76","L","3","","","4","main_expt",""
"","bandit","84","383085","0.0-46.0-0.0","31703130","wem/bandit_party_1","AM0X2DZF3F2E3","either","2","287","","","","","","","0","0","1","0.3349995635","","0.8","0.4","0.2","0.6","","","","","0.3349995635","0.2382585344","0.3863220662","0.4707799186","","","","","","","","","","72","H","0","img/none_selected.jpg","","5","main_expt",""
"","bandit","85","384836","0.0-47.0-0.0","31703130","wem/bandit_party_1","AM0X2DZF3F2E3","either","2","242","","","","","","","0","0","1","0.2088101903","","0.8","0.4","0.2","0.6","","","","","0.3743101545","0.2088101903","0.4192648028","0.4676743975","","","","","","","","","","74","J","1","","","6","main_expt",""
"","bandit","86","386563","0.0-48.0-0.0","31703130","wem/bandit_party_1","AM0X2DZF3F2E3","either","2","222","","","","","","","1","0","0","0.4218548145","","0.8","0.4","0.2","0.6","","","","","0.377506125","0.1884279889","0.4218548145","0.4767364015","","","","","","","","","","75","K","2","","","7","main_expt",""
"","bandit","87","388315","0.0-49.0-0.0","31703130","wem/bandit_party_1","AM0X2DZF3F2E3","either","2","247","","","","","","","0","1","0","","0.4298914749","0.8","0.4","0.2","0.6","0.3452849142","0.2297930851","0.4298914749","0.4837409877","","","","","","","","","","","","","","75","K","2","","","8","main_expt",""
"","bandit","88","390045","0.0-50.0-0.0","31703130","wem/bandit_party_1","AM0X2DZF3F2E3","either","2","223","","","","","","","0","1","0","","0.4215440671","0.8","0.4","0.2","0.6","0.2713567333","0.2219539873","0.4215440671","0.4825212187","","","","","","","","","","","","","","75","K","2","","","9","main_expt",""
"","bandit","89","391782","0.0-51.0-0.0","31703130","wem/bandit_party_1","AM0X2DZF3F2E3","either","2","228","","","","","","","0","0","1","","0.3991616263","0.8","0.4","0.2","0.6","0.2712708503","0.2398128751","0.3991616263","0.4791264729","","","","","","","","","","","","","","75","K","2","","","10","main_expt",""
"","bandit","90","393482","0.0-52.0-0.0","31703130","wem/bandit_party_1","AM0X2DZF3F2E3","either","2","196","","","","","","","0","1","0","","0.4002673883","0.8","0.4","0.2","0.6","0.2635531688","0.2551733424","0.4002673883","0.4762013833","","","","","","","","","","","","","","75","K","2","","","11","main_expt",""
"","bandit","91","395214","0.0-53.0-0.0","31703130","wem/bandit_party_1","AM0X2DZF3F2E3","either","2","224","","","","","","","0","0","1","","0.368629831","0.8","0.4","0.2","0.6","0.2669056975","0.2593424883","0.368629831","0.4729837645","","","","","","","","","","","","","","75","K","2","","","12","main_expt",""
"","bandit","92","396980","0.0-54.0-0.0","31703130","wem/bandit_party_1","AM0X2DZF3F2E3","either","2","258","","","","","","","0","0","1","0.4189726289","","0.8","0.4","0.2","0.6","","","","","0.3204456557","0.2493591627","0.4189726289","0.4749786695","","","","","","","","","","75","K","2","","","13","main_expt",""
"","bandit","93","398820","0.0-55.0-0.0","31703130","wem/bandit_party_1","AM0X2DZF3F2E3","either","2","334","","","","","","","0","0","1","","0.4352425359","0.8","0.4","0.2","0.6","0.3466526728","0.2686446846","0.4352425359","0.4810115094","","","","","","","","","","","","","","75","K","2","","","14","main_expt",""
"","bandit","94","400595","0.0-56.0-0.0","31703130","wem/bandit_party_1","AM0X2DZF3F2E3","either","2","270","","","","","","","0","0","1","","0.4705329286","0.8","0.4","0.2","0.6","0.3736671224","0.2690169042","0.3819090161","0.4705329286","","","","","","","","","","","","","","76","L","3","","","15","main_expt",""
"","bandit","95","402356","0.0-57.0-0.0","31703130","wem/bandit_party_1","AM0X2DZF3F2E3","either","2","256","","","","","","","0","1","0","","0.3778143907","0.8","0.4","0.2","0.6","0.3778143907","0.2518303543","0.3737760256","0.4687419894","","","","","","","","","","","","","","72","H","0","img/none_selected.jpg","","16","main_expt",""
"","bandit","96","404092","0.0-58.0-0.0","31703130","wem/bandit_party_1","AM0X2DZF3F2E3","either","2","229","","","","","","","0","0","1","","0.3845750066","0.8","0.4","0.2","0.6","0.3845750066","0.2406549936","0.4151791473","0.4594180265","","","","","","","","","","","","","","72","H","0","img/none_selected.jpg","","17","main_expt",""
"","bandit","97","405819","0.0-59.0-0.0","31703130","wem/bandit_party_1","AM0X2DZF3F2E3","either","2","221","","","","","","","0","0","1","0.4041286345","","0.8","0.4","0.2","0.6","","","","","0.4041286345","0.2670149403","0.4137363134","0.425397146","","","","","","","","","","72","H","0","img/none_selected.jpg","","18","main_expt",""
"","bandit","98","407549","0.0-60.0-0.0","31703130","wem/bandit_party_1","AM0X2DZF3F2E3","either","2","222","","","","","","","0","0","1","0.4127350431","","0.8","0.4","0.2","0.6","","","","","0.4127350431","0.2658482338","0.4084056464","0.4201246927","","","","","","","","","","72","H","0","img/none_selected.jpg","","19","main_expt",""
"","bandit","99","409246","0.0-61.0-0.0","31703130","wem/bandit_party_1","AM0X2DZF3F2E3","either","2","188","","","","","","","0","0","1","0.2452433766","","0.8","0.4","0.2","0.6","","","","","0.4107359536","0.2452433766","0.4129175496","0.3954271328","","","","","","","","","","74","J","1","","","20","main_expt",""
"","bandit","100","410917","0.0-62.0-0.0","31703130","wem/bandit_party_1","AM0X2DZF3F2E3","either","2","162","","","","","","","0","0","1","","0.3888488162","0.8","0.4","0.2","0.6","0.3954861765","0.2298761452","0.3888488162","0.4196431029","","","","","","","","","","","","","","75","K","2","","","21","main_expt",""
"","bandit","101","412756","0.0-63.0-0.0","31703130","wem/bandit_party_1","AM0X2DZF3F2E3","either","2","334","","","","","","","0","0","1","0.3843335182","","0.8","0.4","0.2","0.6","","","","","0.3805979297","0.266827693","0.3873149631","0.3843335182","","","","","","","","","","76","L","3","","","22","main_expt",""
"","bandit","102","414483","0.0-64.0-0.0","31703130","wem/bandit_party_1","AM0X2DZF3F2E3","either","2","221","","","","","","","0","0","1","0.425451992","","0.8","0.4","0.2","0.6","","","","","0.425451992","0.2519769849","0.3659772031","0.3839977458","","","","","","","","","","72","H","0","img/none_selected.jpg","","23","main_expt",""
"","bandit","103","416204","0.0-65.0-0.0","31703130","wem/bandit_party_1","AM0X2DZF3F2E3","either","2","215","","","","","","","0","0","1","0.2447613107","","0.8","0.4","0.2","0.6","","","","","0.4699447661","0.2447613107","0.3594327093","0.3338939571","","","","","","","","","","74","J","1","","","24","main_expt",""
"","bandit","104","417899","0.0-66.0-0.0","31703130","wem/bandit_party_1","AM0X2DZF3F2E3","either","2","189","","","","","","","0","0","1","","0.3719143394","0.8","0.4","0.2","0.6","0.4484050393","0.2350413847","0.3719143394","0.324486952","","","","","","","","","","","","","","75","K","2","","","25","main_expt",""
"","bandit","105","419708","0.0-67.0-0.0","31703130","wem/bandit_party_1","AM0X2DZF3F2E3","either","2","301","","","","","","","0","0","1","0.3095710384","","0.8","0.4","0.2","0.6","","","","","0.4190234423","0.207774486","0.3690014044","0.3095710384","","","","","","","","","","76","L","3","","","26","main_expt",""
"","bandit","106","421491","0.0-68.0-0.0","31703130","wem/bandit_party_1","AM0X2DZF3F2E3","either","2","277","","","","","","","1","0","0","0.4251478254","","0.8","0.4","0.2","0.6","","","","","0.4251478254","0.2164182795","0.3940030818","0.3355629191","","","","","","","","","","72","H","0","img/none_selected.jpg","","27","main_expt",""
"","bandit","107","423236","0.0-69.0-0.0","31703130","wem/bandit_party_1","AM0X2DZF3F2E3","either","2","239","","","","","","","1","0","0","0.4287328697","","0.8","0.4","0.2","0.6","","","","","0.4287328697","0.2164031865","0.4111080327","0.3668681485","","","","","","","","","","72","H","0","img/none_selected.jpg","","28","main_expt",""
"","bandit","108","425100","0.0-70.0-0.0","31703130","wem/bandit_party_1","AM0X2DZF3F2E3","either","2","357","","","","","","","0","0","1","0.4106025245","","0.8","0.4","0.2","0.6","","","","","0.4106025245","0.2770000278","0.41290056","0.343198694","","","","","","","","","","72","H","0","img/none_selected.jpg","","29","main_expt",""
"","bandit","109","426836","0.0-71.0-0.0","31703130","wem/bandit_party_1","AM0X2DZF3F2E3","either","2","228","","","","","","","0","0","1","0.3942494676","","0.8","0.4","0.2","0.6","","","","","0.3942494676","0.2354797847","0.3937480262","0.326069126","","","","","","","","","","72","H","0","img/none_selected.jpg","","30","main_expt",""
"","bandit","110","428821","0.0-72.0-0.0","31703130","wem/bandit_party_1","AM0X2DZF3F2E3","either","2","477","","","","","","","0","0","1","0.4285056211","","0.8","0.4","0.2","0.6","","","","","0.4285056211","0.2692030882","0.3997016236","0.3390127419","","","","","","","","","","72","H","0","img/none_selected.jpg","","31","main_expt",""
"","bandit","111","430394","0.0-73.0-0.0","31703130","wem/bandit_party_1","AM0X2DZF3F2E3","either","2","68","","","","","","","0","0","1","0.4249454459","","0.8","0.4","0.2","0.6","","","","","0.4249454459","0.2471118655","0.3574295763","0.3360649894","","","","","","","","","","72","H","0","img/none_selected.jpg","","32","main_expt",""
"","bandit","112","432091","0.0-74.0-0.0","31703130","wem/bandit_party_1","AM0X2DZF3F2E3","either","2","189","","","","","","","0","1","0","","0.2879199001","0.8","0.4","0.2","0.6","0.416417765","0.2879199001","0.3877818659","0.3052602024","","","","","","","","","","","","","","74","J","1","","","33","main_expt",""
"","bandit","113","433815","0.0-75.0-0.0","31703130","wem/bandit_party_1","AM0X2DZF3F2E3","either","2","214","","","","","","","0","0","1","0.3180115212","","0.8","0.4","0.2","0.6","","","","","0.4623714429","0.3180115212","0.3799496232","0.3594788954","","","","","","","","","","74","J","1","","","34","main_expt",""
"","bandit","114","435491","0.0-76.0-0.0","31703130","wem/bandit_party_1","AM0X2DZF3F2E3","either","2","170","","","","","","","0","0","1","","0.2524306687","0.8","0.4","0.2","0.6","0.4591977302","0.2524306687","0.3577573403","0.380235832","","","","","","","","","","","","","","74","J","1","","","35","main_expt",""
"","bandit","115","437204","0.0-77.0-0.0","31703130","wem/bandit_party_1","AM0X2DZF3F2E3","either","2","206","","","","","","","0","0","1","0.2351869563","","0.8","0.4","0.2","0.6","","","","","0.4686235256","0.2351869563","0.3895375856","0.3459989602","","","","","","","","","","74","J","1","","","36","main_expt",""
"","bandit","116","438891","0.0-78.0-0.0","31703130","wem/bandit_party_1","AM0X2DZF3F2E3","either","2","181","","","","","","","0","0","1","","0.3783527007","0.8","0.4","0.2","0.6","0.4571547709","0.2629170466","0.3783527007","0.3320905149","","","","","","","","","","","","","","75","K","2","","","37","main_expt",""
"","bandit","117","440604","0.0-79.0-0.0","31703130","wem/bandit_party_1","AM0X2DZF3F2E3","either","2","207","","","","","","","0","0","1","0.3471020919","","0.8","0.4","0.2","0.6","","","","","0.4688430709","0.3090194305","0.284076782","0.3471020919","","","","","","","","","","76","L","3","","","38","main_expt",""
"","bandit","118","442347","0.0-80.0-0.0","31703130","wem/bandit_party_1","AM0X2DZF3F2E3","either","2","237","","","","","","","0","0","1","0.4612923778","","0.8","0.4","0.2","0.6","","","","","0.4612923778","0.2845371228","0.3388972186","0.3401763967","","","","","","","","","","72","H","0","img/none_selected.jpg","","39","main_expt",""
"","bandit","119","444125","0.0-81.0-0.0","31703130","wem/bandit_party_1","AM0X2DZF3F2E3","either","2","271","","","","","","","0","0","1","","0.3076259244","0.8","0.4","0.2","0.6","0.4576194683","0.3076259244","0.2663655232","0.3260487483","","","","","","","","","","","","","","74","J","1","","","40","main_expt",""
"","bandit","120","445987","0.0-82.0-0.0","31703130","wem/bandit_party_1","AM0X2DZF3F2E3","either","2","354","","","","","","","0","0","1","0.2608266697","","0.8","0.4","0.2","0.6","","","","","0.4473921051","0.2888769276","0.2608266697","0.3390218734","","","","","","","","","","75","K","2","","","41","main_expt",""
"","bandit","121","449187","0.0-83.0-0.0","31703130","wem/bandit_party_1","AM0X2DZF3F2E3","either","2","1693","","","","","","","1","0","0","0.2889680017","","0.8","0.4","0.2","0.6","","","","","0.425470286","0.2639198141","0.2287676803","0.2889680017","","","","","","","","","","76","L","3","","","42","main_expt",""
"","bandit","122","450995","0.0-84.0-0.0","31703130","wem/bandit_party_1","AM0X2DZF3F2E3","either","2","302","","","","","","","0","0","1","0.2784828801","","0.8","0.4","0.2","0.6","","","","","0.4030522017","0.2255441472","0.2043112358","0.2784828801","","","","","","","","","","76","L","3","","","43","main_expt",""
"","bandit","123","452700","0.0-85.0-0.0","31703130","wem/bandit_party_1","AM0X2DZF3F2E3","either","2","199","","","","","","","1","0","0","0.2805729819","","0.8","0.4","0.2","0.6","","","","","0.4106315797","0.2050272072","0.1957049551","0.2805729819","","","","","","","","","","76","L","3","","","44","main_expt",""
"","bandit","124","454396","0.0-86.0-0.0","31703130","wem/bandit_party_1","AM0X2DZF3F2E3","either","2","189","","","","","","","0","0","1","0.2195119073","","0.8","0.4","0.2","0.6","","","","","0.4258527362","0.239455925","0.2207366272","0.2195119073","","","","","","","","","","76","L","3","","","45","main_expt",""
"","bandit","125","456140","0.0-87.0-0.0","31703130","wem/bandit_party_1","AM0X2DZF3F2E3","either","2","237","","","","","","","0","0","1","","0.2657932304","0.8","0.4","0.2","0.6","0.4425966235","0.2414778298","0.1727988076","0.2657932304","","","","","","","","","","","","","","76","L","3","","","46","main_expt",""
"","bandit","126","457845","0.0-88.0-0.0","31703130","wem/bandit_party_1","AM0X2DZF3F2E3","either","2","194","","","","","","","0","0","1","","0.2678398397","0.8","0.4","0.2","0.6","0.4428977597","0.1884211613","0.1446735631","0.2678398397","","","","","","","","","","","","","","76","L","3","","","47","main_expt",""
"","bandit","127","459651","0.0-89.0-0.0","31703130","wem/bandit_party_1","AM0X2DZF3F2E3","either","2","298","","","","","","","0","0","1","0.4479964269","","0.8","0.4","0.2","0.6","","","","","0.4479964269","0.1755274282","0.1681765936","0.2866904938","","","","","","","","","","72","H","0","img/none_selected.jpg","","48","main_expt",""
"","bandit","128","461380","0.0-90.0-0.0","31703130","wem/bandit_party_1","AM0X2DZF3F2E3","either","2","221","","","","","","","0","0","1","","0.1646396384","0.8","0.4","0.2","0.6","0.4660387519","0.1646396384","0.1473883531","0.2803848884","","","","","","","","","","","","","","74","J","1","","","49","main_expt",""
"","bandit","129","463191","0.0-91.0-0.0","31703130","wem/bandit_party_1","AM0X2DZF3F2E3","either","2","305","","","","","","","0","0","1","","0.1378170987","0.8","0.4","0.2","0.6","0.4345757832","0.2024226619","0.1378170987","0.2587411269","","","","","","","","","","","","","","75","K","2","","","50","main_expt",""
"","bandit","130","464932","0.0-92.0-0.0","31703130","wem/bandit_party_1","AM0X2DZF3F2E3","either","2","235","","","","","","","1","0","0","0.2212901065","","0.8","0.4","0.2","0.6","","","","","0.4450950844","0.1976760068","0.1430360168","0.2212901065","","","","","","","","","","76","L","3","","","51","main_expt",""
"","bandit","131","466724","0.0-93.0-0.0","31703130","wem/bandit_party_1","AM0X2DZF3F2E3","either","2","286","","","","","","","0","0","1","","0.236006857","0.8","0.4","0.2","0.6","0.4475354499","0.1796352224","0.1731798725","0.236006857","","","","","","","","","","","","","","76","L","3","","","52","main_expt",""
"","bandit","132","468459","0.0-94.0-0.0","31703130","wem/bandit_party_1","AM0X2DZF3F2E3","either","2","230","","","","","","","0","0","1","","0.2660825342","0.8","0.4","0.2","0.6","0.4627294295","0.2451732725","0.1312409056","0.2660825342","","","","","","","","","","","","","","76","L","3","","","53","main_expt",""
"","bandit","133","470386","0.0-95.0-0.0","31703130","wem/bandit_party_1","AM0X2DZF3F2E3","either","2","421","","","","","","","0","0","1","0.2458345041","","0.8","0.4","0.2","0.6","","","","","0.44829207","0.2621482643","0.1862053218","0.2458345041","","","","","","","","","","76","L","3","","","54","main_expt",""
"","bandit","134","471980","0.0-96.0-0.0","31703130","wem/bandit_party_1","AM0X2DZF3F2E3","either","2","85","","","","","","","1","0","0","0.4505537928","","0.8","0.4","0.2","0.6","","","","","0.4505537928","0.2441780383","0.1733563037","0.2265690781","","","","","","","","","","72","H","0","img/none_selected.jpg","","55","main_expt",""
"","bandit","135","473732","0.0-97.0-0.0","31703130","wem/bandit_party_1","AM0X2DZF3F2E3","either","2","246","","","","","","","0","0","1","0.4686400132","","0.8","0.4","0.2","0.6","","","","","0.4686400132","0.199729785","0.1728369204","0.2741820357","","","","","","","","","","72","H","0","img/none_selected.jpg","","56","main_expt",""
"","bandit","136","475436","0.0-98.0-0.0","31703130","wem/bandit_party_1","AM0X2DZF3F2E3","either","2","198","","","","","","","1","0","0","0.4572679106","","0.8","0.4","0.2","0.6","","","","","0.4572679106","0.1945085845","0.09176359954","0.2937641054","","","","","","","","","","72","H","0","img/none_selected.jpg","","57","main_expt",""
"","bandit","137","477163","0.0-99.0-0.0","31703130","wem/bandit_party_1","AM0X2DZF3F2E3","either","2","220","","","","","","","1","0","0","0.4300169527","","0.8","0.4","0.2","0.6","","","","","0.4300169527","0.2614759052","0.04991422033","0.2949827607","","","","","","","","","","72","H","0","img/none_selected.jpg","","58","main_expt",""
"","bandit","138","478852","0.0-100.0-0.0","31703130","wem/bandit_party_1","AM0X2DZF3F2E3","either","2","183","","","","","","","0","0","1","0.4050829606","","0.8","0.4","0.2","0.6","","","","","0.4050829606","0.2426118991","0.053239915","0.2710075273","","","","","","","","","","72","H","0","img/none_selected.jpg","","59","main_expt",""
"","bandit","139","480594","0.0-101.0-0.0","31703130","wem/bandit_party_1","AM0X2DZF3F2E3","either","2","233","","","","","","","0","0","1","0.4070720156","","0.8","0.4","0.2","0.6","","","","","0.4070720156","0.2623750897","0.06994226662","0.2766623035","","","","","","","","","","72","H","0","img/none_selected.jpg","","60","main_expt",""
"","bandit","140","482300","0.0-102.0-0.0","31703130","wem/bandit_party_1","AM0X2DZF3F2E3","either","2","199","","","","","","","0","0","1","0.3895400789","","0.8","0.4","0.2","0.6","","","","","0.3895400789","0.2139103784","0.07064832373","0.2574592035","","","","","","","","","","72","H","0","img/none_selected.jpg","","61","main_expt",""
"","bandit","141","484036","0.0-103.0-0.0","31703130","wem/bandit_party_1","AM0X2DZF3F2E3","either","2","230","","","","","","","0","0","1","","0.2566580444","0.8","0.4","0.2","0.6","0.4050708951","0.2566580444","0.08925217872","0.2425209234","","","","","","","","","","","","","","74","J","1","","","62","main_expt",""
"","bandit","142","485797","0.0-104.0-0.0","31703130","wem/bandit_party_1","AM0X2DZF3F2E3","either","2","252","","","","","","","0","0","1","","0.08505035955","0.8","0.4","0.2","0.6","0.3765761212","0.2393402704","0.08505035955","0.2294211584","","","","","","","","","","","","","","75","K","2","","","63","main_expt",""
"","bandit","143","487514","0.0-105.0-0.0","31703130","wem/bandit_party_1","AM0X2DZF3F2E3","either","2","213","","","","","","","0","0","1","0.2350173232","","0.8","0.4","0.2","0.6","","","","","0.3859881554","0.300105392","0.09892528285","0.2350173232","","","","","","","","","","76","L","3","","","64","main_expt",""
"","bandit","144","489382","0.0-106.0-0.0","31703130","wem/bandit_party_1","AM0X2DZF3F2E3","either","2","358","","","","","","","1","0","0","0.3817039273","","0.8","0.4","0.2","0.6","","","","","0.3817039273","0.2584268813","0.1428545766","0.2775473173","","","","","","","","","","72","H","0","img/none_selected.jpg","","65","main_expt",""
"","bandit","145","491116","0.0-107.0-0.0","31703130","wem/bandit_party_1","AM0X2DZF3F2E3","either","2","226","","","","","","","1","0","0","0.3622232449","","0.8","0.4","0.2","0.6","","","","","0.3622232449","0.2536378703","0.120440259","0.298861572","","","","","","","","","","72","H","0","img/none_selected.jpg","","66","main_expt",""
"","bandit","146","492834","0.0-108.0-0.0","31703130","wem/bandit_party_1","AM0X2DZF3F2E3","either","2","213","","","","","","","0","0","1","0.3768721334","","0.8","0.4","0.2","0.6","","","","","0.3768721334","0.2548884231","0.2019700983","0.3043747659","","","","","","","","","","72","H","0","img/none_selected.jpg","","67","main_expt",""
"","bandit","147","494565","0.0-109.0-0.0","31703130","wem/bandit_party_1","AM0X2DZF3F2E3","either","2","221","","","","","","","0","0","1","0.3826604183","","0.8","0.4","0.2","0.6","","","","","0.3826604183","0.2105458193","0.1467862533","0.2533072519","","","","","","","","","","72","H","0","img/none_selected.jpg","","68","main_expt",""
"","bandit","148","496182","0.0-110.0-0.0","31703130","wem/bandit_party_1","AM0X2DZF3F2E3","either","2","111","","","","","","","0","0","1","","0.3981811202","0.8","0.4","0.2","0.6","0.3981811202","0.2901666962","0.09022805221","0.2451677402","","","","","","","","","","","","","","72","H","0","img/none_selected.jpg","","69","main_expt",""
"","bandit","149","497923","0.0-111.0-0.0","31703130","wem/bandit_party_1","AM0X2DZF3F2E3","either","2","233","","","","","","","0","0","1","","0.2973761433","0.8","0.4","0.2","0.6","0.3936557204","0.2973761433","0.1128827508","0.2403061491","","","","","","","","","","","","","","74","J","1","","","70","main_expt",""
"","bandit","150","499698","0.0-112.0-0.0","31703130","wem/bandit_party_1","AM0X2DZF3F2E3","either","2","270","","","","","","","0","0","1","0.1184182172","","0.8","0.4","0.2","0.6","","","","","0.3949471057","0.2737706179","0.1184182172","0.1917576795","","","","","","","","","","75","K","2","","","71","main_expt",""
"","bandit","151","501396","0.0-113.0-0.0","31703130","wem/bandit_party_1","AM0X2DZF3F2E3","either","2","191","","","","","","","0","0","1","0.1894079546","","0.8","0.4","0.2","0.6","","","","","0.3888869603","0.3005227265","0.1038133506","0.1894079546","","","","","","","","","","76","L","3","","","72","main_expt",""
"","bandit","152","503067","0.0-114.0-0.0","31703130","wem/bandit_party_1","AM0X2DZF3F2E3","either","2","163","","","","","","","1","0","0","0.4015056825","","0.8","0.4","0.2","0.6","","","","","0.4015056825","0.3205676235","0.07830871569","0.235909594","","","","","","","","","","72","H","0","img/none_selected.jpg","","73","main_expt",""
"","bandit","153","504763","0.0-115.0-0.0","31703130","wem/bandit_party_1","AM0X2DZF3F2E3","either","2","188","","","","","","","1","0","0","0.4200542591","","0.8","0.4","0.2","0.6","","","","","0.4200542591","0.3040473008","0.09226686474","0.2772030277","","","","","","","","","","72","H","0","img/none_selected.jpg","","74","main_expt",""
"","bandit","154","506476","0.0-116.0-0.0","31703130","wem/bandit_party_1","AM0X2DZF3F2E3","either","2","206","","","","","","","1","0","0","0.4353174817","","0.8","0.4","0.2","0.6","","","","","0.4353174817","0.2686744794","0.07948082514","0.2237268092","","","","","","","","","","72","H","0","img/none_selected.jpg","","75","main_expt",""
"","bandit","155","508397","0.0-117.0-0.0","31703130","wem/bandit_party_1","AM0X2DZF3F2E3","either","2","411","","","","","","","0","0","1","","0.4196821318","0.8","0.4","0.2","0.6","0.4196821318","0.258707356","0.1279570505","0.1739375455","","","","","","","","","","","","","","72","H","0","img/none_selected.jpg","","76","main_expt",""
"","bandit","156","510130","0.0-118.0-0.0","31703130","wem/bandit_party_1","AM0X2DZF3F2E3","either","2","229","","","","","","","0","0","1","0.3787369199","","0.8","0.4","0.2","0.6","","","","","0.3787369199","0.3010070056","0.1202820049","0.1648796623","","","","","","","","","","72","H","0","img/none_selected.jpg","","77","main_expt",""
"","bandit","157","511859","0.0-119.0-0.0","31703130","wem/bandit_party_1","AM0X2DZF3F2E3","either","2","220","","","","","","","0","0","1","","0.4314930014","0.8","0.4","0.2","0.6","0.4314930014","0.2648586626","0.1054071572","0.1637798684","","","","","","","","","","","","","","72","H","0","img/none_selected.jpg","","78","main_expt",""
"","bandit","158","513645","0.0-120.0-0.0","31703130","wem/bandit_party_1","AM0X2DZF3F2E3","either","2","278","","","","","","","0","1","0","","0.1984114041","0.8","0.4","0.2","0.6","0.4155078174","0.1984114041","0.1403095361","0.1490076182","","","","","","","","","","","","","","74","J","1","","","79","main_expt",""
"","bandit","159","515451","0.0-121.0-0.0","31703130","wem/bandit_party_1","AM0X2DZF3F2E3","either","2","299","","","","","","","0","0","1","0.180325551","","0.8","0.4","0.2","0.6","","","","","0.4226243671","0.180325551","0.1891235553","0.1093198388","","","","","","","","","","74","J","1","","","80","main_expt",""
"","bandit","160","517148","0.0-122.0-0.0","31703130","wem/bandit_party_1","AM0X2DZF3F2E3","either","2","192","","","","","","","0","0","1","","0.224531153","0.8","0.4","0.2","0.6","0.4474166549","0.224531153","0.1858030354","0.08868186825","","","","","","","","","","","","","","74","J","1","","","81","main_expt",""
"","bandit","161","518932","0.0-123.0-0.0","31703130","wem/bandit_party_1","AM0X2DZF3F2E3","either","2","275","","","","","","","0","0","1","","0.2476542501","0.8","0.4","0.2","0.6","0.4636297045","0.221125015","0.2476542501","0.1073880826","","","","","","","","","","","","","","75","K","2","","","82","main_expt",""
"","bandit","162","520627","0.0-124.0-0.0","31703130","wem/bandit_party_1","AM0X2DZF3F2E3","either","2","188","","","","","","","0","0","1","0.1022587498","","0.8","0.4","0.2","0.6","","","","","0.467509749","0.2143237207","0.2188241074","0.1022587498","","","","","","","","","","76","L","3","","","83","main_expt",""
"","bandit","163","522299","0.0-125.0-0.0","31703130","wem/bandit_party_1","AM0X2DZF3F2E3","either","2","166","","","","","","","0","1","0","","0.4551111531","0.8","0.4","0.2","0.6","0.4551111531","0.2097367537","0.2754771977","0.1085807699","","","","","","","","","","","","","","72","H","0","img/none_selected.jpg","","84","main_expt",""
"","bandit","164","523932","0.0-126.0-0.0","31703130","wem/bandit_party_1","AM0X2DZF3F2E3","either","2","123","","","","","","","1","0","0","0.4621419017","","0.8","0.4","0.2","0.6","","","","","0.4621419017","0.1661536269","0.2965575968","0.1263918358","","","","","","","","","","72","H","0","img/none_selected.jpg","","85","main_expt",""
"","bandit","165","525972","0.0-127.0-0.0","31703130","wem/bandit_party_1","AM0X2DZF3F2E3","either","2","532","","","","","","","1","0","0","0.4612050897","","0.8","0.4","0.2","0.6","","","","","0.4612050897","0.1364458955","0.257129161","0.1481941301","","","","","","","","","","72","H","0","img/none_selected.jpg","","86","main_expt",""
"","bandit","166","527758","0.0-128.0-0.0","31703130","wem/bandit_party_1","AM0X2DZF3F2E3","either","2","271","","","","","","","1","0","0","0.4334675206","","0.8","0.4","0.2","0.6","","","","","0.4334675206","0.08235553135","0.2338967043","0.1447872846","","","","","","","","","","72","H","0","img/none_selected.jpg","","87","main_expt",""
"","bandit","167","529739","0.0-129.0-0.0","31703130","wem/bandit_party_1","AM0X2DZF3F2E3","either","2","473","","","","","","","0","0","1","0.4397617206","","0.8","0.4","0.2","0.6","","","","","0.4397617206","0.0754832669","0.2161535794","0.1391637727","","","","","","","","","","72","H","0","img/none_selected.jpg","","88","main_expt",""
"","bandit","168","531483","0.0-130.0-0.0","31703130","wem/bandit_party_1","AM0X2DZF3F2E3","either","2","237","","","","","","","0","0","1","0.4635478967","","0.8","0.4","0.2","0.6","","","","","0.4635478967","0.109361408","0.2043146745","0.1476089376","","","","","","","","","","72","H","0","img/none_selected.jpg","","89","main_expt",""
"","bandit","169","533202","0.0-131.0-0.0","31703130","wem/bandit_party_1","AM0X2DZF3F2E3","either","2","212","","","","","","","0","0","1","","0.07391079866","0.8","0.4","0.2","0.6","0.4234969579","0.07391079866","0.2346009907","0.2081489191","","","","","","","","","","","","","","74","J","1","","","90","main_expt",""
"","bandit","170","534923","0.0-132.0-0.0","31703130","wem/bandit_party_1","AM0X2DZF3F2E3","either","2","212","","","","","","","0","0","1","","0.2333967219","0.8","0.4","0.2","0.6","0.4267507071","0.1164594673","0.2333967219","0.1834039029","","","","","","","","","","","","","","75","K","2","","","91","main_expt",""
"","bandit","171","536700","0.0-133.0-0.0","31703130","wem/bandit_party_1","AM0X2DZF3F2E3","either","2","269","","","","","","","0","0","1","0.2027314649","","0.8","0.4","0.2","0.6","","","","","0.4089505196","0.113043345","0.2150480475","0.2027314649","","","","","","","","","","76","L","3","","","92","main_expt",""
"","bandit","172","538414","0.0-134.0-0.0","31703130","wem/bandit_party_1","AM0X2DZF3F2E3","either","2","206","","","","","","","0","0","1","0.4112501448","","0.8","0.4","0.2","0.6","","","","","0.4112501448","0.1714352716","0.2588080464","0.1738894496","","","","","","","","","","72","H","0","img/none_selected.jpg","","93","main_expt",""
"","bandit","173","540139","0.0-135.0-0.0","31703130","wem/bandit_party_1","AM0X2DZF3F2E3","either","2","216","","","","","","","0","0","1","0.1253024032","","0.8","0.4","0.2","0.6","","","","","0.452415855","0.1253024032","0.2748849181","0.2484708832","","","","","","","","","","74","J","1","","","94","main_expt",""
"","bandit","174","541827","0.0-136.0-0.0","31703130","wem/bandit_party_1","AM0X2DZF3F2E3","either","2","177","","","","","","","0","1","0","","0.2791739054","0.8","0.4","0.2","0.6","0.4589197587","0.1401284447","0.2791739054","0.2914685715","","","","","","","","","","","","","","75","K","2","","","95","main_expt",""
"","bandit","175","543603","0.0-137.0-0.0","31703130","wem/bandit_party_1","AM0X2DZF3F2E3","either","2","267","","","","","","","0","1","0","","0.3149564315","0.8","0.4","0.2","0.6","0.4481870348","0.1320491369","0.3149564315","0.2417524935","","","","","","","","","","","","","","75","K","2","","","96","main_expt",""
"","bandit","176","545339","0.0-138.0-0.0","31703130","wem/bandit_party_1","AM0X2DZF3F2E3","either","2","228","","","","","","","0","0","1","","0.372564007","0.8","0.4","0.2","0.6","0.4597072186","0.1518453759","0.372564007","0.2492821404","","","","","","","","","","","","","","75","K","2","","","97","main_expt",""
"","bandit","177","547045","0.0-139.0-0.0","31703130","wem/bandit_party_1","AM0X2DZF3F2E3","either","2","193","","","","","","","0","1","0","","0.393328365","0.8","0.4","0.2","0.6","0.4705619112","0.2173959583","0.393328365","0.3002958449","","","","","","","","","","","","","","75","K","2","","","98","main_expt",""
"","bandit","178","548797","0.0-140.0-0.0","31703130","wem/bandit_party_1","AM0X2DZF3F2E3","either","2","240","","","","","","","0","1","0","","0.421239771","0.8","0.4","0.2","0.6","0.4800968761","0.2618725657","0.421239771","0.3544832656","","","","","","","","","","","","","","75","K","2","","","99","main_expt",""
"","bandit","179","550522","0.0-141.0-0.0","31703130","wem/bandit_party_1","AM0X2DZF3F2E3","either","2","219","","","","","","","0","1","0","","0.4130759476","0.8","0.4","0.2","0.6","0.4780143146","0.2487788848","0.4130759476","0.3810954338","","","","","","","","","","","","","","75","K","2","","","100","main_expt",""
"","bandit","180","552235","0.0-142.0-0.0","31703130","wem/bandit_party_1","AM0X2DZF3F2E3","either","2","205","","","","","","","0","1","0","","0.4089462913","0.8","0.4","0.2","0.6","0.4849002763","0.2890792313","0.4089462913","0.4042362267","","","","","","","","","","","","","","75","K","2","","","101","main_expt",""
"","bandit","181","554027","0.0-143.0-0.0","31703130","wem/bandit_party_1","AM0X2DZF3F2E3","either","2","285","","","","","","","0","0","1","","0.370330464","0.8","0.4","0.2","0.6","0.4886078379","0.3136369757","0.370330464","0.4594696392","","","","","","","","","","","","","","75","K","2","","","102","main_expt",""
"","bandit","182","556530","0.0-144.0-0.0","31703130","wem/bandit_party_1","AM0X2DZF3F2E3","either","2","997","","","","","","","0","0","1","","0.3306315663","0.8","0.4","0.2","0.6","0.47121906","0.2364671533","0.3306315663","0.4588766667","","","","","","","","","","","","","","75","K","2","","","103","main_expt",""
"","bandit","183","558371","0.0-145.0-0.0","31703130","wem/bandit_party_1","AM0X2DZF3F2E3","either","2","333","","","","","","","0","0","1","0.4372785745","","0.8","0.4","0.2","0.6","","","","","0.4760763377","0.2202486688","0.354634178","0.4372785745","","","","","","","","","","76","L","3","","","104","main_expt",""
"","bandit","184","560051","0.0-146.0-0.0","31703130","wem/bandit_party_1","AM0X2DZF3F2E3","either","2","170","","","","","","","1","0","0","0.4701389446","","0.8","0.4","0.2","0.6","","","","","0.4701389446","0.1854418088","0.3896605338","0.4063887309","","","","","","","","","","72","H","0","img/none_selected.jpg","","105","main_expt",""
"","bandit","185","561762","0.0-147.0-0.0","31703130","wem/bandit_party_1","AM0X2DZF3F2E3","either","2","204","","","","","","","0","0","1","0.471324938","","0.8","0.4","0.2","0.6","","","","","0.471324938","0.1596754559","0.414339711","0.3778019321","","","","","","","","","","72","H","0","img/none_selected.jpg","","106","main_expt",""
"","bandit","186","563387","0.0-148.0-0.0","31703130","wem/bandit_party_1","AM0X2DZF3F2E3","either","2","118","","","","","","","0","1","0","","0.4786694594","0.8","0.4","0.2","0.6","0.4786694594","0.137099288","0.4164239898","0.3614143111","","","","","","","","","","","","","","72","H","0","img/none_selected.jpg","","107","main_expt",""
"","bandit","187","565182","0.0-149.0-0.0","31703130","wem/bandit_party_1","AM0X2DZF3F2E3","either","2","286","","","","","","","1","0","0","0.4810065258","","0.8","0.4","0.2","0.6","","","","","0.4810065258","0.1443984823","0.3836571442","0.3681250399","","","","","","","","","","72","H","0","img/none_selected.jpg","","108","main_expt",""
"","bandit","188","567348","0.0-150.0-0.0","31703130","wem/bandit_party_1","AM0X2DZF3F2E3","either","2","657","","","","","","","0","0","1","0.4816764674","","0.8","0.4","0.2","0.6","","","","","0.4816764674","0.1409511773","0.3881214568","0.3446081275","","","","","","","","","","72","H","0","img/none_selected.jpg","","109","main_expt",""
"","bandit","189","568971","0.0-151.0-0.0","31703130","wem/bandit_party_1","AM0X2DZF3F2E3","either","2","116","","","","","","","1","0","0","0.4882082215","","0.8","0.4","0.2","0.6","","","","","0.4882082215","0.1787750665","0.4266873791","0.3681270965","","","","","","","","","","72","H","0","img/none_selected.jpg","","110","main_expt",""
"","bandit","190","570731","0.0-152.0-0.0","31703130","wem/bandit_party_1","AM0X2DZF3F2E3","either","2","250","","","","","","","0","0","1","0.478642168","","0.8","0.4","0.2","0.6","","","","","0.478642168","0.1862786225","0.4475699482","0.391379093","","","","","","","","","","72","H","0","img/none_selected.jpg","","111","main_expt",""
"","bandit","191","572250","0.0-153.0-0.0","31703130","wem/bandit_party_1","AM0X2DZF3F2E3","either","2","13","","","","","","","0","1","0","","0.4841415165","0.8","0.4","0.2","0.6","0.4841415165","0.1654620982","0.4190314983","0.4131544452","","","","","","","","","","","","","","72","H","0","img/none_selected.jpg","","112","main_expt",""
"","bandit","192","573972","0.0-154.0-0.0","31703130","wem/bandit_party_1","AM0X2DZF3F2E3","either","2","214","","","","","","","0","1","0","","0.4883212127","0.8","0.4","0.2","0.6","0.4883212127","0.1582981878","0.3666128881","0.3963985948","","","","","","","","","","","","","","72","H","0","img/none_selected.jpg","","113","main_expt",""
"","bandit","193","575827","0.0-155.0-0.0","31703130","wem/bandit_party_1","AM0X2DZF3F2E3","either","2","347","","","","","","","0","0","1","0.4883790739","","0.8","0.4","0.2","0.6","","","","","0.4883790739","0.1922757069","0.3866259854","0.4117985871","","","","","","","","","","72","H","0","img/none_selected.jpg","","114","main_expt",""
"","bandit","194","577730","0.0-156.0-0.0","31703130","wem/bandit_party_1","AM0X2DZF3F2E3","either","2","395","","","","","","","1","0","0","0.4902011966","","0.8","0.4","0.2","0.6","","","","","0.4902011966","0.185618385","0.354161152","0.394381103","","","","","","","","","","72","H","0","img/none_selected.jpg","","115","main_expt",""
"","bandit","195","579452","0.0-157.0-0.0","31703130","wem/bandit_party_1","AM0X2DZF3F2E3","either","2","214","","","","","","","1","0","0","0.4844723045","","0.8","0.4","0.2","0.6","","","","","0.4844723045","0.2057277395","0.3170745426","0.3762408663","","","","","","","","","","72","H","0","img/none_selected.jpg","","116","main_expt",""
"","bandit","196","581446","0.0-158.0-0.0","31703130","wem/bandit_party_1","AM0X2DZF3F2E3","either","2","487","","","","","","","0","0","1","0.4895589844","","0.8","0.4","0.2","0.6","","","","","0.4895589844","0.2288411079","0.304536318","0.3823674378","","","","","","","","","","72","H","0","img/none_selected.jpg","","117","main_expt",""
"","bandit","197","583203","0.0-159.0-0.0","31703130","wem/bandit_party_1","AM0X2DZF3F2E3","either","2","247","","","","","","","1","0","0","0.4899729034","","0.8","0.4","0.2","0.6","","","","","0.4899729034","0.2207517482","0.3411026949","0.4050195855","","","","","","","","","","72","H","0","img/none_selected.jpg","","118","main_expt",""
"","bandit","198","585331","0.0-160.0-0.0","31703130","wem/bandit_party_1","AM0X2DZF3F2E3","either","2","620","","","","","","","1","0","0","0.4947041593","","0.8","0.4","0.2","0.6","","","","","0.4947041593","0.1955286499","0.3447942488","0.4227562767","","","","","","","","","","72","H","0","img/none_selected.jpg","","119","main_expt",""
"","bandit","199","587091","0.0-161.0-0.0","31703130","wem/bandit_party_1","AM0X2DZF3F2E3","either","2","250","","","","","","","0","0","1","0.4916865355","","0.8","0.4","0.2","0.6","","","","","0.4916865355","0.2427950695","0.3686185352","0.4163810796","","","","","","","","","","72","H","0","img/none_selected.jpg","","120","main_expt",""
"","bandit","200","588834","0.0-162.0-0.0","31703130","wem/bandit_party_1","AM0X2DZF3F2E3","either","2","235","","","","","","","0","0","1","0.4860386064","","0.8","0.4","0.2","0.6","","","","","0.4860386064","0.2479682904","0.3547669752","0.406821829","","","","","","","","","","72","H","0","img/none_selected.jpg","","121","main_expt",""
"","bandit","201","590580","0.0-163.0-0.0","31703130","wem/bandit_party_1","AM0X2DZF3F2E3","either","2","238","","","","","","","0","0","1","","0.3081985406","0.8","0.4","0.2","0.6","0.483083859","0.3081985406","0.365994073","0.3999449125","","","","","","","","","","","","","","74","J","1","","","122","main_expt",""
"","bandit","202","592292","0.0-164.0-0.0","31703130","wem/bandit_party_1","AM0X2DZF3F2E3","either","2","206","","","","","","","0","1","0","","0.3120596142","0.8","0.4","0.2","0.6","0.4791491275","0.3089359708","0.3120596142","0.366626489","","","","","","","","","","","","","","75","K","2","","","123","main_expt",""
"","bandit","203","594011","0.0-165.0-0.0","31703130","wem/bandit_party_1","AM0X2DZF3F2E3","either","2","210","","","","","","","0","1","0","","0.302161917","0.8","0.4","0.2","0.6","0.4776777384","0.3298338218","0.302161917","0.3706278578","","","","","","","","","","","","","","75","K","2","","","124","main_expt",""
"","bandit","204","595730","0.0-166.0-0.0","31703130","wem/bandit_party_1","AM0X2DZF3F2E3","either","2","212","","","","","","","1","0","0","0.2794370347","","0.8","0.4","0.2","0.6","","","","","0.478983255","0.2795250441","0.2794370347","0.3545504723","","","","","","","","","","75","K","2","","","125","main_expt",""
"","bandit","205","597451","0.0-167.0-0.0","31703130","wem/bandit_party_1","AM0X2DZF3F2E3","either","2","213","","","","","","","0","0","1","0.2466154908","","0.8","0.4","0.2","0.6","","","","","0.4724726719","0.2184127205","0.2466154908","0.3106298006","","","","","","","","","","75","K","2","","","126","main_expt",""
"","bandit","206","599114","0.0-168.0-0.0","31703130","wem/bandit_party_1","AM0X2DZF3F2E3","either","2","158","","","","","","","0","0","1","0.2712823261","","0.8","0.4","0.2","0.6","","","","","0.4796244369","0.2488858907","0.2712823261","0.3351405197","","","","","","","","","","75","K","2","","","127","main_expt",""
"","bandit","207","600866","0.0-169.0-0.0","31703130","wem/bandit_party_1","AM0X2DZF3F2E3","either","2","246","","","","","","","1","0","0","0.2984422464","","0.8","0.4","0.2","0.6","","","","","0.4825212971","0.2850827173","0.2095517986","0.2984422464","","","","","","","","","","76","L","3","","","128","main_expt",""
"","bandit","208","602652","0.0-170.0-0.0","31703130","wem/bandit_party_1","AM0X2DZF3F2E3","either","2","280","","","","","","","0","0","1","","0.2027892291","0.8","0.4","0.2","0.6","0.4877535013","0.2867242009","0.1986866195","0.2027892291","","","","","","","","","","","","","","76","L","3","","","129","main_expt",""
"","bandit","209","604523","0.0-171.0-0.0","31703130","wem/bandit_party_1","AM0X2DZF3F2E3","either","2","365","","","","","","","0","0","1","0.13768179","","0.8","0.4","0.2","0.6","","","","","0.4833646461","0.2509552002","0.172959111","0.13768179","","","","","","","","","","76","L","3","","","130","main_expt",""
"","bandit","210","606251","0.0-172.0-0.0","31703130","wem/bandit_party_1","AM0X2DZF3F2E3","either","2","218","","","","","","","0","1","0","","0.4790990265","0.8","0.4","0.2","0.6","0.4790990265","0.2172434631","0.163172462","0.1352832961","","","","","","","","","","","","","","72","H","0","img/none_selected.jpg","","131","main_expt",""
"","bandit","211","607986","0.0-173.0-0.0","31703130","wem/bandit_party_1","AM0X2DZF3F2E3","either","2","230","","","","","","","1","0","0","0.4882311922","","0.8","0.4","0.2","0.6","","","","","0.4882311922","0.158295755","0.161148659","0.08660982753","","","","","","","","","","72","H","0","img/none_selected.jpg","","132","main_expt",""
"","bandit","212","609691","0.0-174.0-0.0","31703130","wem/bandit_party_1","AM0X2DZF3F2E3","either","2","198","","","","","","","1","0","0","0.4889625365","","0.8","0.4","0.2","0.6","","","","","0.4889625365","0.185310911","0.1735641072","0.1020907376","","","","","","","","","","72","H","0","img/none_selected.jpg","","133","main_expt",""
"","bandit","213","611426","0.0-175.0-0.0","31703130","wem/bandit_party_1","AM0X2DZF3F2E3","either","2","229","","","","","","","0","0","1","0.4916783795","","0.8","0.4","0.2","0.6","","","","","0.4916783795","0.1966535246","0.1597390633","0.1231499397","","","","","","","","","","72","H","0","img/none_selected.jpg","","134","main_expt",""
"","bandit","214","613131","0.0-176.0-0.0","31703130","wem/bandit_party_1","AM0X2DZF3F2E3","either","2","200","","","","","","","0","1","0","","0.4904315354","0.8","0.4","0.2","0.6","0.4904315354","0.2290191974","0.1460070414","0.1524236556","","","","","","","","","","","","","","72","H","0","img/none_selected.jpg","","135","main_expt",""
"","bandit","215","614891","0.0-177.0-0.0","31703130","wem/bandit_party_1","AM0X2DZF3F2E3","either","2","249","","","","","","","0","0","1","0.491666595","","0.8","0.4","0.2","0.6","","","","","0.491666595","0.2929229053","0.105474526","0.1954247664","","","","","","","","","","72","H","0","img/none_selected.jpg","","136","main_expt",""
"","bandit","216","616563","0.0-178.0-0.0","31703130","wem/bandit_party_1","AM0X2DZF3F2E3","either","2","162","","","","","","","1","0","0","0.4917142499","","0.8","0.4","0.2","0.6","","","","","0.4917142499","0.2780805385","0.08835118593","0.1833989084","","","","","","","","","","72","H","0","img/none_selected.jpg","","137","main_expt",""
"","bandit","217","618258","0.0-179.0-0.0","31703130","wem/bandit_party_1","AM0X2DZF3F2E3","either","2","186","","","","","","","0","0","1","0.4870170403","","0.8","0.4","0.2","0.6","","","","","0.4870170403","0.217224157","0.06418360449","0.1490533902","","","","","","","","","","72","H","0","img/none_selected.jpg","","138","main_expt",""
"","bandit","218","619963","0.0-180.0-0.0","31703130","wem/bandit_party_1","AM0X2DZF3F2E3","either","2","198","","","","","","","1","0","0","0.4834992155","","0.8","0.4","0.2","0.6","","","","","0.4834992155","0.2323391466","0.03554325754","0.1318817547","","","","","","","","","","72","H","0","img/none_selected.jpg","","139","main_expt",""
"","bandit","219","621731","0.0-181.0-0.0","31703130","wem/bandit_party_1","AM0X2DZF3F2E3","either","2","258","","","","","","","0","0","1","0.4927392517","","0.8","0.4","0.2","0.6","","","","","0.4927392517","0.244475209","0.04477370895","0.1877412345","","","","","","","","","","72","H","0","img/none_selected.jpg","","140","main_expt",""
"","bandit","220","623396","0.0-182.0-0.0","31703130","wem/bandit_party_1","AM0X2DZF3F2E3","either","2","159","","","","","","","0","0","1","0.4872377518","","0.8","0.4","0.2","0.6","","","","","0.4872377518","0.232604034","0.03780119019","0.2363671377","","","","","","","","","","72","H","0","img/none_selected.jpg","","141","main_expt",""
"","bandit","221","625099","0.0-183.0-0.0","31703130","wem/bandit_party_1","AM0X2DZF3F2E3","either","2","192","","","","","","","0","1","0","","0.4846254936","0.8","0.4","0.2","0.6","0.4846254936","0.2447345556","0.03149913875","0.2546402356","","","","","","","","","","","","","","72","H","0","img/none_selected.jpg","","142","main_expt",""
"","bandit","222","626804","0.0-184.0-0.0","31703130","wem/bandit_party_1","AM0X2DZF3F2E3","either","2","194","","","","","","","0","1","0","","0.4815328815","0.8","0.4","0.2","0.6","0.4815328815","0.26413271","0.04191513266","0.2825544685","","","","","","","","","","","","","","72","H","0","img/none_selected.jpg","","143","main_expt",""
"","bandit","223","628515","0.0-185.0-0.0","31703130","wem/bandit_party_1","AM0X2DZF3F2E3","either","2","197","","","","","","","1","0","0","0.4854048375","","0.8","0.4","0.2","0.6","","","","","0.4854048375","0.1988203511","0.05613120157","0.2731230023","","","","","","","","","","72","H","0","img/none_selected.jpg","","144","main_expt",""
"","bandit","224","630034","0.0-186.0-0.0","31703130","wem/bandit_party_1","AM0X2DZF3F2E3","either","2","14","","","","","","","0","0","1","0.4813029389","","0.8","0.4","0.2","0.6","","","","","0.4813029389","0.217822638","0.03827589539","0.2943814715","","","","","","","","","","72","H","0","img/none_selected.jpg","","145","main_expt",""
"","bandit","225","631772","0.0-187.0-0.0","31703130","wem/bandit_party_1","AM0X2DZF3F2E3","either","2","228","","","","","","","1","0","0","0.4884824202","","0.8","0.4","0.2","0.6","","","","","0.4884824202","0.2009042904","0.02861175853","0.328634005","","","","","","","","","","72","H","0","img/none_selected.jpg","","146","main_expt",""
"","bandit","226","633498","0.0-188.0-0.0","31703130","wem/bandit_party_1","AM0X2DZF3F2E3","either","2","218","","","","","","","1","0","0","0.4835291327","","0.8","0.4","0.2","0.6","","","","","0.4835291327","0.2080446297","0.02140640811","0.3511209141","","","","","","","","","","72","H","0","img/none_selected.jpg","","147","main_expt",""
"","bandit","227","635195","0.0-189.0-0.0","31703130","wem/bandit_party_1","AM0X2DZF3F2E3","either","2","190","","","","","","","0","1","0","","0.4716003481","0.8","0.4","0.2","0.6","0.4716003481","0.1536700415","0.0202041473","0.3874996206","","","","","","","","","","","","","","72","H","0","img/none_selected.jpg","","148","main_expt",""
"","bandit","228","637219","0.0-190.0-0.0","31703130","wem/bandit_party_1","AM0X2DZF3F2E3","either","2","517","","","","","","","1","0","0","0.4341886607","","0.8","0.4","0.2","0.6","","","","","0.4341886607","0.1593661633","0.01154190459","0.3476646045","","","","","","","","","","72","H","0","img/none_selected.jpg","","149","main_expt",""
"","bandit","229","639219","0.0-191.0-0.0","31703130","wem/bandit_party_1","AM0X2DZF3F2E3","either","2","493","","","","","","","1","0","0","0.4014438172","","0.8","0.4","0.2","0.6","","","","","0.4014438172","0.144955896","0.01291237021","0.3323010919","","","","","","","","","","72","H","0","img/none_selected.jpg","","150","main_expt",""
"","bandit","230","640947","0.0-192.0-0.0","31703130","wem/bandit_party_1","AM0X2DZF3F2E3","either","2","221","","","","","","","0","0","1","0.3980713407","","0.8","0.4","0.2","0.6","","","","","0.3980713407","0.2123564028","0.0137789916","0.3954477196","","","","","","","","","","72","H","0","img/none_selected.jpg","","151","main_expt",""
"","bandit","231","642995","0.0-193.0-0.0","31703130","wem/bandit_party_1","AM0X2DZF3F2E3","either","2","542","","","","","","","0","0","1","0.4002357887","","0.8","0.4","0.2","0.6","","","","","0.4002357887","0.2301890466","0.01985271471","0.4186327087","","","","","","","","","","72","H","0","img/none_selected.jpg","","152","main_expt",""
"","bandit","232","644781","0.0-194.0-0.0","31703130","wem/bandit_party_1","AM0X2DZF3F2E3","either","2","278","","","","","","","0","0","1","","0.2295153641","0.8","0.4","0.2","0.6","0.388677987","0.2295153641","0.02951100453","0.4029566754","","","","","","","","","","","","","","74","J","1","","","153","main_expt",""
"","bandit","233","646555","0.0-195.0-0.0","31703130","wem/bandit_party_1","AM0X2DZF3F2E3","either","2","267","","","","","","","0","0","1","","0.02325572033","0.8","0.4","0.2","0.6","0.3817747688","0.2163321136","0.02325572033","0.4037751878","","","","","","","","","","","","","","75","K","2","","","154","main_expt",""
"","bandit","234","648323","0.0-196.0-0.0","31703130","wem/bandit_party_1","AM0X2DZF3F2E3","either","2","257","","","","","","","1","0","0","0.4078727314","","0.8","0.4","0.2","0.6","","","","","0.327727533","0.2257858177","0.03925092562","0.4078727314","","","","","","","","","","76","L","3","","","155","main_expt",""
"","bandit","235","650099","0.0-197.0-0.0","31703130","wem/bandit_party_1","AM0X2DZF3F2E3","either","2","263","","","","","","","0","0","1","0.3941681487","","0.8","0.4","0.2","0.6","","","","","0.2821504166","0.2077891775","0.05532081832","0.3941681487","","","","","","","","","","76","L","3","","","156","main_expt",""
"","bandit","236","651851","0.0-198.0-0.0","31703130","wem/bandit_party_1","AM0X2DZF3F2E3","either","2","244","","","","","","","1","0","0","0.3417147062","","0.8","0.4","0.2","0.6","","","","","0.2784527126","0.1742908387","0.05983660039","0.3417147062","","","","","","","","","","76","L","3","","","157","main_expt",""
"","bandit","237","653634","0.0-199.0-0.0","31703130","wem/bandit_party_1","AM0X2DZF3F2E3","either","2","275","","","","","","","0","0","1","","0.2963220618","0.8","0.4","0.2","0.6","0.2857058734","0.162057643","0.09347744845","0.2963220618","","","","","","","","","","","","","","76","L","3","","","158","main_expt",""
"","bandit","238","655349","0.0-200.0-0.0","31703130","wem/bandit_party_1","AM0X2DZF3F2E3","either","2","203","","","","","","","0","0","1","","0.2961528309","0.8","0.4","0.2","0.6","0.2349295223","0.1805514511","0.09649648717","0.2961528309","","","","","","","","","","","","","","76","L","3","","","159","main_expt",""
"","bandit","239","657058","0.0-201.0-0.0","31703130","wem/bandit_party_1","AM0X2DZF3F2E3","either","2","203","","","","","","","1","0","0","0.2275717407","","0.8","0.4","0.2","0.6","","","","","0.2275717407","0.1724629995","0.08382429791","0.2842772575","","","","","","","","","","72","H","0","img/none_selected.jpg","","160","main_expt",""
"","bandit","240","658788","0.0-202.0-0.0","31703130","wem/bandit_party_1","AM0X2DZF3F2E3","either","2","223","","","","","","","0","0","1","0.2559884592","","0.8","0.4","0.2","0.6","","","","","0.2559884592","0.1660992999","0.1466352983","0.2747674873","","","","","","","","","","72","H","0","img/none_selected.jpg","","161","main_expt",""
"","bandit","241","660394","0.0-203.0-0.0","31703130","wem/bandit_party_1","AM0X2DZF3F2E3","either","2","100","","","","","","","0","0","1","0.2670526618","","0.8","0.4","0.2","0.6","","","","","0.2670526618","0.2281832109","0.1569467617","0.2993190406","","","","","","","","","","72","H","0","img/none_selected.jpg","","162","main_expt",""
"","bandit","242","662523","0.0-204.0-0.0","31703130","wem/bandit_party_1","AM0X2DZF3F2E3","either","2","621","","","","","","","0","0","1","0.2144285545","","0.8","0.4","0.2","0.6","","","","","0.2618894379","0.2144285545","0.1437935099","0.3102408377","","","","","","","","","","74","J","1","","","163","main_expt",""
"","bandit","243","664346","0.0-205.0-0.0","31703130","wem/bandit_party_1","AM0X2DZF3F2E3","either","2","317","","","","","","","0","0","1","","0.1503677763","0.8","0.4","0.2","0.6","0.2977476978","0.2131293933","0.1503677763","0.2607878409","","","","","","","","","","","","","","75","K","2","","","164","main_expt",""
"","bandit","244","666268","0.0-206.0-0.0","31703130","wem/bandit_party_1","AM0X2DZF3F2E3","either","2","414","","","","","","","1","0","0","0.2470054868","","0.8","0.4","0.2","0.6","","","","","0.3138636066","0.251698227","0.1574825995","0.2470054868","","","","","","","","","","76","L","3","","","165","main_expt",""
"","bandit","245","668163","0.0-207.0-0.0","31703130","wem/bandit_party_1","AM0X2DZF3F2E3","either","2","378","","","","","","","0","0","1","0.2629624785","","0.8","0.4","0.2","0.6","","","","","0.3204338644","0.2831539445","0.1500633275","0.2629624785","","","","","","","","","","76","L","3","","","166","main_expt",""
"","bandit","246","670002","0.0-208.0-0.0","31703130","wem/bandit_party_1","AM0X2DZF3F2E3","either","2","332","","","","","","","0","0","1","0.2745713682","","0.8","0.4","0.2","0.6","","","","","0.3600517585","0.2496169508","0.1137242654","0.2745713682","","","","","","","","","","76","L","3","","","167","main_expt",""
"","bandit","247","671756","0.0-209.0-0.0","31703130","wem/bandit_party_1","AM0X2DZF3F2E3","either","2","245","","","","","","","0","1","0","","0.3678373827","0.8","0.4","0.2","0.6","0.3678373827","0.2315540067","0.145192941","0.2557249153","","","","","","","","","","","","","","72","H","0","img/none_selected.jpg","","168","main_expt",""
"","bandit","248","673498","0.0-210.0-0.0","31703130","wem/bandit_party_1","AM0X2DZF3F2E3","either","2","233","","","","","","","0","0","1","","0.3421512568","0.8","0.4","0.2","0.6","0.3421512568","0.1825517174","0.1863479632","0.2016321063","","","","","","","","","","","","","","72","H","0","img/none_selected.jpg","","169","main_expt",""
"","bandit","249","675226","0.0-211.0-0.0","31703130","wem/bandit_party_1","AM0X2DZF3F2E3","either","2","222","","","","","","","0","0","1","0.3917895485","","0.8","0.4","0.2","0.6","","","","","0.3917895485","0.2535959064","0.142304713","0.2210696627","","","","","","","","","","72","H","0","img/none_selected.jpg","","170","main_expt",""
"","bandit","250","676972","0.0-212.0-0.0","31703130","wem/bandit_party_1","AM0X2DZF3F2E3","either","2","240","","","","","","","0","0","1","","0.3004284576","0.8","0.4","0.2","0.6","0.3206692194","0.3004284576","0.1739768979","0.1627904758","","","","","","","","","","","","","","74","J","1","","","171","main_expt",""
"","bandit","251","678764","0.0-213.0-0.0","31703130","wem/bandit_party_1","AM0X2DZF3F2E3","either","2","279","","","","","","","0","0","1","","0.2172659048","0.8","0.4","0.2","0.6","0.3198600846","0.2716191145","0.2172659048","0.1421076649","","","","","","","","","","","","","","75","K","2","","","172","main_expt",""
"","bandit","252","680555","0.0-214.0-0.0","31703130","wem/bandit_party_1","AM0X2DZF3F2E3","either","2","280","","","","","","","0","0","1","0.165050165","","0.8","0.4","0.2","0.6","","","","","0.2641483633","0.3253138029","0.2419731025","0.165050165","","","","","","","","","","76","L","3","","","173","main_expt",""
"","bandit","253","682602","0.0-215.0-0.0","31703130","wem/bandit_party_1","AM0X2DZF3F2E3","either","2","540","","","","","","","0","0","1","0.2248062597","","0.8","0.4","0.2","0.6","","","","","0.2248062597","0.3419591401","0.2239571331","0.1406738207","","","","","","","","","","72","H","0","img/none_selected.jpg","","174","main_expt",""
"","bandit","254","684146","0.0-216.0-0.0","31703130","wem/bandit_party_1","AM0X2DZF3F2E3","either","2","31","","","","","","","0","1","0","","0.3442692367","0.8","0.4","0.2","0.6","0.2370379408","0.3442692367","0.2311410243","0.138310495","","","","","","","","","","","","","","74","J","1","","","175","main_expt",""
"","bandit","255","685949","0.0-217.0-0.0","31703130","wem/bandit_party_1","AM0X2DZF3F2E3","either","2","290","","","","","","","0","0","1","","0.3397266539","0.8","0.4","0.2","0.6","0.2157433706","0.3397266539","0.2610077479","0.1675243642","","","","","","","","","","","","","","74","J","1","","","176","main_expt",""
"","bandit","256","687659","0.0-218.0-0.0","31703130","wem/bandit_party_1","AM0X2DZF3F2E3","either","2","200","","","","","","","0","0","1","0.2997078274","","0.8","0.4","0.2","0.6","","","","","0.2014791824","0.2997078274","0.2780938204","0.1919885971","","","","","","","","","","74","J","1","","","177","main_expt",""
"","bandit","257","689451","0.0-219.0-0.0","31703130","wem/bandit_party_1","AM0X2DZF3F2E3","either","2","283","","","","","","","0","0","1","","0.3151752793","0.8","0.4","0.2","0.6","0.1913564418","0.3064007527","0.3151752793","0.2365392944","","","","","","","","","","","","","","75","K","2","","","178","main_expt",""
"","bandit","258","691340","0.0-220.0-0.0","31703130","wem/bandit_party_1","AM0X2DZF3F2E3","either","2","381","","","","","","","0","1","0","","0.2509455726","0.8","0.4","0.2","0.6","0.1980728016","0.3533432679","0.2799621139","0.2509455726","","","","","","","","","","","","","","76","L","3","","","179","main_expt",""
"","bandit","259","693123","0.0-221.0-0.0","31703130","wem/bandit_party_1","AM0X2DZF3F2E3","either","2","273","","","","","","","0","0","1","0.2767223981","","0.8","0.4","0.2","0.6","","","","","0.1833491223","0.3652522579","0.3170936092","0.2767223981","","","","","","","","","","76","L","3","","","180","main_expt",""
"","bandit","260","694922","0.0-222.0-0.0","31703130","wem/bandit_party_1","AM0X2DZF3F2E3","either","2","293","","","","","","","0","0","1","0.314600373","","0.8","0.4","0.2","0.6","","","","","0.1342686697","0.3383156657","0.28101752","0.314600373","","","","","","","","","","76","L","3","","","181","main_expt",""
"","bandit","261","696659","0.0-223.0-0.0","31703130","wem/bandit_party_1","AM0X2DZF3F2E3","either","2","229","","","","","","","0","0","1","0.1636660304","","0.8","0.4","0.2","0.6","","","","","0.1636660304","0.2902116232","0.3043342224","0.3943610609","","","","","","","","","","72","H","0","img/none_selected.jpg","","182","main_expt",""
"","bandit","262","698413","0.0-224.0-0.0","31703130","wem/bandit_party_1","AM0X2DZF3F2E3","either","2","246","","","","","","","0","0","1","","0.3026157476","0.8","0.4","0.2","0.6","0.136761637","0.3026157476","0.3192524042","0.3586422101","","","","","","","","","","","","","","74","J","1","","","183","main_expt",""
"","bandit","263","700148","0.0-225.0-0.0","31703130","wem/bandit_party_1","AM0X2DZF3F2E3","either","2","225","","","","","","","0","0","1","","0.3332516821","0.8","0.4","0.2","0.6","0.1685989701","0.3360229169","0.3332516821","0.3879999062","","","","","","","","","","","","","","75","K","2","","","184","main_expt",""
"","bandit","264","702052","0.0-226.0-0.0","31703130","wem/bandit_party_1","AM0X2DZF3F2E3","either","2","394","","","","","","","0","0","1","","0.3831340227","0.8","0.4","0.2","0.6","0.1663529744","0.3336456265","0.3228184693","0.3831340227","","","","","","","","","","","","","","76","L","3","","","185","main_expt",""
"","bandit","265","703828","0.0-227.0-0.0","31703130","wem/bandit_party_1","AM0X2DZF3F2E3","either","2","266","","","","","","","0","0","1","0.1916836285","","0.8","0.4","0.2","0.6","","","","","0.1916836285","0.3308881938","0.3111703144","0.3999004662","","","","","","","","","","72","H","0","img/none_selected.jpg","","186","main_expt",""
"","bandit","266","705580","0.0-228.0-0.0","31703130","wem/bandit_party_1","AM0X2DZF3F2E3","either","2","238","","","","","","","0","1","0","","0.325530054","0.8","0.4","0.2","0.6","0.1686829448","0.325530054","0.3353611299","0.3875363153","","","","","","","","","","","","","","74","J","1","","","187","main_expt",""
"","bandit","267","707355","0.0-229.0-0.0","31703130","wem/bandit_party_1","AM0X2DZF3F2E3","either","2","264","","","","","","","0","0","1","","0.3055482451","0.8","0.4","0.2","0.6","0.1461675531","0.3055482451","0.3646937268","0.3875691392","","","","","","","","","","","","","","74","J","1","","","188","main_expt",""
"","bandit","268","709123","0.0-230.0-0.0","31703130","wem/bandit_party_1","AM0X2DZF3F2E3","either","2","260","","","","","","","0","0","1","0.3002345065","","0.8","0.4","0.2","0.6","","","","","0.1382971047","0.3002345065","0.3891323825","0.4166866882","","","","","","","","","","74","J","1","","","189","main_expt",""
"","bandit","269","710931","0.0-231.0-0.0","31703130","wem/bandit_party_1","AM0X2DZF3F2E3","either","2","301","","","","","","","0","0","1","","0.3860741766","0.8","0.4","0.2","0.6","0.1898135375","0.2693931213","0.3860741766","0.4124474499","","","","","","","","","","","","","","75","K","2","","","190","main_expt",""
"","bandit","270","712826","0.0-232.0-0.0","31703130","wem/bandit_party_1","AM0X2DZF3F2E3","either","2","388","","","","","","","0","1","0","","0.3864243721","0.8","0.4","0.2","0.6","0.1264917812","0.3009284261","0.3864243721","0.3638199534","","","","","","","","","","","","","","75","K","2","","","191","main_expt",""
"","bandit","271","714562","0.0-233.0-0.0","31703130","wem/bandit_party_1","AM0X2DZF3F2E3","either","2","229","","","","","","","0","1","0","","0.400448014","0.8","0.4","0.2","0.6","0.1185409567","0.3157917784","0.400448014","0.3711146034","","","","","","","","","","","","","","75","K","2","","","192","main_expt",""
"","bandit","272","716314","0.0-234.0-0.0","31703130","wem/bandit_party_1","AM0X2DZF3F2E3","either","2","246","","","","","","","0","0","1","","0.3895367297","0.8","0.4","0.2","0.6","0.09837948322","0.2999212614","0.3895367297","0.3654165885","","","","","","","","","","","","","","75","K","2","","","193","main_expt",""
"","bandit","273","718045","0.0-235.0-0.0","31703130","wem/bandit_party_1","AM0X2DZF3F2E3","either","2","221","","","","","","","1","0","0","0.4032313792","","0.8","0.4","0.2","0.6","","","","","0.137690802","0.3287494418","0.4032313792","0.3537818584","","","","","","","","","","75","K","2","","","194","main_expt",""
"","bandit","274","719847","0.0-236.0-0.0","31703130","wem/bandit_party_1","AM0X2DZF3F2E3","either","2","288","","","","","","","0","0","1","0.337234763","","0.8","0.4","0.2","0.6","","","","","0.1683354775","0.3031978913","0.337234763","0.3597494918","","","","","","","","","","75","K","2","","","195","main_expt",""
"","bandit","275","721603","0.0-237.0-0.0","31703130","wem/bandit_party_1","AM0X2DZF3F2E3","either","2","243","","","","","","","0","1","0","","0.3950764453","0.8","0.4","0.2","0.6","0.1561951964","0.2901303692","0.3950764453","0.3479121901","","","","","","","","","","","","","","75","K","2","","","196","main_expt",""
"","bandit","276","723444","0.0-238.0-0.0","31703130","wem/bandit_party_1","AM0X2DZF3F2E3","either","2","331","","","","","","","0","0","1","","0.4193743727","0.8","0.4","0.2","0.6","0.1329868482","0.2444781728","0.4193743727","0.3596292454","","","","","","","","","","","","","","75","K","2","","","197","main_expt",""
"","bandit","277","725147","0.0-239.0-0.0","31703130","wem/bandit_party_1","AM0X2DZF3F2E3","either","2","194","","","","","","","0","0","1","","0.4375347816","0.8","0.4","0.2","0.6","0.1730826789","0.2140047665","0.4375347816","0.3555371828","","","","","","","","","","","","","","75","K","2","","","198","main_expt",""
"","bandit","278","726890","0.0-240.0-0.0","31703130","wem/bandit_party_1","AM0X2DZF3F2E3","either","2","232","","","","","","","0","0","1","","0.4016486285","0.8","0.4","0.2","0.6","0.1385649096","0.2077842613","0.4315030007","0.4016486285","","","","","","","","","","","","","","76","L","3","","","199","main_expt",""
"","bandit","279","728658","0.0-241.0-0.0","31703130","wem/bandit_party_1","AM0X2DZF3F2E3","either","2","262","","","","","","","0","0","1","","0.1941139053","0.8","0.4","0.2","0.6","0.1941139053","0.180488049","0.4340108373","0.3871107612","","","","","","","","","","","","","","72","H","0","img/none_selected.jpg","","200","main_expt",""
"","bandit","280","730445","0.0-242.0-0.0","31703130","wem/bandit_party_1","AM0X2DZF3F2E3","either","2","274","","","","","","","0","0","1","0.2084987087","","0.8","0.4","0.2","0.6","","","","","0.1825013029","0.2084987087","0.441078118","0.3856539452","","","","","","","","","","74","J","1","","","201","main_expt",""
"","bandit","281","732363","0.0-243.0-0.0","31703130","wem/bandit_party_1","AM0X2DZF3F2E3","either","2","407","","","","","","","0","0","1","0.4143682719","","0.8","0.4","0.2","0.6","","","","","0.162440572","0.1869669721","0.4143682719","0.358588673","","","","","","","","","","75","K","2","","","202","main_expt",""
"","bandit","282","734283","0.0-244.0-0.0","31703130","wem/bandit_party_1","AM0X2DZF3F2E3","either","2","409","","","","","","","0","0","1","","0.3460881607","0.8","0.4","0.2","0.6","0.1914238456","0.1383076553","0.4280720422","0.3460881607","","","","","","","","","","","","","","76","L","3","","","203","main_expt",""
"","bandit","283","736013","0.0-245.0-0.0","31703130","wem/bandit_party_1","AM0X2DZF3F2E3","either","2","219","","","","","","","0","0","1","0.1849793247","","0.8","0.4","0.2","0.6","","","","","0.1849793247","0.1656187697","0.4113524858","0.3091432968","","","","","","","","","","72","H","0","img/none_selected.jpg","","204","main_expt",""
"","bandit","284","737763","0.0-246.0-0.0","31703130","wem/bandit_party_1","AM0X2DZF3F2E3","either","2","238","","","","","","","0","1","0","","0.1699285253","0.8","0.4","0.2","0.6","0.1722293799","0.1699285253","0.4151465815","0.3016396897","","","","","","","","","","","","","","74","J","1","","","205","main_expt",""
"","bandit","285","739499","0.0-247.0-0.0","31703130","wem/bandit_party_1","AM0X2DZF3F2E3","either","2","224","","","","","","","0","0","1","","0.161732949","0.8","0.4","0.2","0.6","0.1625694713","0.161732949","0.4002359997","0.3300702997","","","","","","","","","","","","","","74","J","1","","","206","main_expt",""
"","bandit","286","741140","0.0-248.0-0.0","31703130","wem/bandit_party_1","AM0X2DZF3F2E3","either","2","132","","","","","","","0","0","1","0.1699017951","","0.8","0.4","0.2","0.6","","","","","0.1079769143","0.1699017951","0.3692387261","0.2648848683","","","","","","","","","","74","J","1","","","207","main_expt",""
"","bandit","287","742890","0.0-249.0-0.0","31703130","wem/bandit_party_1","AM0X2DZF3F2E3","either","2","241","","","","","","","0","0","1","","0.3283471685","0.8","0.4","0.2","0.6","0.1380178959","0.1592107695","0.3283471685","0.2502792914","","","","","","","","","","","","","","75","K","2","","","208","main_expt",""
"","bandit","288","744666","0.0-250.0-0.0","31703130","wem/bandit_party_1","AM0X2DZF3F2E3","either","2","266","","","","","","","0","1","0","","0.2770073026","0.8","0.4","0.2","0.6","0.1538506734","0.1659907122","0.2924758898","0.2770073026","","","","","","","","","","","","","","76","L","3","","","209","main_expt",""
"","bandit","289","746427","0.0-251.0-0.0","31703130","wem/bandit_party_1","AM0X2DZF3F2E3","either","2","244","","","","","","","0","1","0","","0.3451435735","0.8","0.4","0.2","0.6","0.1406222791","0.229525517","0.2279470939","0.3451435735","","","","","","","","","","","","","","76","L","3","","","210","main_expt",""
"","bandit","290","748179","0.0-252.0-0.0","31703130","wem/bandit_party_1","AM0X2DZF3F2E3","either","2","245","","","","","","","1","0","0","0.3514478275","","0.8","0.4","0.2","0.6","","","","","0.08987887408","0.2434605193","0.2131844406","0.3514478275","","","","","","","","","","76","L","3","","","211","main_expt",""
"","bandit","291","749931","0.0-253.0-0.0","31703130","wem/bandit_party_1","AM0X2DZF3F2E3","either","2","240","","","","","","","0","0","1","","0.3579324364","0.8","0.4","0.2","0.6","0.1277875359","0.1633214123","0.1601793481","0.3579324364","","","","","","","","","","","","","","76","L","3","","","212","main_expt",""
"","bandit","292","751531","0.0-254.0-0.0","31703130","wem/bandit_party_1","AM0X2DZF3F2E3","either","2","94","","","","","","","0","0","1","0.3231243524","","0.8","0.4","0.2","0.6","","","","","0.134271297","0.1014835246","0.1354109392","0.3231243524","","","","","","","","","","76","L","3","","","213","main_expt",""
"","bandit","293","753187","0.0-255.0-0.0","31703130","wem/bandit_party_1","AM0X2DZF3F2E3","either","2","148","","","","","","","1","0","0","0.1385204111","","0.8","0.4","0.2","0.6","","","","","0.1385204111","0.09587264096","0.1142105534","0.2798540136","","","","","","","","","","72","H","0","img/none_selected.jpg","","214","main_expt",""
"","bandit","294","754915","0.0-256.0-0.0","31703130","wem/bandit_party_1","AM0X2DZF3F2E3","either","2","219","","","","","","","0","0","1","","0.1089132689","0.8","0.4","0.2","0.6","0.1089132689","0.08342689115","0.1031311673","0.2469391402","","","","","","","","","","","","","","72","H","0","img/none_selected.jpg","","215","main_expt",""
"","bandit","295","756571","0.0-257.0-0.0","31703130","wem/bandit_party_1","AM0X2DZF3F2E3","either","2","147","","","","","","","0","0","1","0.1299508563","","0.8","0.4","0.2","0.6","","","","","0.1299508563","0.05361264496","0.1031732366","0.3211823944","","","","","","","","","","72","H","0","img/none_selected.jpg","","216","main_expt",""
"","bandit","296","758266","0.0-258.0-0.0","31703130","wem/bandit_party_1","AM0X2DZF3F2E3","either","2","183","","","","","","","1","0","0","0.09912420903","","0.8","0.4","0.2","0.6","","","","","0.131109262","0.09912420903","0.1188097379","0.3545519007","","","","","","","","","","74","J","1","","","217","main_expt",""
"","bandit","297","759971","0.0-259.0-0.0","31703130","wem/bandit_party_1","AM0X2DZF3F2E3","either","2","196","","","","","","","0","1","0","","0.1021137889","0.8","0.4","0.2","0.6","0.1039495344","0.1021137889","0.1096623481","0.3781539282","","","","","","","","","","","","","","74","J","1","","","218","main_expt",""
"","bandit","298","761699","0.0-260.0-0.0","31703130","wem/bandit_party_1","AM0X2DZF3F2E3","either","2","218","","","","","","","0","0","1","","0.1025207236","0.8","0.4","0.2","0.6","0.09488552944","0.1025207236","0.08679630722","0.3674409598","","","","","","","","","","","","","","74","J","1","","","219","main_expt",""
"","bandit","299","763258","0.0-261.0-0.0","31703130","wem/bandit_party_1","AM0X2DZF3F2E3","either","2","50","","","","","","","0","0","1","0.1049734862","","0.8","0.4","0.2","0.6","","","","","0.1311925698","0.1049734862","0.1482089448","0.315237632","","","","","","","","","","74","J","1","","","220","main_expt",""
"","bandit","300","764859","0.0-262.0-0.0","31703130","wem/bandit_party_1","AM0X2DZF3F2E3","either","2","91","","","","","","","0","0","1","","0.217172314","0.8","0.4","0.2","0.6","0.08224132258","0.08244295151","0.217172314","0.3572442142","","","","","","","","","","","","","","75","K","2","","","221","main_expt",""
"","bandit","301","766748","0.0-263.0-0.0","31703130","wem/bandit_party_1","AM0X2DZF3F2E3","either","2","380","","","","","","","0","0","1","0.2796125419","","0.8","0.4","0.2","0.6","","","","","0.06870998364","0.09815111748","0.2227738938","0.2796125419","","","","","","","","","","76","L","3","","","222","main_expt",""
"","bandit","302","768498","0.0-264.0-0.0","31703130","wem/bandit_party_1","AM0X2DZF3F2E3","either","2","240","","","","","","","0","0","1","0.111762886","","0.8","0.4","0.2","0.6","","","","","0.111762886","0.09925351505","0.2768694491","0.2265565182","","","","","","","","","","72","H","0","img/none_selected.jpg","","223","main_expt",""
"","bandit","303","770202","0.0-265.0-0.0","31703130","wem/bandit_party_1","AM0X2DZF3F2E3","either","2","197","","","","","","","0","0","1","0.07842644678","","0.8","0.4","0.2","0.6","","","","","0.09652303785","0.07842644678","0.2895694018","0.1727872262","","","","","","","","","","74","J","1","","","224","main_expt",""
"","bandit","304","771987","0.0-266.0-0.0","31703130","wem/bandit_party_1","AM0X2DZF3F2E3","either","2","275","","","","","","","0","1","0","","0.3515154126","0.8","0.4","0.2","0.6","0.09424892582","0.05284632075","0.3515154126","0.1580797834","","","","","","","","","","","","","","75","K","2","","","225","main_expt",""
"","bandit","305","773618","0.0-267.0-0.0","31703130","wem/bandit_party_1","AM0X2DZF3F2E3","either","2","119","","","","","","","0","0","1","","0.3960872924","0.8","0.4","0.2","0.6","0.1094697254","0.06788221328","0.3960872924","0.1206031336","","","","","","","","","","","","","","75","K","2","","","226","main_expt",""
"","bandit","306","775323","0.0-268.0-0.0","31703130","wem/bandit_party_1","AM0X2DZF3F2E3","either","2","198","","","","","","","0","1","0","","0.3301105445","0.8","0.4","0.2","0.6","0.1055794081","0.04226868229","0.3301105445","0.1218099769","","","","","","","","","","","","","","75","K","2","","","227","main_expt",""
"","bandit","307","777027","0.0-269.0-0.0","31703130","wem/bandit_party_1","AM0X2DZF3F2E3","either","2","196","","","","","","","0","0","1","0.3679650562","","0.8","0.4","0.2","0.6","","","","","0.1210232629","0.06174471126","0.3679650562","0.08458740206","","","","","","","","","","75","K","2","","","228","main_expt",""
"","bandit","308","778747","0.0-270.0-0.0","31703130","wem/bandit_party_1","AM0X2DZF3F2E3","either","2","213","","","","","","","0","0","1","","0.3413725311","0.8","0.4","0.2","0.6","0.1249199002","0.06122033102","0.3413725311","0.06311990622","","","","","","","","","","","","","","75","K","2","","","229","main_expt",""
"","bandit","309","780522","0.0-271.0-0.0","31703130","wem/bandit_party_1","AM0X2DZF3F2E3","either","2","267","","","","","","","0","0","1","0.3652503211","","0.8","0.4","0.2","0.6","","","","","0.1423167866","0.09369367087","0.3652503211","0.04674316758","","","","","","","","","","75","K","2","","","230","main_expt",""
"","bandit","310","782373","0.0-272.0-0.0","31703130","wem/bandit_party_1","AM0X2DZF3F2E3","either","2","341","","","","","","","0","0","1","0.06697327866","","0.8","0.4","0.2","0.6","","","","","0.1441411413","0.1378364932","0.3774172636","0.06697327866","","","","","","","","","","76","L","3","","","231","main_expt",""
"","bandit","311","783970","0.0-273.0-0.0","31703130","wem/bandit_party_1","AM0X2DZF3F2E3","either","2","88","","","","","","","0","0","1","0.1132866493","","0.8","0.4","0.2","0.6","","","","","0.1132866493","0.1138343256","0.3507397895","0.08617656909","","","","","","","","","","72","H","0","img/none_selected.jpg","","232","main_expt",""
"","bandit","312","785684","0.0-274.0-0.0","31703130","wem/bandit_party_1","AM0X2DZF3F2E3","either","2","202","","","","","","","0","0","1","","0.1602674987","0.8","0.4","0.2","0.6","0.07587191469","0.1602674987","0.3228668676","0.08388286328","","","","","","","","","","","","","","74","J","1","","","233","main_expt",""
"","bandit","313","787426","0.0-275.0-0.0","31703130","wem/bandit_party_1","AM0X2DZF3F2E3","either","2","234","","","","","","","0","0","1","0.3219168209","","0.8","0.4","0.2","0.6","","","","","0.08330376307","0.1399599793","0.3219168209","0.08303297831","","","","","","","","","","75","K","2","","","234","main_expt",""
"","bandit","314","789195","0.0-276.0-0.0","31703130","wem/bandit_party_1","AM0X2DZF3F2E3","either","2","260","","","","","","","0","0","1","","0.08228619446","0.8","0.4","0.2","0.6","0.07960395758","0.1577883936","0.2907257894","0.08228619446","","","","","","","","","","","","","","76","L","3","","","235","main_expt",""
