"consent","trial_type","trial_index","time_elapsed","internal_node_id","subjID","study","MID","cond","drift","rt","responses","button_pressed","key_press","like","value","connected","gems","bombs","no_reward","GemPrChosen","BombPrChosen","GainOverPainPr_0","GainOverPainPr_1","GainOverPainPr_2","GainOverPainPr_3","LosePr_0","LosePr_1","LosePr_2","LosePr_3","WinPr_0","WinPr_1","WinPr_2","WinPr_3","Q0","Q1","Q2","gender","age","ethnicity","label","expt_phase","target","respCharCode","respKey","respChoiceNum","respChoice","practice","trial_counter","trial_label","Q0_index","view_history"
"GDM/GDM_behavioral_consent_30min_online.html","consent","0","10637","0.0-0.0","32252382","wem/bandit_party_1","A3NKTB1JU5AKIW","either","4","","","","","","","","","","","","","","","","","","","","","","","","","","","","","","","","","","","","","","","","","",""
"","survey-text","1","18918","0.0-1.0","32252382","wem/bandit_party_1","A3NKTB1JU5AKIW","either","4","7272","{""Q0"":""A3NKTB1JU5AKIW""}","","","","","","","","","","","","","","","","","","","","","","","","","","","","","","","","","","","","","","","",""
"","button-response","2","21380","0.0-2.0","32252382","wem/bandit_party_1","A3NKTB1JU5AKIW","either","4","1455","","1","","","","","","","","","","","","","","","","","","","","","","","","","","","","","","","","","","","","","","",""
"","text-replacement","3","44425","0.0-3.0","32252382","wem/bandit_party_1","A3NKTB1JU5AKIW","either","4","22042","","","32","","","","","","","","","","","","","","","","","","","","","","","","","","","","","","","","","","","","","",""
"","text-replacement","4","60498","0.0-4.0","32252382","wem/bandit_party_1","A3NKTB1JU5AKIW","either","4","16071","","","32","","","","","","","","","","","","","","","","","","","","","","","","","","","","","","","","","","","","","",""
"","identification","5","70550","0.0-6.0-0.0","32252382","wem/bandit_party_1","A3NKTB1JU5AKIW","either","4","10033","","","","6","6","5","","","","","","","","","","","","","","","","","","","","","","","","pre","identification_pre","the Democratic Party","","","","","","","","",""
"","identification","6","80612","0.0-6.0-1.0","32252382","wem/bandit_party_1","A3NKTB1JU5AKIW","either","4","9047","","","","1","2","0","","","","","","","","","","","","","","","","","","","","","","","","pre","identification_pre","the Republican party","","","","","","","","",""
"","text-replacement","7","109523","0.0-7.0","32252382","wem/bandit_party_1","A3NKTB1JU5AKIW","either","4","27907","","","32","","","","","","","","","","","","","","","","","","","","","","","","","","","","","","","","","","","","","",""
"","text-replacement","8","116978","0.0-8.0","32252382","wem/bandit_party_1","A3NKTB1JU5AKIW","either","4","7452","","","32","","","","","","","","","","","","","","","","","","","","","","","","","","","","","","","","","","","","","",""
"","text-replacement","9","121868","0.0-9.0","32252382","wem/bandit_party_1","A3NKTB1JU5AKIW","either","4","4887","","","32","","","","","","","","","","","","","","","","","","","","","","","","","","","","","","","","","","","","","",""
"","text-replacement","10","126705","0.0-10.0","32252382","wem/bandit_party_1","A3NKTB1JU5AKIW","either","4","4835","","","32","","","","","","","","","","","","","","","","","","","","","","","","","","","","","","","","","","","","","",""
"","text-replacement","11","133946","0.0-11.0","32252382","wem/bandit_party_1","A3NKTB1JU5AKIW","either","4","7239","","","32","","","","","","","","","","","","","","","","","","","","","","","","","","","","","","","","","","","","","",""
"","bandit","12","140161","0.0-12.0-0.0","32252382","wem/bandit_party_1","A3NKTB1JU5AKIW","either","4","4707","","","","","","","0","0","1","0","0","","","","","0","","","","0","","","","","","","","","","","","","74","J","0","img/none_selected_demo.jpg","true","0","","",""
"","bandit","13","142465","0.0-13.0-0.0","32252382","wem/bandit_party_1","A3NKTB1JU5AKIW","either","4","796","","","","","","","0","0","1","0","0","","","","","0","","","","0","","","","","","","","","","","","","75","K","0","img/none_selected_demo.jpg","true","0","","",""
"","text-replacement","14","149491","0.0-14.0","32252382","wem/bandit_party_1","A3NKTB1JU5AKIW","either","4","7024","","","32","","","","","","","","","","","","","","","","","","","","","","","","","","","","","","","","","","","","","",""
"","text-replacement","15","161731","0.0-15.0","32252382","wem/bandit_party_1","A3NKTB1JU5AKIW","either","4","12238","","","32","","","","","","","","","","","","","","","","","","","","","","","","","","","","","","","","","","","","","",""
"","text-replacement","16","170577","0.0-16.0","32252382","wem/bandit_party_1","A3NKTB1JU5AKIW","either","4","8844","","","32","","","","","","","","","","","","","","","","","","","","","","","","","","","","","","","","","","","","","",""
"","text-replacement","17","176890","0.0-17.0","32252382","wem/bandit_party_1","A3NKTB1JU5AKIW","either","4","6310","","","32","","","","","","","","","","","","","","","","","","","","","","","","","","","","","","","","","","","","","",""
"","bandit","18","179320","0.0-18.0-0.0","32252382","wem/bandit_party_1","A3NKTB1JU5AKIW","either","4","923","","","","","","","0","1","0","","0.8","0.5","0.5","","","0.8","0.2","","","","","","","","","","","","","","","","74","J","0","img/none_selected_demo.jpg","true","0","80_20_practice","",""
"","bandit","19","181400","0.0-18.0-1.0","32252382","wem/bandit_party_1","A3NKTB1JU5AKIW","either","4","575","","","","","","","0","1","0","","0.8","0.5","0.5","","","0.8","0.2","","","","","","","","","","","","","","","","74","J","0","img/none_selected_demo.jpg","true","0","80_20_practice","",""
"","bandit","20","183240","0.0-18.0-2.0","32252382","wem/bandit_party_1","A3NKTB1JU5AKIW","either","4","333","","","","","","","0","1","0","","0.8","0.5","0.5","","","0.8","0.2","","","","","","","","","","","","","","","","74","J","0","img/none_selected_demo.jpg","true","0","80_20_practice","",""
"","bandit","21","185128","0.0-18.0-3.0","32252382","wem/bandit_party_1","A3NKTB1JU5AKIW","either","4","383","","","","","","","0","0","1","","0.2","0.5","0.5","","","0.8","0.2","","","","","","","","","","","","","","","","75","K","1","","true","0","80_20_practice","",""
"","bandit","22","187454","0.0-18.0-4.0","32252382","wem/bandit_party_1","A3NKTB1JU5AKIW","either","4","821","","","","","","","0","0","1","0.2","","0.5","0.5","","","","","","","0.8","0.2","","","","","","","","","","","","75","K","1","","true","0","80_20_practice","",""
"","bandit","23","189360","0.0-18.0-5.0","32252382","wem/bandit_party_1","A3NKTB1JU5AKIW","either","4","400","","","","","","","0","0","1","","0.2","0.5","0.5","","","0.8","0.2","","","","","","","","","","","","","","","","75","K","1","","true","0","80_20_practice","",""
"","bandit","24","191215","0.0-18.0-6.0","32252382","wem/bandit_party_1","A3NKTB1JU5AKIW","either","4","349","","","","","","","1","0","0","0.8","","0.5","0.5","","","","","","","0.8","0.2","","","","","","","","","","","","74","J","0","img/none_selected_demo.jpg","true","0","80_20_practice","",""
"","bandit","25","193089","0.0-18.0-7.0","32252382","wem/bandit_party_1","A3NKTB1JU5AKIW","either","4","367","","","","","","","1","0","0","0.8","","0.5","0.5","","","","","","","0.8","0.2","","","","","","","","","","","","74","J","0","img/none_selected_demo.jpg","true","0","80_20_practice","",""
"","bandit","26","195025","0.0-18.0-8.0","32252382","wem/bandit_party_1","A3NKTB1JU5AKIW","either","4","428","","","","","","","0","1","0","","0.8","0.5","0.5","","","0.8","0.2","","","","","","","","","","","","","","","","74","J","0","img/none_selected_demo.jpg","true","0","80_20_practice","",""
"","bandit","27","196922","0.0-18.0-9.0","32252382","wem/bandit_party_1","A3NKTB1JU5AKIW","either","4","388","","","","","","","1","0","0","0.8","","0.5","0.5","","","","","","","0.8","0.2","","","","","","","","","","","","74","J","0","img/none_selected_demo.jpg","true","0","80_20_practice","",""
"","bandit","28","198799","0.0-18.0-10.0","32252382","wem/bandit_party_1","A3NKTB1JU5AKIW","either","4","372","","","","","","","0","0","1","","0.8","0.5","0.5","","","0.8","0.2","","","","","","","","","","","","","","","","74","J","0","img/none_selected_demo.jpg","true","0","80_20_practice","",""
"","bandit","29","200641","0.0-18.0-11.0","32252382","wem/bandit_party_1","A3NKTB1JU5AKIW","either","4","335","","","","","","","1","0","0","0.8","","0.5","0.5","","","","","","","0.8","0.2","","","","","","","","","","","","74","J","0","img/none_selected_demo.jpg","true","0","80_20_practice","",""
"","bandit","30","202521","0.0-18.0-12.0","32252382","wem/bandit_party_1","A3NKTB1JU5AKIW","either","4","373","","","","","","","0","0","1","","0.8","0.5","0.5","","","0.8","0.2","","","","","","","","","","","","","","","","74","J","0","img/none_selected_demo.jpg","true","0","80_20_practice","",""
"","bandit","31","204287","0.0-18.0-13.0","32252382","wem/bandit_party_1","A3NKTB1JU5AKIW","either","4","259","","","","","","","0","0","1","0.8","","0.5","0.5","","","","","","","0.8","0.2","","","","","","","","","","","","74","J","0","img/none_selected_demo.jpg","true","0","80_20_practice","",""
"","bandit","32","206159","0.0-18.0-14.0","32252382","wem/bandit_party_1","A3NKTB1JU5AKIW","either","4","365","","","","","","","0","1","0","","0.8","0.5","0.5","","","0.8","0.2","","","","","","","","","","","","","","","","74","J","0","img/none_selected_demo.jpg","true","0","80_20_practice","",""
"","bandit","33","208048","0.0-18.0-15.0","32252382","wem/bandit_party_1","A3NKTB1JU5AKIW","either","4","381","","","","","","","1","0","0","0.8","","0.5","0.5","","","","","","","0.8","0.2","","","","","","","","","","","","74","J","0","img/none_selected_demo.jpg","true","0","80_20_practice","",""
"","bandit","34","210135","0.0-18.0-16.0","32252382","wem/bandit_party_1","A3NKTB1JU5AKIW","either","4","582","","","","","","","0","0","1","0.8","","0.5","0.5","","","","","","","0.8","0.2","","","","","","","","","","","","74","J","0","img/none_selected_demo.jpg","true","0","80_20_practice","",""
"","bandit","35","211896","0.0-18.0-17.0","32252382","wem/bandit_party_1","A3NKTB1JU5AKIW","either","4","255","","","","","","","0","1","0","","0.8","0.5","0.5","","","0.8","0.2","","","","","","","","","","","","","","","","74","J","0","img/none_selected_demo.jpg","true","0","80_20_practice","",""
"","bandit","36","213847","0.0-18.0-18.0","32252382","wem/bandit_party_1","A3NKTB1JU5AKIW","either","4","445","","","","","","","1","0","0","0.2","","0.5","0.5","","","","","","","0.8","0.2","","","","","","","","","","","","75","K","1","","true","0","80_20_practice","",""
"","bandit","37","215760","0.0-18.0-19.0","32252382","wem/bandit_party_1","A3NKTB1JU5AKIW","either","4","407","","","","","","","0","0","1","0.2","","0.5","0.5","","","","","","","0.8","0.2","","","","","","","","","","","","75","K","1","","true","0","80_20_practice","",""
"","text-replacement","38","219353","0.0-19.0","32252382","wem/bandit_party_1","A3NKTB1JU5AKIW","either","4","3591","","","32","","","","","","","","","","","","","","","","","","","","","","","","","","","","","","","","","","","","","",""
"","bandit","39","221769","0.0-20.0-0.0","32252382","wem/bandit_party_1","A3NKTB1JU5AKIW","either","4","909","","","","","","","1","0","0","1","0","","","","","0","1","","","1","0","","","","","","","","","","","","74","J","0","img/none_selected_demo.jpg","true","0","","",""
"","text-replacement","40","228904","0.0-21.0","32252382","wem/bandit_party_1","A3NKTB1JU5AKIW","either","4","7133","","","32","","","","","","","","","","","","","","","","","","","","","","","","","","","","","","","","","","","","","",""
"","text-replacement","41","233017","0.0-22.0","32252382","wem/bandit_party_1","A3NKTB1JU5AKIW","either","4","4110","","","32","","","","","","","","","","","","","","","","","","","","","","","","","","","","","","","","","","","","","",""
"","text-replacement","42","236289","0.0-23.0","32252382","wem/bandit_party_1","A3NKTB1JU5AKIW","either","4","3270","","","32","","","","","","","","","","","","","","","","","","","","","","","","","","","","","","","","","","","","","",""
"","text-replacement","43","240817","0.0-24.0","32252382","wem/bandit_party_1","A3NKTB1JU5AKIW","either","4","4526","","","32","","","","","","","","","","","","","","","","","","","","","","","","","","","","","","","","","","","","","",""
"","text-replacement","44","250592","0.0-25.0","32252382","wem/bandit_party_1","A3NKTB1JU5AKIW","either","4","9772","","","32","","","","","","","","","","","","","","","","","","","","","","","","","","","","","","","","","","","","","",""
"","text-replacement","45","256617","0.0-26.0","32252382","wem/bandit_party_1","A3NKTB1JU5AKIW","either","4","6021","","","32","","","","","","","","","","","","","","","","","","","","","","","","","","","","","","","","","","","","","",""
"","text-replacement","46","263176","0.0-27.0","32252382","wem/bandit_party_1","A3NKTB1JU5AKIW","either","4","6557","","","32","","","","","","","","","","","","","","","","","","","","","","","","","","","","","","","","","","","","","",""
"","text-replacement","47","268001","0.0-28.0","32252382","wem/bandit_party_1","A3NKTB1JU5AKIW","either","4","4823","","","32","","","","","","","","","","","","","","","","","","","","","","","","","","","","","","","","","","","","","",""
"","text-replacement","48","277984","0.0-29.0","32252382","wem/bandit_party_1","A3NKTB1JU5AKIW","either","4","9981","","","32","","","","","","","","","","","","","","","","","","","","","","","","","","","","","","","","","","","","","",""
"","text-replacement","49","286928","0.0-30.0","32252382","wem/bandit_party_1","A3NKTB1JU5AKIW","either","4","8941","","","32","","","","","","","","","","","","","","","","","","","","","","","","","","","","","","","","","","","","","",""
"","text-replacement","50","291960","0.0-31.0","32252382","wem/bandit_party_1","A3NKTB1JU5AKIW","either","4","5030","","","32","","","","","","","","","","","","","","","","","","","","","","","","","","","","","","","","","","","","","",""
"","bandit","51","294415","0.0-32.0-0.0","32252382","wem/bandit_party_1","A3NKTB1JU5AKIW","either","4","947","","","","","","","1","0","0","0.8","","0.5","0.5","0.5","0.5","","","","","0.8","0.2","0.6","0.2","","","","","","","","","","72","H","0","img/none_selected.jpg","true","0","full_practice","",""
"","bandit","52","296281","0.0-32.0-1.0","32252382","wem/bandit_party_1","A3NKTB1JU5AKIW","either","4","359","","","","","","","0","0","1","","0.6","0.5","0.5","0.5","0.5","0.8","0.2","0.6","0.2","","","","","","","","","","","","","","75","K","2","","true","0","full_practice","",""
"","bandit","53","297962","0.0-32.0-2.0","32252382","wem/bandit_party_1","A3NKTB1JU5AKIW","either","4","171","","","","","","","0","1","0","","0.6","0.5","0.5","0.5","0.5","0.8","0.2","0.6","0.2","","","","","","","","","","","","","","75","K","2","","true","0","full_practice","",""
"","bandit","54","299512","0.0-32.0-3.0","32252382","wem/bandit_party_1","A3NKTB1JU5AKIW","either","4","42","","","","","","","0","0","1","","0.6","0.5","0.5","0.5","0.5","0.8","0.2","0.6","0.2","","","","","","","","","","","","","","75","K","2","","true","0","full_practice","",""
"","bandit","55","301080","0.0-32.0-4.0","32252382","wem/bandit_party_1","A3NKTB1JU5AKIW","either","4","60","","","","","","","0","1","0","","0.6","0.5","0.5","0.5","0.5","0.8","0.2","0.6","0.2","","","","","","","","","","","","","","75","K","2","","true","0","full_practice","",""
"","bandit","56","303600","0.0-32.0-5.0","32252382","wem/bandit_party_1","A3NKTB1JU5AKIW","either","4","1013","","","","","","","0","0","1","0.2","","0.5","0.5","0.5","0.5","","","","","0.8","0.2","0.6","0.2","","","","","","","","","","74","J","1","","true","0","full_practice","",""
"","bandit","57","305479","0.0-32.0-6.0","32252382","wem/bandit_party_1","A3NKTB1JU5AKIW","either","4","372","","","","","","","1","0","0","0.2","","0.5","0.5","0.5","0.5","","","","","0.8","0.2","0.6","0.2","","","","","","","","","","74","J","1","","true","0","full_practice","",""
"","bandit","58","307214","0.0-32.0-7.0","32252382","wem/bandit_party_1","A3NKTB1JU5AKIW","either","4","229","","","","","","","1","0","0","0.2","","0.5","0.5","0.5","0.5","","","","","0.8","0.2","0.6","0.2","","","","","","","","","","74","J","1","","true","0","full_practice","",""
"","bandit","59","308840","0.0-32.0-8.0","32252382","wem/bandit_party_1","A3NKTB1JU5AKIW","either","4","118","","","","","","","0","0","1","0.2","","0.5","0.5","0.5","0.5","","","","","0.8","0.2","0.6","0.2","","","","","","","","","","74","J","1","","true","0","full_practice","",""
"","bandit","60","310654","0.0-32.0-9.0","32252382","wem/bandit_party_1","A3NKTB1JU5AKIW","either","4","309","","","","","","","1","0","0","0.2","","0.5","0.5","0.5","0.5","","","","","0.8","0.2","0.6","0.2","","","","","","","","","","74","J","1","","true","0","full_practice","",""
"","bandit","61","312352","0.0-32.0-10.0","32252382","wem/bandit_party_1","A3NKTB1JU5AKIW","either","4","189","","","","","","","0","1","0","","0.2","0.5","0.5","0.5","0.5","0.8","0.2","0.6","0.2","","","","","","","","","","","","","","74","J","1","","true","0","full_practice","",""
"","bandit","62","313990","0.0-32.0-11.0","32252382","wem/bandit_party_1","A3NKTB1JU5AKIW","either","4","132","","","","","","","0","0","1","0.2","","0.5","0.5","0.5","0.5","","","","","0.8","0.2","0.6","0.2","","","","","","","","","","74","J","1","","true","0","full_practice","",""
"","bandit","63","315800","0.0-32.0-12.0","32252382","wem/bandit_party_1","A3NKTB1JU5AKIW","either","4","304","","","","","","","0","0","1","0.2","","0.5","0.5","0.5","0.5","","","","","0.8","0.2","0.6","0.2","","","","","","","","","","74","J","1","","true","0","full_practice","",""
"","bandit","64","317527","0.0-32.0-13.0","32252382","wem/bandit_party_1","A3NKTB1JU5AKIW","either","4","219","","","","","","","0","1","0","","0.2","0.5","0.5","0.5","0.5","0.8","0.2","0.6","0.2","","","","","","","","","","","","","","74","J","1","","true","0","full_practice","",""
"","bandit","65","319176","0.0-32.0-14.0","32252382","wem/bandit_party_1","A3NKTB1JU5AKIW","either","4","143","","","","","","","0","1","0","","0.2","0.5","0.5","0.5","0.5","0.8","0.2","0.6","0.2","","","","","","","","","","","","","","74","J","1","","true","0","full_practice","",""
"","bandit","66","320975","0.0-32.0-15.0","32252382","wem/bandit_party_1","A3NKTB1JU5AKIW","either","4","291","","","","","","","0","0","1","","0.2","0.5","0.5","0.5","0.5","0.8","0.2","0.6","0.2","","","","","","","","","","","","","","74","J","1","","true","0","full_practice","",""
"","bandit","67","322645","0.0-32.0-16.0","32252382","wem/bandit_party_1","A3NKTB1JU5AKIW","either","4","164","","","","","","","0","1","0","","0.2","0.5","0.5","0.5","0.5","0.8","0.2","0.6","0.2","","","","","","","","","","","","","","76","L","3","","true","0","full_practice","",""
"","bandit","68","324957","0.0-32.0-17.0","32252382","wem/bandit_party_1","A3NKTB1JU5AKIW","either","4","807","","","","","","","0","0","1","","0.2","0.5","0.5","0.5","0.5","0.8","0.2","0.6","0.2","","","","","","","","","","","","","","76","L","3","","true","0","full_practice","",""
"","bandit","69","326733","0.0-32.0-18.0","32252382","wem/bandit_party_1","A3NKTB1JU5AKIW","either","4","269","","","","","","","0","1","0","","0.2","0.5","0.5","0.5","0.5","0.8","0.2","0.6","0.2","","","","","","","","","","","","","","76","L","3","","true","0","full_practice","",""
"","bandit","70","328357","0.0-32.0-19.0","32252382","wem/bandit_party_1","A3NKTB1JU5AKIW","either","4","117","","","","","","","0","1","0","","0.2","0.5","0.5","0.5","0.5","0.8","0.2","0.6","0.2","","","","","","","","","","","","","","76","L","3","","true","0","full_practice","",""
"","text","71","332559","0.0-33.0","32252382","wem/bandit_party_1","A3NKTB1JU5AKIW","either","4","4189","","","32","","","","","","","","","","","","","","","","","","","","","","","","","","","","","","","","","","","","","",""
"","text-replacement","72","347112","0.0-34.0","32252382","wem/bandit_party_1","A3NKTB1JU5AKIW","either","4","13547","","","32","","","","","","","","","","","","","","","","","","","","","","","","","","","","","","","","","","","","","",""
"","text-replacement","73","362745","0.0-35.0","32252382","wem/bandit_party_1","A3NKTB1JU5AKIW","either","4","15629","","","32","","","","","","","","","","","","","","","","","","","","","","","","","","","","","","","","","","","","","",""
"","text-replacement","74","369743","0.0-36.0","32252382","wem/bandit_party_1","A3NKTB1JU5AKIW","either","4","6995","","","32","","","","","","","","","","","","","","","","","","","","","","","","","","","","","","","","","","","","","",""
"","text-replacement","75","377640","0.0-37.0","32252382","wem/bandit_party_1","A3NKTB1JU5AKIW","either","4","7893","","","32","","","","","","","","","","","","","","","","","","","","","","","","","","","","","","","","","","","","","",""
"","text-replacement","76","388592","0.0-38.0","32252382","wem/bandit_party_1","A3NKTB1JU5AKIW","either","4","10948","","","32","","","","","","","","","","","","","","","","","","","","","","","","","","","","","","","","","","","","","",""
"","survey-multi-choice-replacement","77","396715","0.0-39.0-0.0","32252382","wem/bandit_party_1","A3NKTB1JU5AKIW","either","4","8112","","","","","","","","","","","","","","","","","","","","","","","","Money will be added to the pool for <span style='color:blue;'>DEMOCRATS</span>","","","","","","","attn_check","","","","","","","","","0",""
"","survey-multi-choice-replacement","78","401106","0.0-40.0-0.0","32252382","wem/bandit_party_1","A3NKTB1JU5AKIW","either","4","3382","","","","","","","","","","","","","","","","","","","","","","","","Money will be subtracted from the pool for <span style='color:red;'>REPUBLICANS</span>","","","","","","","attn_check","","","","","","","","","1",""
"","instructions","79","403770","0.0-40.0-1.0-0.0","32252382","wem/bandit_party_1","A3NKTB1JU5AKIW","either","4","1660","","","","","","","","","","","","","","","","","","","","","","","","","","","","","","","","","","","","","","","","","[{""page_index"":0,""viewing_time"":1659}]"
"","survey-multi-choice-replacement","80","413274","0.0-40.1-0.1","32252382","wem/bandit_party_1","A3NKTB1JU5AKIW","either","4","8495","","","","","","","","","","","","","","","","","","","","","","","","No money will be added to either pool","","","","","","","attn_check","","","","","","","","","3",""
"","instructions","81","415289","0.0-40.1-1.1-0.1","32252382","wem/bandit_party_1","A3NKTB1JU5AKIW","either","4","1011","","","","","","","","","","","","","","","","","","","","","","","","","","","","","","","","","","","","","","","","","[{""page_index"":0,""viewing_time"":1010}]"
"","survey-multi-choice-replacement","82","420434","0.0-40.2-0.2","32252382","wem/bandit_party_1","A3NKTB1JU5AKIW","either","4","4134","","","","","","","","","","","","","","","","","","","","","","","","Equal amounts of money will be added to the pool for <span style='color:blue;'>DEMOCRATS</span> and subtracted from the pool for <span style='color:red;'>REPUBLICANS</span>","","","","","","","attn_check","","","","","","","","","2",""
"","survey-multi-choice-replacement","83","425794","0.0-41.0-0.0","32252382","wem/bandit_party_1","A3NKTB1JU5AKIW","either","4","4353","","","","","","","","","","","","","","","","","","","","","","","","No money will be added to either pool","","","","","","","attn_check","","","","","","","","","3",""
"","bandit","84","431439","0.0-42.0-0.0","32252382","wem/bandit_party_1","A3NKTB1JU5AKIW","either","4","3133","","","","","","","0","1","0","","0.3894728165","0.2","0.6","0.4","0.8","0.3525715257","0.2771551185","0.3894728165","0.3242650943","","","","","","","","","","","","","","75","K","2","","","1","main_expt","",""
"","bandit","85","433294","0.0-43.0-0.0","32252382","wem/bandit_party_1","A3NKTB1JU5AKIW","either","4","347","","","","","","","0","0","1","","0.363660736","0.2","0.6","0.4","0.8","0.390153736","0.3030893157","0.363660736","0.3296228245","","","","","","","","","","","","","","75","K","2","","","2","main_expt","",""
"","bandit","86","435130","0.0-44.0-0.0","32252382","wem/bandit_party_1","A3NKTB1JU5AKIW","either","4","323","","","","","","","0","0","1","0.3842171554","","0.2","0.6","0.4","0.8","","","","","0.3725447061","0.3211059343","0.3842171554","0.3102780753","","","","","","","","","","75","K","2","","","3","main_expt","",""
"","bandit","87","436984","0.0-45.0-0.0","32252382","wem/bandit_party_1","A3NKTB1JU5AKIW","either","4","345","","","","","","","0","0","1","0.3831963053","","0.2","0.6","0.4","0.8","","","","","0.3431524481","0.2804386453","0.3831963053","0.2749892112","","","","","","","","","","75","K","2","","","4","main_expt","",""
"","bandit","88","438862","0.0-46.0-0.0","32252382","wem/bandit_party_1","A3NKTB1JU5AKIW","either","4","371","","","","","","","0","0","1","","0.2609559086","0.2","0.6","0.4","0.8","0.3448007793","0.2609559086","0.4056596471","0.3037824898","","","","","","","","","","","","","","74","J","1","","","5","main_expt","",""
"","bandit","89","440669","0.0-47.0-0.0","32252382","wem/bandit_party_1","A3NKTB1JU5AKIW","either","4","301","","","","","","","0","0","1","0.2259287768","","0.2","0.6","0.4","0.8","","","","","0.3980888019","0.2259287768","0.4409946319","0.3217417103","","","","","","","","","","74","J","1","","","6","main_expt","",""
"","bandit","90","442493","0.0-48.0-0.0","32252382","wem/bandit_party_1","A3NKTB1JU5AKIW","either","4","317","","","","","","","0","0","1","","0.2433618728","0.2","0.6","0.4","0.8","0.3693121862","0.2433618728","0.3821747998","0.3018715163","","","","","","","","","","","","","","74","J","1","","","7","main_expt","",""
"","bandit","91","444605","0.0-49.0-0.0","32252382","wem/bandit_party_1","A3NKTB1JU5AKIW","either","4","605","","","","","","","0","0","1","","0.2933697555","0.2","0.6","0.4","0.8","0.2933697555","0.2025356769","0.3841844813","0.3643645816","","","","","","","","","","","","","","72","H","0","img/none_selected.jpg","","8","main_expt","",""
"","bandit","92","446486","0.0-50.0-0.0","32252382","wem/bandit_party_1","A3NKTB1JU5AKIW","either","4","372","","","","","","","0","0","1","","0.3036212831","0.2","0.6","0.4","0.8","0.3036212831","0.1441028094","0.3412237964","0.3418610374","","","","","","","","","","","","","","72","H","0","img/none_selected.jpg","","9","main_expt","",""
"","bandit","93","448351","0.0-51.0-0.0","32252382","wem/bandit_party_1","A3NKTB1JU5AKIW","either","4","357","","","","","","","0","0","1","","0.308020301","0.2","0.6","0.4","0.8","0.308020301","0.1736005971","0.3256420777","0.3190157878","","","","","","","","","","","","","","72","H","0","img/none_selected.jpg","","10","main_expt","",""
"","bandit","94","450310","0.0-52.0-0.0","32252382","wem/bandit_party_1","A3NKTB1JU5AKIW","either","4","451","","","","","","","0","0","1","0.2998731478","","0.2","0.6","0.4","0.8","","","","","0.3065973113","0.1836365694","0.3514007431","0.2998731478","","","","","","","","","","76","L","3","","","11","main_expt","",""
"","bandit","95","452253","0.0-53.0-0.0","32252382","wem/bandit_party_1","A3NKTB1JU5AKIW","either","4","435","","","","","","","0","0","1","0.2942822571","","0.2","0.6","0.4","0.8","","","","","0.3271859636","0.2143869662","0.3722032088","0.2942822571","","","","","","","","","","76","L","3","","","12","main_expt","",""
"","bandit","96","454117","0.0-54.0-0.0","32252382","wem/bandit_party_1","A3NKTB1JU5AKIW","either","4","356","","","","","","","0","0","1","0.3009212619","","0.2","0.6","0.4","0.8","","","","","0.2761076709","0.1637139448","0.3681707299","0.3009212619","","","","","","","","","","76","L","3","","","13","main_expt","",""
"","bandit","97","456013","0.0-55.0-0.0","32252382","wem/bandit_party_1","A3NKTB1JU5AKIW","either","4","390","","","","","","","0","0","1","","0.3528222564","0.2","0.6","0.4","0.8","0.2311164494","0.1488535162","0.3528222564","0.3227424667","","","","","","","","","","","","","","75","K","2","","","14","main_expt","",""
"","bandit","98","457997","0.0-56.0-0.0","32252382","wem/bandit_party_1","A3NKTB1JU5AKIW","either","4","476","","","","","","","0","1","0","","0.3738838661","0.2","0.6","0.4","0.8","0.2905977425","0.1332411271","0.3738838661","0.3547546862","","","","","","","","","","","","","","75","K","2","","","15","main_expt","",""
"","bandit","99","460229","0.0-57.0-0.0","32252382","wem/bandit_party_1","A3NKTB1JU5AKIW","either","4","726","","","","","","","0","0","1","","0.3385239332","0.2","0.6","0.4","0.8","0.2924554969","0.09882415698","0.3385239332","0.3241157583","","","","","","","","","","","","","","75","K","2","","","16","main_expt","",""
"","bandit","100","462085","0.0-58.0-0.0","32252382","wem/bandit_party_1","A3NKTB1JU5AKIW","either","4","348","","","","","","","0","0","1","0.3111355138","","0.2","0.6","0.4","0.8","","","","","0.3114836302","0.1069157009","0.3111355138","0.3363410386","","","","","","","","","","75","K","2","","","17","main_expt","",""
"","bandit","101","464517","0.0-59.0-0.0","32252382","wem/bandit_party_1","A3NKTB1JU5AKIW","either","4","925","","","","","","","0","0","1","0.3487767647","","0.2","0.6","0.4","0.8","","","","","0.3215333475","0.134958137","0.3487767647","0.3880947854","","","","","","","","","","75","K","2","","","18","main_expt","",""
"","bandit","102","466350","0.0-60.0-0.0","32252382","wem/bandit_party_1","A3NKTB1JU5AKIW","either","4","323","","","","","","","0","0","1","0.3010303499","","0.2","0.6","0.4","0.8","","","","","0.2733398822","0.1230418706","0.3010303499","0.4116912081","","","","","","","","","","75","K","2","","","19","main_expt","",""
"","bandit","103","468237","0.0-61.0-0.0","32252382","wem/bandit_party_1","A3NKTB1JU5AKIW","either","4","379","","","","","","","0","0","1","","0.2351410235","0.2","0.6","0.4","0.8","0.2351410235","0.09866604889","0.2907203997","0.3973894305","","","","","","","","","","","","","","72","H","0","img/none_selected.jpg","","20","main_expt","",""
"","bandit","104","470085","0.0-62.0-0.0","32252382","wem/bandit_party_1","A3NKTB1JU5AKIW","either","4","338","","","","","","","0","0","1","","0.2257810982","0.2","0.6","0.4","0.8","0.2257810982","0.1021222834","0.3088108907","0.369037109","","","","","","","","","","","","","","72","H","0","img/none_selected.jpg","","21","main_expt","",""
"","bandit","105","471942","0.0-63.0-0.0","32252382","wem/bandit_party_1","A3NKTB1JU5AKIW","either","4","349","","","","","","","0","0","1","0.2221856846","","0.2","0.6","0.4","0.8","","","","","0.2221856846","0.1234138809","0.349202701","0.4179468344","","","","","","","","","","72","H","0","img/none_selected.jpg","","22","main_expt","",""
"","bandit","106","473806","0.0-64.0-0.0","32252382","wem/bandit_party_1","A3NKTB1JU5AKIW","either","4","354","","","","","","","1","0","0","0.2127124712","","0.2","0.6","0.4","0.8","","","","","0.2127124712","0.1030640584","0.3785068464","0.4276062926","","","","","","","","","","72","H","0","img/none_selected.jpg","","23","main_expt","",""
"","bandit","107","475685","0.0-65.0-0.0","32252382","wem/bandit_party_1","A3NKTB1JU5AKIW","either","4","369","","","","","","","0","0","1","","0.1882566648","0.2","0.6","0.4","0.8","0.1882566648","0.1261035851","0.4012919653","0.4078122208","","","","","","","","","","","","","","72","H","0","img/none_selected.jpg","","24","main_expt","",""
"","bandit","108","477550","0.0-66.0-0.0","32252382","wem/bandit_party_1","A3NKTB1JU5AKIW","either","4","354","","","","","","","0","0","1","0.3950411191","","0.2","0.6","0.4","0.8","","","","","0.1273223766","0.1796705612","0.400899794","0.3950411191","","","","","","","","","","76","L","3","","","25","main_expt","",""
"","bandit","109","479381","0.0-67.0-0.0","32252382","wem/bandit_party_1","A3NKTB1JU5AKIW","either","4","322","","","","","","","0","1","0","","0.4322303329","0.2","0.6","0.4","0.8","0.15747458","0.2414651519","0.4126274585","0.4322303329","","","","","","","","","","","","","","76","L","3","","","26","main_expt","",""
"","bandit","110","481221","0.0-68.0-0.0","32252382","wem/bandit_party_1","A3NKTB1JU5AKIW","either","4","334","","","","","","","0","0","1","0.4353643722","","0.2","0.6","0.4","0.8","","","","","0.1442684908","0.2005374927","0.3992263875","0.4353643722","","","","","","","","","","76","L","3","","","27","main_expt","",""
"","bandit","111","483200","0.0-69.0-0.0","32252382","wem/bandit_party_1","A3NKTB1JU5AKIW","either","4","468","","","","","","","0","0","1","","0.4464017809","0.2","0.6","0.4","0.8","0.2255404594","0.3197257227","0.3846584236","0.4464017809","","","","","","","","","","","","","","76","L","3","","","28","main_expt","",""
"","bandit","112","484949","0.0-70.0-0.0","32252382","wem/bandit_party_1","A3NKTB1JU5AKIW","either","4","240","","","","","","","0","0","1","0.4417109462","","0.2","0.6","0.4","0.8","","","","","0.2730951691","0.3141869899","0.3561298134","0.4417109462","","","","","","","","","","76","L","3","","","29","main_expt","",""
"","bandit","113","486806","0.0-71.0-0.0","32252382","wem/bandit_party_1","A3NKTB1JU5AKIW","either","4","346","","","","","","","0","1","0","","0.4065908859","0.2","0.6","0.4","0.8","0.2890412698","0.3445991012","0.3101363315","0.4065908859","","","","","","","","","","","","","","76","L","3","","","30","main_expt","",""
"","bandit","114","488663","0.0-72.0-0.0","32252382","wem/bandit_party_1","A3NKTB1JU5AKIW","either","4","346","","","","","","","0","0","1","","0.3954582793","0.2","0.6","0.4","0.8","0.3309226042","0.3456655029","0.3322219809","0.3954582793","","","","","","","","","","","","","","76","L","3","","","31","main_expt","",""
"","bandit","115","490646","0.0-73.0-0.0","32252382","wem/bandit_party_1","A3NKTB1JU5AKIW","either","4","473","","","","","","","0","0","1","0.3826172224","","0.2","0.6","0.4","0.8","","","","","0.3519301717","0.3826172224","0.3516269472","0.3716723047","","","","","","","","","","74","J","1","","","32","main_expt","",""
"","bandit","116","492532","0.0-74.0-0.0","32252382","wem/bandit_party_1","A3NKTB1JU5AKIW","either","4","378","","","","","","","0","0","1","","0.3804083149","0.2","0.6","0.4","0.8","0.3414953842","0.3804083149","0.3852085553","0.3799724366","","","","","","","","","","","","","","74","J","1","","","33","main_expt","",""
"","bandit","117","494216","0.0-75.0-0.0","32252382","wem/bandit_party_1","A3NKTB1JU5AKIW","either","4","175","","","","","","","1","0","0","0.3808178469","","0.2","0.6","0.4","0.8","","","","","0.2938412915","0.3808178469","0.4196644934","0.409480615","","","","","","","","","","74","J","1","","","34","main_expt","",""
"","bandit","118","496022","0.0-76.0-0.0","32252382","wem/bandit_party_1","A3NKTB1JU5AKIW","either","4","296","","","","","","","1","0","0","0.376129724","","0.2","0.6","0.4","0.8","","","","","0.2256616696","0.376129724","0.420891004","0.3869649509","","","","","","","","","","74","J","1","","","35","main_expt","",""
"","bandit","119","497877","0.0-77.0-0.0","32252382","wem/bandit_party_1","A3NKTB1JU5AKIW","either","4","345","","","","","","","0","0","1","0.4027809904","","0.2","0.6","0.4","0.8","","","","","0.2525957923","0.4027809904","0.3808881167","0.3045389962","","","","","","","","","","74","J","1","","","36","main_expt","",""
"","bandit","120","499742","0.0-78.0-0.0","32252382","wem/bandit_party_1","A3NKTB1JU5AKIW","either","4","356","","","","","","","0","0","1","0.3715556026","","0.2","0.6","0.4","0.8","","","","","0.2333373749","0.3715556026","0.3634360393","0.2954217214","","","","","","","","","","74","J","1","","","37","main_expt","",""
"","bandit","121","501541","0.0-79.0-0.0","32252382","wem/bandit_party_1","A3NKTB1JU5AKIW","either","4","289","","","","","","","1","0","0","0.354842885","","0.2","0.6","0.4","0.8","","","","","0.2126884676","0.354842885","0.3432691328","0.2749906923","","","","","","","","","","74","J","1","","","38","main_expt","",""
"","bandit","122","503405","0.0-80.0-0.0","32252382","wem/bandit_party_1","A3NKTB1JU5AKIW","either","4","355","","","","","","","0","1","0","","0.3066825603","0.2","0.6","0.4","0.8","0.212498526","0.3066825603","0.3113322025","0.2911873598","","","","","","","","","","","","","","74","J","1","","","39","main_expt","",""
"","bandit","123","505295","0.0-81.0-0.0","32252382","wem/bandit_party_1","A3NKTB1JU5AKIW","either","4","383","","","","","","","0","1","0","","0.3208648015","0.2","0.6","0.4","0.8","0.2031275136","0.3208648015","0.3298138996","0.3066149412","","","","","","","","","","","","","","74","J","1","","","40","main_expt","",""
"","bandit","124","506999","0.0-82.0-0.0","32252382","wem/bandit_party_1","A3NKTB1JU5AKIW","either","4","194","","","","","","","0","0","1","","0.2774570704","0.2","0.6","0.4","0.8","0.2409224204","0.2774570704","0.3590557929","0.2612722093","","","","","","","","","","","","","","74","J","1","","","41","main_expt","",""
"","bandit","125","508749","0.0-83.0-0.0","32252382","wem/bandit_party_1","A3NKTB1JU5AKIW","either","4","241","","","","","","","0","0","1","0.3092882543","","0.2","0.6","0.4","0.8","","","","","0.2166695961","0.3092882543","0.3455434044","0.2579482203","","","","","","","","","","74","J","1","","","42","main_expt","",""
"","bandit","126","510373","0.0-84.0-0.0","32252382","wem/bandit_party_1","A3NKTB1JU5AKIW","either","4","118","","","","","","","0","0","1","","0.3161251671","0.2","0.6","0.4","0.8","0.2314197793","0.3161251671","0.4020043176","0.2232302517","","","","","","","","","","","","","","74","J","1","","","43","main_expt","",""
"","bandit","127","512374","0.0-85.0-0.0","32252382","wem/bandit_party_1","A3NKTB1JU5AKIW","either","4","492","","","","","","","0","0","1","0.3032549762","","0.2","0.6","0.4","0.8","","","","","0.1889371852","0.3032549762","0.4088695108","0.2435669349","","","","","","","","","","74","J","1","","","44","main_expt","",""
"","bandit","128","514238","0.0-86.0-0.0","32252382","wem/bandit_party_1","A3NKTB1JU5AKIW","either","4","354","","","","","","","0","0","1","","0.3914045207","0.2","0.6","0.4","0.8","0.2152104473","0.3012359134","0.3914045207","0.1885724617","","","","","","","","","","","","","","75","K","2","","","45","main_expt","",""
"","bandit","129","516270","0.0-87.0-0.0","32252382","wem/bandit_party_1","A3NKTB1JU5AKIW","either","4","524","","","","","","","0","1","0","","0.3682142312","0.2","0.6","0.4","0.8","0.2260726972","0.2994346937","0.3682142312","0.104230756","","","","","","","","","","","","","","75","K","2","","","46","main_expt","",""
"","bandit","130","518165","0.0-88.0-0.0","32252382","wem/bandit_party_1","A3NKTB1JU5AKIW","either","4","387","","","","","","","0","0","1","0.3462276735","","0.2","0.6","0.4","0.8","","","","","0.2330399618","0.3169549043","0.3462276735","0.09013225529","","","","","","","","","","75","K","2","","","47","main_expt","",""
"","bandit","131","519784","0.0-89.0-0.0","32252382","wem/bandit_party_1","A3NKTB1JU5AKIW","either","4","106","","","","","","","0","1","0","","0.3501405617","0.2","0.6","0.4","0.8","0.2769685944","0.3137179834","0.3501405617","0.1066227192","","","","","","","","","","","","","","75","K","2","","","48","main_expt","",""
"","bandit","132","521622","0.0-90.0-0.0","32252382","wem/bandit_party_1","A3NKTB1JU5AKIW","either","4","328","","","","","","","0","1","0","","0.3607669766","0.2","0.6","0.4","0.8","0.2954986192","0.3026837323","0.3607669766","0.1273062614","","","","","","","","","","","","","","75","K","2","","","49","main_expt","",""
"","bandit","133","523517","0.0-91.0-0.0","32252382","wem/bandit_party_1","A3NKTB1JU5AKIW","either","4","385","","","","","","","0","0","1","0.3776327681","","0.2","0.6","0.4","0.8","","","","","0.2730110453","0.2690248343","0.3776327681","0.08158159543","","","","","","","","","","75","K","2","","","50","main_expt","",""
"","bandit","134","525206","0.0-92.0-0.0","32252382","wem/bandit_party_1","A3NKTB1JU5AKIW","either","4","179","","","","","","","0","1","0","","0.3922012959","0.2","0.6","0.4","0.8","0.2672659715","0.2407215714","0.3922012959","0.08035098666","","","","","","","","","","","","","","75","K","2","","","51","main_expt","",""
"","bandit","135","527024","0.0-93.0-0.0","32252382","wem/bandit_party_1","A3NKTB1JU5AKIW","either","4","308","","","","","","","1","0","0","0.3532085343","","0.2","0.6","0.4","0.8","","","","","0.2552972095","0.2758158767","0.3532085343","0.1007468434","","","","","","","","","","75","K","2","","","52","main_expt","",""
"","bandit","136","528998","0.0-94.0-0.0","32252382","wem/bandit_party_1","A3NKTB1JU5AKIW","either","4","464","","","","","","","0","1","0","","0.3597378762","0.2","0.6","0.4","0.8","0.1954439593","0.2661511239","0.3597378762","0.1479770317","","","","","","","","","","","","","","75","K","2","","","53","main_expt","",""
"","bandit","137","530710","0.0-95.0-0.0","32252382","wem/bandit_party_1","A3NKTB1JU5AKIW","either","4","205","","","","","","","0","0","1","0.3553644404","","0.2","0.6","0.4","0.8","","","","","0.1250298759","0.250303373","0.3553644404","0.1450389045","","","","","","","","","","75","K","2","","","54","main_expt","",""
"","bandit","138","532558","0.0-96.0-0.0","32252382","wem/bandit_party_1","A3NKTB1JU5AKIW","either","4","338","","","","","","","0","1","0","","0.3427354451","0.2","0.6","0.4","0.8","0.1224949652","0.1850572083","0.3427354451","0.1678096349","","","","","","","","","","","","","","75","K","2","","","55","main_expt","",""
"","bandit","139","534318","0.0-97.0-0.0","32252382","wem/bandit_party_1","A3NKTB1JU5AKIW","either","4","251","","","","","","","0","0","1","","0.3158877586","0.2","0.6","0.4","0.8","0.1312048923","0.2410157884","0.3158877586","0.1748395718","","","","","","","","","","","","","","75","K","2","","","56","main_expt","",""
"","bandit","140","536078","0.0-98.0-0.0","32252382","wem/bandit_party_1","A3NKTB1JU5AKIW","either","4","250","","","","","","","0","1","0","","0.3224611445","0.2","0.6","0.4","0.8","0.14452077","0.2657224069","0.3224611445","0.146986137","","","","","","","","","","","","","","75","K","2","","","57","main_expt","",""
"","bandit","141","537935","0.0-99.0-0.0","32252382","wem/bandit_party_1","A3NKTB1JU5AKIW","either","4","348","","","","","","","1","0","0","0.3378672788","","0.2","0.6","0.4","0.8","","","","","0.1198415177","0.2361308133","0.3378672788","0.1316135006","","","","","","","","","","75","K","2","","","58","main_expt","",""
"","bandit","142","539734","0.0-100.0-0.0","32252382","wem/bandit_party_1","A3NKTB1JU5AKIW","either","4","290","","","","","","","0","0","1","","0.3438075972","0.2","0.6","0.4","0.8","0.1674914914","0.2078360154","0.3438075972","0.1776120447","","","","","","","","","","","","","","75","K","2","","","59","main_expt","",""
"","bandit","143","541622","0.0-101.0-0.0","32252382","wem/bandit_party_1","A3NKTB1JU5AKIW","either","4","377","","","","","","","0","0","1","","0.2950987239","0.2","0.6","0.4","0.8","0.147959707","0.2256957235","0.2950987239","0.2034864675","","","","","","","","","","","","","","75","K","2","","","60","main_expt","",""
"","bandit","144","543438","0.0-102.0-0.0","32252382","wem/bandit_party_1","A3NKTB1JU5AKIW","either","4","306","","","","","","","1","0","0","0.2939622289","","0.2","0.6","0.4","0.8","","","","","0.1217284172","0.2713547376","0.2939622289","0.1325668513","","","","","","","","","","75","K","2","","","61","main_expt","",""
"","bandit","145","545284","0.0-103.0-0.0","32252382","wem/bandit_party_1","A3NKTB1JU5AKIW","either","4","338","","","","","","","0","0","1","0.2907096119","","0.2","0.6","0.4","0.8","","","","","0.1392905859","0.2800078023","0.2907096119","0.125492747","","","","","","","","","","75","K","2","","","62","main_expt","",""
"","bandit","146","547109","0.0-104.0-0.0","32252382","wem/bandit_party_1","A3NKTB1JU5AKIW","either","4","319","","","","","","","1","0","0","0.2696382907","","0.2","0.6","0.4","0.8","","","","","0.1953314019","0.362183352","0.2696382907","0.1081989139","","","","","","","","","","75","K","2","","","63","main_expt","",""
"","bandit","147","548926","0.0-105.0-0.0","32252382","wem/bandit_party_1","A3NKTB1JU5AKIW","either","4","309","","","","","","","0","0","1","0.2496415039","","0.2","0.6","0.4","0.8","","","","","0.2618523415","0.3354395381","0.2496415039","0.09104284411","","","","","","","","","","75","K","2","","","64","main_expt","",""
"","bandit","148","550589","0.0-106.0-0.0","32252382","wem/bandit_party_1","A3NKTB1JU5AKIW","either","4","155","","","","","","","0","0","1","0.2364994079","","0.2","0.6","0.4","0.8","","","","","0.2686672798","0.2893845237","0.2364994079","0.1264903162","","","","","","","","","","75","K","2","","","65","main_expt","",""
"","bandit","149","552438","0.0-107.0-0.0","32252382","wem/bandit_party_1","A3NKTB1JU5AKIW","either","4","338","","","","","","","0","0","1","","0.2541683514","0.2","0.6","0.4","0.8","0.2451656397","0.2355717356","0.2541683514","0.1665937301","","","","","","","","","","","","","","75","K","2","","","66","main_expt","",""
"","bandit","150","554397","0.0-108.0-0.0","32252382","wem/bandit_party_1","A3NKTB1JU5AKIW","either","4","450","","","","","","","0","0","1","0.2848755716","","0.2","0.6","0.4","0.8","","","","","0.2445320338","0.2848755716","0.2985471382","0.1740025863","","","","","","","","","","74","J","1","","","67","main_expt","",""
"","bandit","151","556085","0.0-109.0-0.0","32252382","wem/bandit_party_1","A3NKTB1JU5AKIW","either","4","179","","","","","","","1","0","0","0.3341158043","","0.2","0.6","0.4","0.8","","","","","0.2261158315","0.3341158043","0.3391290389","0.2300011382","","","","","","","","","","74","J","1","","","68","main_expt","",""
"","bandit","152","557997","0.0-110.0-0.0","32252382","wem/bandit_party_1","A3NKTB1JU5AKIW","either","4","403","","","","","","","0","0","1","","0.3253412689","0.2","0.6","0.4","0.8","0.1627286519","0.3253412689","0.3114764975","0.1768594062","","","","","","","","","","","","","","74","J","1","","","69","main_expt","",""
"","bandit","153","559865","0.0-111.0-0.0","32252382","wem/bandit_party_1","A3NKTB1JU5AKIW","either","4","358","","","","","","","0","1","0","","0.3280915152","0.2","0.6","0.4","0.8","0.1301009224","0.3280915152","0.3056328376","0.1906145184","","","","","","","","","","","","","","74","J","1","","","70","main_expt","",""
"","bandit","154","561926","0.0-112.0-0.0","32252382","wem/bandit_party_1","A3NKTB1JU5AKIW","either","4","551","","","","","","","0","1","0","","0.3772643828","0.2","0.6","0.4","0.8","0.1356707761","0.3772643828","0.3445325487","0.1451664327","","","","","","","","","","","","","","74","J","1","","","71","main_expt","",""
"","bandit","155","563654","0.0-113.0-0.0","32252382","wem/bandit_party_1","A3NKTB1JU5AKIW","either","4","217","","","","","","","1","0","0","0.4074174212","","0.2","0.6","0.4","0.8","","","","","0.1045412551","0.4074174212","0.364612409","0.1091447996","","","","","","","","","","74","J","1","","","72","main_expt","",""
"","bandit","156","565516","0.0-114.0-0.0","32252382","wem/bandit_party_1","A3NKTB1JU5AKIW","either","4","357","","","","","","","0","0","1","0.3736299767","","0.2","0.6","0.4","0.8","","","","","0.0867882282","0.3736299767","0.4454774056","0.1248737042","","","","","","","","","","74","J","1","","","73","main_expt","",""
"","bandit","157","567318","0.0-115.0-0.0","32252382","wem/bandit_party_1","A3NKTB1JU5AKIW","either","4","292","","","","","","","1","0","0","0.383211712","","0.2","0.6","0.4","0.8","","","","","0.1018359722","0.383211712","0.4492830973","0.1073746888","","","","","","","","","","74","J","1","","","74","main_expt","",""
"","bandit","158","569181","0.0-116.0-0.0","32252382","wem/bandit_party_1","A3NKTB1JU5AKIW","either","4","353","","","","","","","0","0","1","","0.3681962321","0.2","0.6","0.4","0.8","0.09443707336","0.3681962321","0.449321966","0.1051395745","","","","","","","","","","","","","","74","J","1","","","75","main_expt","",""
"","bandit","159","571102","0.0-117.0-0.0","32252382","wem/bandit_party_1","A3NKTB1JU5AKIW","either","4","413","","","","","","","1","0","0","0.3574328021","","0.2","0.6","0.4","0.8","","","","","0.08768691443","0.3574328021","0.4299726132","0.09171451076","","","","","","","","","","74","J","1","","","76","main_expt","",""
"","bandit","160","573014","0.0-118.0-0.0","32252382","wem/bandit_party_1","A3NKTB1JU5AKIW","either","4","402","","","","","","","0","0","1","","0.4041720962","0.2","0.6","0.4","0.8","0.07744448812","0.4041720962","0.4349340462","0.1256070833","","","","","","","","","","","","","","74","J","1","","","77","main_expt","",""
"","bandit","161","574797","0.0-119.0-0.0","32252382","wem/bandit_party_1","A3NKTB1JU5AKIW","either","4","273","","","","","","","0","0","1","0.4000946746","","0.2","0.6","0.4","0.8","","","","","0.05712631425","0.4000946746","0.4112950215","0.1398604905","","","","","","","","","","74","J","1","","","78","main_expt","",""
"","bandit","162","576542","0.0-120.0-0.0","32252382","wem/bandit_party_1","A3NKTB1JU5AKIW","either","4","236","","","","","","","0","1","0","","0.425248604","0.2","0.6","0.4","0.8","0.03981704588","0.425248604","0.4123046053","0.1303191282","","","","","","","","","","","","","","74","J","1","","","79","main_expt","",""
"","bandit","163","578438","0.0-121.0-0.0","32252382","wem/bandit_party_1","A3NKTB1JU5AKIW","either","4","387","","","","","","","0","0","1","0.4263383456","","0.2","0.6","0.4","0.8","","","","","0.02961196177","0.4263383456","0.4345430878","0.1491340647","","","","","","","","","","74","J","1","","","80","main_expt","",""
"","bandit","164","580285","0.0-122.0-0.0","32252382","wem/bandit_party_1","A3NKTB1JU5AKIW","either","4","336","","","","","","","0","1","0","","0.4377411966","0.2","0.6","0.4","0.8","0.0408206899","0.4377411966","0.4255274095","0.1484119081","","","","","","","","","","","","","","74","J","1","","","81","main_expt","",""
"","bandit","165","582176","0.0-123.0-0.0","32252382","wem/bandit_party_1","A3NKTB1JU5AKIW","either","4","380","","","","","","","1","0","0","0.4263216968","","0.2","0.6","0.4","0.8","","","","","0.03491361241","0.4263216968","0.4266934287","0.135460029","","","","","","","","","","74","J","1","","","82","main_expt","",""
"","bandit","166","584118","0.0-124.0-0.0","32252382","wem/bandit_party_1","A3NKTB1JU5AKIW","either","4","432","","","","","","","1","0","0","0.4536492548","","0.2","0.6","0.4","0.8","","","","","0.01881925386","0.4536492548","0.4321646522","0.09497461961","","","","","","","","","","74","J","1","","","83","main_expt","",""
"","bandit","167","585692","0.0-125.0-0.0","32252382","wem/bandit_party_1","A3NKTB1JU5AKIW","either","4","69","","","","","","","1","0","0","0.4344769981","","0.2","0.6","0.4","0.8","","","","","0.03441768066","0.4344769981","0.43129245","0.0956585677","","","","","","","","","","74","J","1","","","84","main_expt","",""
"","bandit","168","587855","0.0-126.0-0.0","32252382","wem/bandit_party_1","A3NKTB1JU5AKIW","either","4","654","","","","","","","1","0","0","0.4167097255","","0.2","0.6","0.4","0.8","","","","","0.04015732792","0.4167097255","0.4307495417","0.08427930603","","","","","","","","","","74","J","1","","","85","main_expt","",""
"","bandit","169","589782","0.0-127.0-0.0","32252382","wem/bandit_party_1","A3NKTB1JU5AKIW","either","4","415","","","","","","","0","0","1","0.4215971904","","0.2","0.6","0.4","0.8","","","","","0.0462821445","0.4215971904","0.4327415212","0.09540141202","","","","","","","","","","74","J","1","","","86","main_expt","",""
"","bandit","170","591637","0.0-128.0-0.0","32252382","wem/bandit_party_1","A3NKTB1JU5AKIW","either","4","345","","","","","","","0","0","1","","0.3962725568","0.2","0.6","0.4","0.8","0.07236867375","0.3962725568","0.4507305815","0.06504543429","","","","","","","","","","","","","","74","J","1","","","87","main_expt","",""
"","bandit","171","593718","0.0-129.0-0.0","32252382","wem/bandit_party_1","A3NKTB1JU5AKIW","either","4","569","","","","","","","0","0","1","0.4038430626","","0.2","0.6","0.4","0.8","","","","","0.1132918069","0.4038430626","0.4571393315","0.05894337134","","","","","","","","","","74","J","1","","","88","main_expt","",""
"","bandit","172","595469","0.0-130.0-0.0","32252382","wem/bandit_party_1","A3NKTB1JU5AKIW","either","4","242","","","","","","","0","0","1","","0.4247877058","0.2","0.6","0.4","0.8","0.1466354559","0.4247877058","0.4639779763","0.06803635399","","","","","","","","","","","","","","74","J","1","","","89","main_expt","",""
"","bandit","173","597597","0.0-131.0-0.0","32252382","wem/bandit_party_1","A3NKTB1JU5AKIW","either","4","621","","","","","","","0","0","1","","0.4620017245","0.2","0.6","0.4","0.8","0.1746819083","0.4196700557","0.4620017245","0.09657856289","","","","","","","","","","","","","","75","K","2","","","90","main_expt","",""
"","bandit","174","599380","0.0-132.0-0.0","32252382","wem/bandit_party_1","A3NKTB1JU5AKIW","either","4","272","","","","","","","0","0","1","0.4492963398","","0.2","0.6","0.4","0.8","","","","","0.1864657318","0.401758082","0.4492963398","0.08522031428","","","","","","","","","","75","K","2","","","91","main_expt","",""
"","bandit","175","601133","0.0-133.0-0.0","32252382","wem/bandit_party_1","A3NKTB1JU5AKIW","either","4","244","","","","","","","0","0","1","","0.462009279","0.2","0.6","0.4","0.8","0.2124622091","0.3422099147","0.462009279","0.07078380504","","","","","","","","","","","","","","75","K","2","","","92","main_expt","",""
"","bandit","176","603062","0.0-134.0-0.0","32252382","wem/bandit_party_1","A3NKTB1JU5AKIW","either","4","421","","","","","","","0","0","1","0.0564278809","","0.2","0.6","0.4","0.8","","","","","0.245786276","0.3279059742","0.4363090379","0.0564278809","","","","","","","","","","76","L","3","","","93","main_expt","",""
"","bandit","177","604942","0.0-135.0-0.0","32252382","wem/bandit_party_1","A3NKTB1JU5AKIW","either","4","370","","","","","","","0","0","1","0.06067733924","","0.2","0.6","0.4","0.8","","","","","0.2316759231","0.3155724737","0.4457519602","0.06067733924","","","","","","","","","","76","L","3","","","94","main_expt","",""
"","bandit","178","606846","0.0-136.0-0.0","32252382","wem/bandit_party_1","A3NKTB1JU5AKIW","either","4","393","","","","","","","0","0","1","0.08632751489","","0.2","0.6","0.4","0.8","","","","","0.2231756969","0.3519625041","0.4231248902","0.08632751489","","","","","","","","","","76","L","3","","","95","main_expt","",""
"","bandit","179","608549","0.0-137.0-0.0","32252382","wem/bandit_party_1","A3NKTB1JU5AKIW","either","4","194","","","","","","","0","0","1","","0.08481729553","0.2","0.6","0.4","0.8","0.1957128212","0.3661455107","0.4210676831","0.08481729553","","","","","","","","","","","","","","76","L","3","","","96","main_expt","",""
"","bandit","180","610629","0.0-138.0-0.0","32252382","wem/bandit_party_1","A3NKTB1JU5AKIW","either","4","569","","","","","","","0","0","1","","0.08386440452","0.2","0.6","0.4","0.8","0.1638116915","0.3558031673","0.4022895305","0.08386440452","","","","","","","","","","","","","","76","L","3","","","97","main_expt","",""
"","bandit","181","612484","0.0-139.0-0.0","32252382","wem/bandit_party_1","A3NKTB1JU5AKIW","either","4","345","","","","","","","0","0","1","","0.1405816365","0.2","0.6","0.4","0.8","0.1405816365","0.3558230887","0.4187351015","0.0940701929","","","","","","","","","","","","","","72","H","0","img/none_selected.jpg","","98","main_expt","",""
"","bandit","182","614606","0.0-140.0-0.0","32252382","wem/bandit_party_1","A3NKTB1JU5AKIW","either","4","612","","","","","","","0","0","1","0.1435678602","","0.2","0.6","0.4","0.8","","","","","0.1435678602","0.3064708089","0.3981340028","0.1285058524","","","","","","","","","","72","H","0","img/none_selected.jpg","","99","main_expt","",""
"","bandit","183","616270","0.0-141.0-0.0","32252382","wem/bandit_party_1","A3NKTB1JU5AKIW","either","4","153","","","","","","","0","0","1","","0.1478754355","0.2","0.6","0.4","0.8","0.1478754355","0.352498313","0.3520446815","0.065882019","","","","","","","","","","","","","","72","H","0","img/none_selected.jpg","","100","main_expt","",""
"","bandit","184","618014","0.0-142.0-0.0","32252382","wem/bandit_party_1","A3NKTB1JU5AKIW","either","4","232","","","","","","","0","0","1","","0.1532559328","0.2","0.6","0.4","0.8","0.1532559328","0.3511810171","0.3715523215","0.05692140794","","","","","","","","","","","","","","72","H","0","img/none_selected.jpg","","101","main_expt","",""
"","bandit","185","619780","0.0-143.0-0.0","32252382","wem/bandit_party_1","A3NKTB1JU5AKIW","either","4","256","","","","","","","0","0","1","0.15857411","","0.2","0.6","0.4","0.8","","","","","0.15857411","0.3246867477","0.3966955113","0.04322280369","","","","","","","","","","72","H","0","img/none_selected.jpg","","102","main_expt","",""
"","bandit","186","621541","0.0-144.0-0.0","32252382","wem/bandit_party_1","A3NKTB1JU5AKIW","either","4","250","","","","","","","0","0","1","","0.2827689756","0.2","0.6","0.4","0.8","0.1552377357","0.2827689756","0.3865714765","0.05121437093","","","","","","","","","","","","","","74","J","1","","","103","main_expt","",""
"","bandit","187","623301","0.0-145.0-0.0","32252382","wem/bandit_party_1","A3NKTB1JU5AKIW","either","4","253","","","","","","","0","1","0","","0.3307995119","0.2","0.6","0.4","0.8","0.1584193753","0.3307995119","0.3440646931","0.06548077564","","","","","","","","","","","","","","74","J","1","","","104","main_expt","",""
"","bandit","188","625021","0.0-146.0-0.0","32252382","wem/bandit_party_1","A3NKTB1JU5AKIW","either","4","212","","","","","","","1","0","0","0.3078297571","","0.2","0.6","0.4","0.8","","","","","0.192058402","0.3078297571","0.330981063","0.07577357845","","","","","","","","","","74","J","1","","","105","main_expt","",""
"","bandit","189","626870","0.0-147.0-0.0","32252382","wem/bandit_party_1","A3NKTB1JU5AKIW","either","4","338","","","","","","","1","0","0","0.3202685942","","0.2","0.6","0.4","0.8","","","","","0.1562344916","0.3202685942","0.3317280627","0.09041352565","","","","","","","","","","74","J","1","","","106","main_expt","",""
"","bandit","190","628677","0.0-148.0-0.0","32252382","wem/bandit_party_1","A3NKTB1JU5AKIW","either","4","296","","","","","","","0","0","1","0.3163418234","","0.2","0.6","0.4","0.8","","","","","0.1493116313","0.3163418234","0.2760665195","0.1184921167","","","","","","","","","","74","J","1","","","107","main_expt","",""
"","bandit","191","630636","0.0-149.0-0.0","32252382","wem/bandit_party_1","A3NKTB1JU5AKIW","either","4","451","","","","","","","0","0","1","0.3425943818","","0.2","0.6","0.4","0.8","","","","","0.1357435498","0.3425943818","0.2826301941","0.1057615429","","","","","","","","","","74","J","1","","","108","main_expt","",""
"","bandit","192","632588","0.0-150.0-0.0","32252382","wem/bandit_party_1","A3NKTB1JU5AKIW","either","4","442","","","","","","","1","0","0","0.2852030557","","0.2","0.6","0.4","0.8","","","","","0.1164074326","0.2852030557","0.318117281","0.1464484126","","","","","","","","","","74","J","1","","","109","main_expt","",""
"","bandit","193","635733","0.0-151.0-0.0","32252382","wem/bandit_party_1","A3NKTB1JU5AKIW","either","4","1633","","","","","","","0","1","0","","0.3392406975","0.2","0.6","0.4","0.8","0.1444451916","0.3392406975","0.3358587519","0.1641354829","","","","","","","","","","","","","","74","J","1","","","110","main_expt","",""
"","bandit","194","638749","0.0-152.0-0.0","32252382","wem/bandit_party_1","A3NKTB1JU5AKIW","either","4","1508","","","","","","","1","0","0","0.3023411017","","0.2","0.6","0.4","0.8","","","","","0.09905323685","0.3023411017","0.3031660534","0.1386891192","","","","","","","","","","74","J","1","","","111","main_expt","",""
"","bandit","195","640958","0.0-153.0-0.0","32252382","wem/bandit_party_1","A3NKTB1JU5AKIW","either","4","699","","","","","","","0","0","1","0.296849772","","0.2","0.6","0.4","0.8","","","","","0.09652445584","0.296849772","0.2773548355","0.1847512065","","","","","","","","","","74","J","1","","","112","main_expt","",""
"","bandit","196","647245","0.0-154.0-0.0","32252382","wem/bandit_party_1","A3NKTB1JU5AKIW","either","4","4776","","","","","","","1","0","0","0.2673419259","","0.2","0.6","0.4","0.8","","","","","0.09961189632","0.2673419259","0.2370758425","0.1304555333","","","","","","","","","","74","J","1","","","113","main_expt","",""
"","bandit","197","650846","0.0-155.0-0.0","32252382","wem/bandit_party_1","A3NKTB1JU5AKIW","either","4","2088","","","","","","","0","0","1","0.2670531803","","0.2","0.6","0.4","0.8","","","","","0.1036139638","0.2670531803","0.1821928837","0.1770102637","","","","","","","","","","74","J","1","","","114","main_expt","",""
"","bandit","198","652597","0.0-156.0-0.0","32252382","wem/bandit_party_1","A3NKTB1JU5AKIW","either","4","241","","","","","","","1","0","0","0.2825009356","","0.2","0.6","0.4","0.8","","","","","0.0968506792","0.2825009356","0.1315453283","0.1564651975","","","","","","","","","","74","J","1","","","115","main_expt","",""
"","bandit","199","654605","0.0-157.0-0.0","32252382","wem/bandit_party_1","A3NKTB1JU5AKIW","either","4","497","","","","","","","1","0","0","0.3237719372","","0.2","0.6","0.4","0.8","","","","","0.08782875681","0.3237719372","0.1102777544","0.1665702367","","","","","","","","","","74","J","1","","","116","main_expt","",""
"","bandit","200","656549","0.0-158.0-0.0","32252382","wem/bandit_party_1","A3NKTB1JU5AKIW","either","4","434","","","","","","","1","0","0","0.3154846423","","0.2","0.6","0.4","0.8","","","","","0.06031800864","0.3154846423","0.1101610351","0.1530687496","","","","","","","","","","74","J","1","","","117","main_expt","",""
"","bandit","201","658884","0.0-159.0-0.0","32252382","wem/bandit_party_1","A3NKTB1JU5AKIW","either","4","827","","","","","","","0","0","1","0.2584508078","","0.2","0.6","0.4","0.8","","","","","0.05633053331","0.2584508078","0.122460482","0.1674206906","","","","","","","","","","74","J","1","","","118","main_expt","",""
"","bandit","202","661838","0.0-160.0-0.0","32252382","wem/bandit_party_1","A3NKTB1JU5AKIW","either","4","1446","","","","","","","0","1","0","","0.2141905193","0.2","0.6","0.4","0.8","0.07530514027","0.2141905193","0.1451868924","0.1990215448","","","","","","","","","","","","","","74","J","1","","","119","main_expt","",""
"","bandit","203","664261","0.0-161.0-0.0","32252382","wem/bandit_party_1","A3NKTB1JU5AKIW","either","4","915","","","","","","","0","0","1","0.2341954374","","0.2","0.6","0.4","0.8","","","","","0.09639595661","0.2341954374","0.09092593383","0.2208640619","","","","","","","","","","74","J","1","","","120","main_expt","",""
"","bandit","204","666325","0.0-162.0-0.0","32252382","wem/bandit_party_1","A3NKTB1JU5AKIW","either","4","553","","","","","","","0","1","0","","0.1886372651","0.2","0.6","0.4","0.8","0.1421799471","0.1886372651","0.1080456108","0.2602917539","","","","","","","","","","","","","","74","J","1","","","121","main_expt","",""
"","bandit","205","668284","0.0-163.0-0.0","32252382","wem/bandit_party_1","A3NKTB1JU5AKIW","either","4","449","","","","","","","0","0","1","0.1597592322","","0.2","0.6","0.4","0.8","","","","","0.1624760489","0.1597592322","0.1169053248","0.2512498235","","","","","","","","","","74","J","1","","","122","main_expt","",""
"","bandit","206","672326","0.0-164.0-0.0","32252382","wem/bandit_party_1","A3NKTB1JU5AKIW","either","4","2531","","","","","","","0","1","0","","0.1895266442","0.2","0.6","0.4","0.8","0.1640214383","0.1895266442","0.1571594809","0.2266242761","","","","","","","","","","","","","","74","J","1","","","123","main_expt","",""
"","bandit","207","674269","0.0-165.0-0.0","32252382","wem/bandit_party_1","A3NKTB1JU5AKIW","either","4","432","","","","","","","0","0","1","","0.2042850732","0.2","0.6","0.4","0.8","0.2014340991","0.2042850732","0.2231804049","0.2373824638","","","","","","","","","","","","","","74","J","1","","","124","main_expt","",""
"","bandit","208","677495","0.0-166.0-0.0","32252382","wem/bandit_party_1","A3NKTB1JU5AKIW","either","4","1716","","","","","","","0","0","1","0.1812515389","","0.2","0.6","0.4","0.8","","","","","0.2229229076","0.1812515389","0.2232794356","0.2538727107","","","","","","","","","","74","J","1","","","125","main_expt","",""
"","bandit","209","680054","0.0-167.0-0.0","32252382","wem/bandit_party_1","A3NKTB1JU5AKIW","either","4","1047","","","","","","","0","0","1","0.1694736183","","0.2","0.6","0.4","0.8","","","","","0.2324712723","0.1694736183","0.2316903634","0.290219491","","","","","","","","","","74","J","1","","","126","main_expt","",""
"","bandit","210","681885","0.0-168.0-0.0","32252382","wem/bandit_party_1","A3NKTB1JU5AKIW","either","4","320","","","","","","","1","0","0","0.1624528765","","0.2","0.6","0.4","0.8","","","","","0.2628391623","0.1624528765","0.2337524142","0.2542505169","","","","","","","","","","74","J","1","","","127","main_expt","",""
"","bandit","211","684677","0.0-169.0-0.0","32252382","wem/bandit_party_1","A3NKTB1JU5AKIW","either","4","1281","","","","","","","0","0","1","0.1632982916","","0.2","0.6","0.4","0.8","","","","","0.2654356302","0.1632982916","0.2198210178","0.2582316027","","","","","","","","","","74","J","1","","","128","main_expt","",""
"","bandit","212","686787","0.0-170.0-0.0","32252382","wem/bandit_party_1","A3NKTB1JU5AKIW","either","4","603","","","","","","","0","0","1","0.2264598068","","0.2","0.6","0.4","0.8","","","","","0.2070569149","0.2264598068","0.2280168395","0.3267566011","","","","","","","","","","74","J","1","","","129","main_expt","",""
"","bandit","213","688819","0.0-171.0-0.0","32252382","wem/bandit_party_1","A3NKTB1JU5AKIW","either","4","520","","","","","","","0","0","1","","0.202760285","0.2","0.6","0.4","0.8","0.2579182239","0.202760285","0.243895296","0.3323271388","","","","","","","","","","","","","","74","J","1","","","130","main_expt","",""
"","bandit","214","691188","0.0-172.0-0.0","32252382","wem/bandit_party_1","A3NKTB1JU5AKIW","either","4","856","","","","","","","0","0","1","","0.1585094705","0.2","0.6","0.4","0.8","0.2329110821","0.1585094705","0.2164454501","0.2666668646","","","","","","","","","","","","","","74","J","1","","","131","main_expt","",""
"","bandit","215","693262","0.0-173.0-0.0","32252382","wem/bandit_party_1","A3NKTB1JU5AKIW","either","4","560","","","","","","","0","0","1","0.1304261544","","0.2","0.6","0.4","0.8","","","","","0.2400232435","0.1304261544","0.200468731","0.2359119393","","","","","","","","","","74","J","1","","","132","main_expt","",""
"","bandit","216","695052","0.0-174.0-0.0","32252382","wem/bandit_party_1","A3NKTB1JU5AKIW","either","4","282","","","","","","","0","0","1","0.2038597077","","0.2","0.6","0.4","0.8","","","","","0.2084798617","0.09339990826","0.2038597077","0.2540740643","","","","","","","","","","75","K","2","","","133","main_expt","",""
"","bandit","217","697278","0.0-175.0-0.0","32252382","wem/bandit_party_1","A3NKTB1JU5AKIW","either","4","712","","","","","","","0","0","1","","0.2263269307","0.2","0.6","0.4","0.8","0.2034544","0.08524612959","0.2263269307","0.2414927735","","","","","","","","","","","","","","75","K","2","","","134","main_expt","",""
"","bandit","218","699419","0.0-176.0-0.0","32252382","wem/bandit_party_1","A3NKTB1JU5AKIW","either","4","631","","","","","","","1","0","0","0.2686469146","","0.2","0.6","0.4","0.8","","","","","0.2088958693","0.0622033461","0.2686469146","0.2632369982","","","","","","","","","","75","K","2","","","135","main_expt","",""
"","bandit","219","701499","0.0-177.0-0.0","32252382","wem/bandit_party_1","A3NKTB1JU5AKIW","either","4","566","","","","","","","0","0","1","","0.3170393738","0.2","0.6","0.4","0.8","0.2573758916","0.05632890875","0.3170393738","0.3032623762","","","","","","","","","","","","","","75","K","2","","","136","main_expt","",""
"","bandit","220","703461","0.0-178.0-0.0","32252382","wem/bandit_party_1","A3NKTB1JU5AKIW","either","4","449","","","","","","","0","1","0","","0.338962466","0.2","0.6","0.4","0.8","0.2467438462","0.06052980877","0.338962466","0.2984046037","","","","","","","","","","","","","","75","K","2","","","137","main_expt","",""
"","bandit","221","705429","0.0-179.0-0.0","32252382","wem/bandit_party_1","A3NKTB1JU5AKIW","either","4","456","","","","","","","0","1","0","","0.3586643031","0.2","0.6","0.4","0.8","0.2221944767","0.1038497792","0.3586643031","0.3110629865","","","","","","","","","","","","","","75","K","2","","","138","main_expt","",""
"","bandit","222","708828","0.0-180.0-0.0","32252382","wem/bandit_party_1","A3NKTB1JU5AKIW","either","4","1887","","","","","","","0","1","0","","0.3430902759","0.2","0.6","0.4","0.8","0.2750517365","0.08561062373","0.3430902759","0.3048373826","","","","","","","","","","","","","","75","K","2","","","139","main_expt","",""
"","bandit","223","711133","0.0-181.0-0.0","32252382","wem/bandit_party_1","A3NKTB1JU5AKIW","either","4","796","","","","","","","0","1","0","","0.3777112835","0.2","0.6","0.4","0.8","0.277474309","0.08025295029","0.3777112835","0.3163642845","","","","","","","","","","","","","","75","K","2","","","140","main_expt","",""
"","bandit","224","713011","0.0-182.0-0.0","32252382","wem/bandit_party_1","A3NKTB1JU5AKIW","either","4","368","","","","","","","0","0","1","0.4276051364","","0.2","0.6","0.4","0.8","","","","","0.2932007391","0.09309891757","0.4276051364","0.2213861514","","","","","","","","","","75","K","2","","","141","main_expt","",""
"","bandit","225","714946","0.0-183.0-0.0","32252382","wem/bandit_party_1","A3NKTB1JU5AKIW","either","4","424","","","","","","","0","0","1","","0.4312347149","0.2","0.6","0.4","0.8","0.3001807938","0.1107976638","0.4312347149","0.2492613222","","","","","","","","","","","","","","75","K","2","","","142","main_expt","",""
"","bandit","226","716765","0.0-184.0-0.0","32252382","wem/bandit_party_1","A3NKTB1JU5AKIW","either","4","307","","","","","","","0","0","1","0.2645663874","","0.2","0.6","0.4","0.8","","","","","0.3640878437","0.09575525052","0.386657586","0.2645663874","","","","","","","","","","76","L","3","","","143","main_expt","",""
"","bandit","227","718419","0.0-185.0-0.0","32252382","wem/bandit_party_1","A3NKTB1JU5AKIW","either","4","146","","","","","","","0","0","1","0.2928215939","","0.2","0.6","0.4","0.8","","","","","0.2706796495","0.07222794989","0.3409851627","0.2928215939","","","","","","","","","","76","L","3","","","144","main_expt","",""
"","bandit","228","720146","0.0-186.0-0.0","32252382","wem/bandit_party_1","A3NKTB1JU5AKIW","either","4","220","","","","","","","0","0","1","0.3178979655","","0.2","0.6","0.4","0.8","","","","","0.2359726437","0.03203798906","0.3538709708","0.3178979655","","","","","","","","","","76","L","3","","","145","main_expt","",""
"","bandit","229","722171","0.0-187.0-0.0","32252382","wem/bandit_party_1","A3NKTB1JU5AKIW","either","4","517","","","","","","","0","0","1","0.2850957273","","0.2","0.6","0.4","0.8","","","","","0.2200332621","0.03073079809","0.2745956728","0.2850957273","","","","","","","","","","76","L","3","","","146","main_expt","",""
"","bandit","230","724195","0.0-188.0-0.0","32252382","wem/bandit_party_1","A3NKTB1JU5AKIW","either","4","515","","","","","","","0","0","1","","0.1957794229","0.2","0.6","0.4","0.8","0.1957794229","0.05105424151","0.2375793476","0.2483519338","","","","","","","","","","","","","","72","H","0","img/none_selected.jpg","","147","main_expt","",""
"","bandit","231","726219","0.0-189.0-0.0","32252382","wem/bandit_party_1","A3NKTB1JU5AKIW","either","4","516","","","","","","","0","0","1","","0.1790722045","0.2","0.6","0.4","0.8","0.1790722045","0.04045355104","0.2954602587","0.2309770791","","","","","","","","","","","","","","72","H","0","img/none_selected.jpg","","148","main_expt","",""
"","bandit","232","728148","0.0-190.0-0.0","32252382","wem/bandit_party_1","A3NKTB1JU5AKIW","either","4","421","","","","","","","0","1","0","","0.2189150546","0.2","0.6","0.4","0.8","0.2189150546","0.06416506337","0.3435099865","0.1759049641","","","","","","","","","","","","","","72","H","0","img/none_selected.jpg","","149","main_expt","",""
"","bandit","233","730035","0.0-191.0-0.0","32252382","wem/bandit_party_1","A3NKTB1JU5AKIW","either","4","379","","","","","","","0","0","1","","0.2119229637","0.2","0.6","0.4","0.8","0.2119229637","0.07819388902","0.268900415","0.1910702346","","","","","","","","","","","","","","72","H","0","img/none_selected.jpg","","150","main_expt","",""
"","bandit","234","732028","0.0-192.0-0.0","32252382","wem/bandit_party_1","A3NKTB1JU5AKIW","either","4","480","","","","","","","0","0","1","0.2472398003","","0.2","0.6","0.4","0.8","","","","","0.2472398003","0.1186979887","0.2326488896","0.1799178466","","","","","","","","","","72","H","0","img/none_selected.jpg","","151","main_expt","",""
"","bandit","235","733906","0.0-193.0-0.0","32252382","wem/bandit_party_1","A3NKTB1JU5AKIW","either","4","368","","","","","","","0","0","1","","0.2148428051","0.2","0.6","0.4","0.8","0.2148428051","0.1084773402","0.2768057641","0.1826140084","","","","","","","","","","","","","","72","H","0","img/none_selected.jpg","","152","main_expt","",""
"","bandit","236","735738","0.0-194.0-0.0","32252382","wem/bandit_party_1","A3NKTB1JU5AKIW","either","4","323","","","","","","","0","0","1","","0.1598057249","0.2","0.6","0.4","0.8","0.1598057249","0.1314289417","0.2997660112","0.147924298","","","","","","","","","","","","","","72","H","0","img/none_selected.jpg","","153","main_expt","",""
"","bandit","237","737587","0.0-195.0-0.0","32252382","wem/bandit_party_1","A3NKTB1JU5AKIW","either","4","336","","","","","","","0","0","1","","0.1489099923","0.2","0.6","0.4","0.8","0.1489099923","0.1354051011","0.3196464983","0.1388357139","","","","","","","","","","","","","","72","H","0","img/none_selected.jpg","","154","main_expt","",""
"","bandit","238","739404","0.0-196.0-0.0","32252382","wem/bandit_party_1","A3NKTB1JU5AKIW","either","4","306","","","","","","","0","0","1","","0.1502541116","0.2","0.6","0.4","0.8","0.1502541116","0.1085215933","0.3141654429","0.1658398244","","","","","","","","","","","","","","72","H","0","img/none_selected.jpg","","155","main_expt","",""
"","bandit","239","744308","0.0-197.0-0.0","32252382","wem/bandit_party_1","A3NKTB1JU5AKIW","either","4","3395","","","","","","","0","0","1","","0.1104921729","0.2","0.6","0.4","0.8","0.1605084188","0.1383379057","0.2667217688","0.1104921729","","","","","","","","","","","","","","76","L","3","","","156","main_expt","",""
"","bandit","240","747574","0.0-198.0-0.0","32252382","wem/bandit_party_1","A3NKTB1JU5AKIW","either","4","1751","","","","","","","0","0","1","","0.09530810267","0.2","0.6","0.4","0.8","0.1684101418","0.1428990181","0.2867075714","0.09530810267","","","","","","","","","","","","","","76","L","3","","","157","main_expt","",""
"","bandit","241","750502","0.0-199.0-0.0","32252382","wem/bandit_party_1","A3NKTB1JU5AKIW","either","4","1415","","","","","","","0","0","1","0.1211627972","","0.2","0.6","0.4","0.8","","","","","0.1807688322","0.07455979893","0.2788639118","0.1211627972","","","","","","","","","","76","L","3","","","158","main_expt","",""
"","bandit","242","753363","0.0-200.0-0.0","32252382","wem/bandit_party_1","A3NKTB1JU5AKIW","either","4","1350","","","","","","","0","0","1","0.1012897464","","0.2","0.6","0.4","0.8","","","","","0.1516426412","0.1009372764","0.3020710819","0.1012897464","","","","","","","","","","76","L","3","","","159","main_expt","",""
"","bandit","243","755436","0.0-201.0-0.0","32252382","wem/bandit_party_1","A3NKTB1JU5AKIW","either","4","558","","","","","","","0","0","1","0.1188035868","","0.2","0.6","0.4","0.8","","","","","0.1638698877","0.05118862797","0.3404227007","0.1188035868","","","","","","","","","","76","L","3","","","160","main_expt","",""
"","bandit","244","758940","0.0-202.0-0.0","32252382","wem/bandit_party_1","A3NKTB1JU5AKIW","either","4","1992","","","","","","","0","0","1","0.1606836622","","0.2","0.6","0.4","0.8","","","","","0.1645359983","0.05265847637","0.2876249865","0.1606836622","","","","","","","","","","76","L","3","","","161","main_expt","",""
"","bandit","245","761165","0.0-203.0-0.0","32252382","wem/bandit_party_1","A3NKTB1JU5AKIW","either","4","711","","","","","","","0","0","1","0.1859884171","","0.2","0.6","0.4","0.8","","","","","0.2509918509","0.07938684611","0.2401308511","0.1859884171","","","","","","","","","","76","L","3","","","162","main_expt","",""
"","bandit","246","763316","0.0-204.0-0.0","32252382","wem/bandit_party_1","A3NKTB1JU5AKIW","either","4","639","","","","","","","0","0","1","0.2486605046","","0.2","0.6","0.4","0.8","","","","","0.1883685458","0.0970900163","0.2486605046","0.2528258464","","","","","","","","","","75","K","2","","","163","main_expt","",""
"","bandit","247","765283","0.0-205.0-0.0","32252382","wem/bandit_party_1","A3NKTB1JU5AKIW","either","4","455","","","","","","","0","1","0","","0.22675384","0.2","0.6","0.4","0.8","0.2179532334","0.07401968201","0.22675384","0.2515292425","","","","","","","","","","","","","","75","K","2","","","164","main_expt","",""
"","bandit","248","767403","0.0-206.0-0.0","32252382","wem/bandit_party_1","A3NKTB1JU5AKIW","either","4","609","","","","","","","1","0","0","0.2841151948","","0.2","0.6","0.4","0.8","","","","","0.2143704678","0.06633104104","0.2841151948","0.2068970429","","","","","","","","","","75","K","2","","","165","main_expt","",""
"","bandit","249","769427","0.0-207.0-0.0","32252382","wem/bandit_party_1","A3NKTB1JU5AKIW","either","4","512","","","","","","","0","0","1","","0.2842980464","0.2","0.6","0.4","0.8","0.2175899085","0.05309652092","0.2842980464","0.1413778631","","","","","","","","","","","","","","75","K","2","","","166","main_expt","",""
"","bandit","250","771204","0.0-208.0-0.0","32252382","wem/bandit_party_1","A3NKTB1JU5AKIW","either","4","265","","","","","","","0","0","1","","0.3007590714","0.2","0.6","0.4","0.8","0.2137120923","0.07357446968","0.3007590714","0.1999497975","","","","","","","","","","","","","","75","K","2","","","167","main_expt","",""
"","bandit","251","773101","0.0-209.0-0.0","32252382","wem/bandit_party_1","A3NKTB1JU5AKIW","either","4","388","","","","","","","0","0","1","","0.2884936601","0.2","0.6","0.4","0.8","0.2331560811","0.1054325378","0.2884936601","0.1696145944","","","","","","","","","","","","","","75","K","2","","","168","main_expt","",""
"","bandit","252","775243","0.0-210.0-0.0","32252382","wem/bandit_party_1","A3NKTB1JU5AKIW","either","4","628","","","","","","","0","0","1","","0.08536867429","0.2","0.6","0.4","0.8","0.2367963754","0.08536867429","0.2803439438","0.1338518967","","","","","","","","","","","","","","74","J","1","","","169","main_expt","",""
"","bandit","253","777172","0.0-211.0-0.0","32252382","wem/bandit_party_1","A3NKTB1JU5AKIW","either","4","416","","","","","","","0","0","1","","0.1083432756","0.2","0.6","0.4","0.8","0.2378050175","0.1083432756","0.3010437192","0.1307598277","","","","","","","","","","","","","","74","J","1","","","170","main_expt","",""
"","bandit","254","778811","0.0-212.0-0.0","32252382","wem/bandit_party_1","A3NKTB1JU5AKIW","either","4","122","","","","","","","0","1","0","","0.09185370626","0.2","0.6","0.4","0.8","0.2253696972","0.09185370626","0.3243802095","0.1200375331","","","","","","","","","","","","","","74","J","1","","","171","main_expt","",""
"","bandit","255","780635","0.0-213.0-0.0","32252382","wem/bandit_party_1","A3NKTB1JU5AKIW","either","4","314","","","","","","","0","0","1","0.09458096772","","0.2","0.6","0.4","0.8","","","","","0.2903394368","0.09458096772","0.3140094691","0.07514546963","","","","","","","","","","74","J","1","","","172","main_expt","",""
"","bandit","256","782654","0.0-214.0-0.0","32252382","wem/bandit_party_1","A3NKTB1JU5AKIW","either","4","505","","","","","","","0","0","1","0.1016296913","","0.2","0.6","0.4","0.8","","","","","0.2384828248","0.1016296913","0.2433770114","0.07704486673","","","","","","","","","","74","J","1","","","173","main_expt","",""
"","bandit","257","784558","0.0-215.0-0.0","32252382","wem/bandit_party_1","A3NKTB1JU5AKIW","either","4","390","","","","","","","0","0","1","0.117107939","","0.2","0.6","0.4","0.8","","","","","0.2823111034","0.117107939","0.2080779891","0.04061738922","","","","","","","","","","74","J","1","","","174","main_expt","",""
"","bandit","258","786588","0.0-216.0-0.0","32252382","wem/bandit_party_1","A3NKTB1JU5AKIW","either","4","517","","","","","","","0","0","1","","0.02968316822","0.2","0.6","0.4","0.8","0.292147578","0.1254773658","0.2211365803","0.02968316822","","","","","","","","","","","","","","76","L","3","","","175","main_expt","",""
"","bandit","259","788524","0.0-217.0-0.0","32252382","wem/bandit_party_1","A3NKTB1JU5AKIW","either","4","421","","","","","","","0","0","1","0.04419366322","","0.2","0.6","0.4","0.8","","","","","0.2928295457","0.1518856622","0.231280906","0.04419366322","","","","","","","","","","76","L","3","","","176","main_expt","",""
"","bandit","260","790323","0.0-218.0-0.0","32252382","wem/bandit_party_1","A3NKTB1JU5AKIW","either","4","285","","","","","","","0","0","1","0.04140429262","","0.2","0.6","0.4","0.8","","","","","0.297241693","0.1502483312","0.1689881391","0.04140429262","","","","","","","","","","76","L","3","","","177","main_expt","",""
"","bandit","261","792189","0.0-219.0-0.0","32252382","wem/bandit_party_1","A3NKTB1JU5AKIW","either","4","354","","","","","","","0","0","1","","0.06103489621","0.2","0.6","0.4","0.8","0.276241128","0.2073149786","0.1699404395","0.06103489621","","","","","","","","","","","","","","76","L","3","","","178","main_expt","",""
"","bandit","262","794052","0.0-220.0-0.0","32252382","wem/bandit_party_1","A3NKTB1JU5AKIW","either","4","350","","","","","","","0","0","1","0.2405339857","","0.2","0.6","0.4","0.8","","","","","0.2405339857","0.1928578162","0.1571972967","0.053608248","","","","","","","","","","72","H","0","img/none_selected.jpg","","179","main_expt","",""
"","bandit","263","795786","0.0-221.0-0.0","32252382","wem/bandit_party_1","A3NKTB1JU5AKIW","either","4","222","","","","","","","0","0","1","","0.233428307","0.2","0.6","0.4","0.8","0.233428307","0.1412953234","0.1567782565","0.06289379635","","","","","","","","","","","","","","72","H","0","img/none_selected.jpg","","180","main_expt","",""
"","bandit","264","797482","0.0-222.0-0.0","32252382","wem/bandit_party_1","A3NKTB1JU5AKIW","either","4","188","","","","","","","0","1","0","","0.1459310114","0.2","0.6","0.4","0.8","0.1459310114","0.1258774719","0.1492691696","0.07748386732","","","","","","","","","","","","","","72","H","0","img/none_selected.jpg","","181","main_expt","",""
"","bandit","265","799475","0.0-223.0-0.0","32252382","wem/bandit_party_1","A3NKTB1JU5AKIW","either","4","484","","","","","","","0","0","1","0.1796360657","","0.2","0.6","0.4","0.8","","","","","0.1796360657","0.1121960069","0.1609613705","0.096714051","","","","","","","","","","72","H","0","img/none_selected.jpg","","182","main_expt","",""
"","bandit","266","801405","0.0-224.0-0.0","32252382","wem/bandit_party_1","A3NKTB1JU5AKIW","either","4","416","","","","","","","0","0","1","","0.1907874973","0.2","0.6","0.4","0.8","0.1907874973","0.08335286121","0.1982891881","0.05351369794","","","","","","","","","","","","","","72","H","0","img/none_selected.jpg","","183","main_expt","",""
"","bandit","267","803068","0.0-225.0-0.0","32252382","wem/bandit_party_1","A3NKTB1JU5AKIW","either","4","148","","","","","","","0","0","1","","0.1451627339","0.2","0.6","0.4","0.8","0.1451627339","0.1085923678","0.1703318442","0.08854511538","","","","","","","","","","","","","","72","H","0","img/none_selected.jpg","","184","main_expt","",""
"","bandit","268","804925","0.0-226.0-0.0","32252382","wem/bandit_party_1","A3NKTB1JU5AKIW","either","4","343","","","","","","","0","0","1","0.1692531577","","0.2","0.6","0.4","0.8","","","","","0.1692531577","0.1113654269","0.09566746086","0.136385666","","","","","","","","","","72","H","0","img/none_selected.jpg","","185","main_expt","",""
"","bandit","269","806755","0.0-227.0-0.0","32252382","wem/bandit_party_1","A3NKTB1JU5AKIW","either","4","316","","","","","","","0","0","1","0.1383531569","","0.2","0.6","0.4","0.8","","","","","0.1885113298","0.1383531569","0.1254261761","0.1848043888","","","","","","","","","","74","J","1","","","186","main_expt","",""
"","bandit","270","808682","0.0-228.0-0.0","32252382","wem/bandit_party_1","A3NKTB1JU5AKIW","either","4","414","","","","","","","1","0","0","0.1739713275","","0.2","0.6","0.4","0.8","","","","","0.2088125345","0.1739713275","0.1081798115","0.1640989128","","","","","","","","","","74","J","1","","","187","main_expt","",""
"","bandit","271","810660","0.0-229.0-0.0","32252382","wem/bandit_party_1","A3NKTB1JU5AKIW","either","4","462","","","","","","","0","1","0","","0.1926366302","0.2","0.6","0.4","0.8","0.2228369986","0.1926366302","0.08529062399","0.1301402021","","","","","","","","","","","","","","74","J","1","","","188","main_expt","",""
"","bandit","272","812659","0.0-230.0-0.0","32252382","wem/bandit_party_1","A3NKTB1JU5AKIW","either","4","485","","","","","","","0","1","0","","0.2499935398","0.2","0.6","0.4","0.8","0.2567428292","0.2499935398","0.07250281893","0.1980942663","","","","","","","","","","","","","","74","J","1","","","189","main_expt","",""
"","bandit","273","814508","0.0-231.0-0.0","32252382","wem/bandit_party_1","A3NKTB1JU5AKIW","either","4","336","","","","","","","0","0","1","","0.2367317824","0.2","0.6","0.4","0.8","0.3177850294","0.2367317824","0.07895395147","0.1842725295","","","","","","","","","","","","","","74","J","1","","","190","main_expt","",""
"","bandit","274","816427","0.0-232.0-0.0","32252382","wem/bandit_party_1","A3NKTB1JU5AKIW","either","4","408","","","","","","","1","0","0","0.2515026666","","0.2","0.6","0.4","0.8","","","","","0.2876912335","0.2515026666","0.06204701637","0.2087081259","","","","","","","","","","74","J","1","","","191","main_expt","",""
"","bandit","275","818435","0.0-233.0-0.0","32252382","wem/bandit_party_1","A3NKTB1JU5AKIW","either","4","493","","","","","","","0","0","1","0.2451916405","","0.2","0.6","0.4","0.8","","","","","0.2383873749","0.2451916405","0.064067899","0.1800110976","","","","","","","","","","74","J","1","","","192","main_expt","",""
"","bandit","276","820708","0.0-234.0-0.0","32252382","wem/bandit_party_1","A3NKTB1JU5AKIW","either","4","759","","","","","","","1","0","0","0.2353451433","","0.2","0.6","0.4","0.8","","","","","0.24690957","0.2353451433","0.1286650472","0.1519186298","","","","","","","","","","74","J","1","","","193","main_expt","",""
"","bandit","277","822770","0.0-235.0-0.0","32252382","wem/bandit_party_1","A3NKTB1JU5AKIW","either","4","549","","","","","","","0","0","1","0.307075739","","0.2","0.6","0.4","0.8","","","","","0.2728455101","0.307075739","0.1746490116","0.1431656489","","","","","","","","","","74","J","1","","","194","main_expt","",""
"","bandit","278","824826","0.0-236.0-0.0","32252382","wem/bandit_party_1","A3NKTB1JU5AKIW","either","4","542","","","","","","","1","0","0","0.3011001907","","0.2","0.6","0.4","0.8","","","","","0.2421292151","0.3011001907","0.129035247","0.1868251083","","","","","","","","","","74","J","1","","","195","main_expt","",""
"","bandit","279","826812","0.0-237.0-0.0","32252382","wem/bandit_party_1","A3NKTB1JU5AKIW","either","4","472","","","","","","","0","0","1","0.2861216794","","0.2","0.6","0.4","0.8","","","","","0.2598052724","0.2861216794","0.09052040682","0.176624335","","","","","","","","","","74","J","1","","","196","main_expt","",""
"","bandit","280","828723","0.0-238.0-0.0","32252382","wem/bandit_party_1","A3NKTB1JU5AKIW","either","4","397","","","","","","","0","0","1","","0.2121549007","0.2","0.6","0.4","0.8","0.2540930088","0.2121549007","0.08675464884","0.2383323772","","","","","","","","","","","","","","74","J","1","","","197","main_expt","",""
"","bandit","281","830635","0.0-239.0-0.0","32252382","wem/bandit_party_1","A3NKTB1JU5AKIW","either","4","398","","","","","","","0","0","1","0.260340052","","0.2","0.6","0.4","0.8","","","","","0.2460150375","0.260340052","0.09429549835","0.260618614","","","","","","","","","","74","J","1","","","198","main_expt","",""
"","bandit","282","832409","0.0-240.0-0.0","32252382","wem/bandit_party_1","A3NKTB1JU5AKIW","either","4","261","","","","","","","0","0","1","0.3009562829","","0.2","0.6","0.4","0.8","","","","","0.2217343644","0.3009562829","0.09303778716","0.2935067364","","","","","","","","","","74","J","1","","","199","main_expt","",""
"","bandit","283","834330","0.0-241.0-0.0","32252382","wem/bandit_party_1","A3NKTB1JU5AKIW","either","4","411","","","","","","","0","0","1","0.362920627","","0.2","0.6","0.4","0.8","","","","","0.2830302048","0.3430896668","0.07354084322","0.362920627","","","","","","","","","","76","L","3","","","200","main_expt","",""
"","bandit","284","836284","0.0-242.0-0.0","32252382","wem/bandit_party_1","A3NKTB1JU5AKIW","either","4","438","","","","","","","0","0","1","0.3119044903","","0.2","0.6","0.4","0.8","","","","","0.3175621279","0.2973668079","0.08115367452","0.3119044903","","","","","","","","","","76","L","3","","","201","main_expt","",""
"","bandit","285","838324","0.0-243.0-0.0","32252382","wem/bandit_party_1","A3NKTB1JU5AKIW","either","4","526","","","","","","","0","0","1","","0.3095695708","0.2","0.6","0.4","0.8","0.3049471546","0.3219337599","0.0774842685","0.3095695708","","","","","","","","","","","","","","76","L","3","","","202","main_expt","",""
"","bandit","286","840203","0.0-244.0-0.0","32252382","wem/bandit_party_1","A3NKTB1JU5AKIW","either","4","366","","","","","","","0","0","1","0.3005459379","","0.2","0.6","0.4","0.8","","","","","0.2975042969","0.3229991028","0.09704724367","0.3005459379","","","","","","","","","","76","L","3","","","203","main_expt","",""
"","bandit","287","842084","0.0-245.0-0.0","32252382","wem/bandit_party_1","A3NKTB1JU5AKIW","either","4","366","","","","","","","1","0","0","0.3116824409","","0.2","0.6","0.4","0.8","","","","","0.2268457719","0.3077995671","0.1224111047","0.3116824409","","","","","","","","","","76","L","3","","","204","main_expt","",""
"","bandit","288","844147","0.0-246.0-0.0","32252382","wem/bandit_party_1","A3NKTB1JU5AKIW","either","4","548","","","","","","","0","0","1","0.3291635812","","0.2","0.6","0.4","0.8","","","","","0.2582085449","0.3070199156","0.1627664319","0.3291635812","","","","","","","","","","76","L","3","","","205","main_expt","",""
"","bandit","289","845915","0.0-247.0-0.0","32252382","wem/bandit_party_1","A3NKTB1JU5AKIW","either","4","253","","","","","","","0","0","1","","0.4008790519","0.2","0.6","0.4","0.8","0.2841247045","0.3109683939","0.1604236747","0.4008790519","","","","","","","","","","","","","","76","L","3","","","206","main_expt","",""
"","bandit","290","847761","0.0-248.0-0.0","32252382","wem/bandit_party_1","A3NKTB1JU5AKIW","either","4","333","","","","","","","0","0","1","","0.4202180382","0.2","0.6","0.4","0.8","0.3333225396","0.2845075958","0.126388554","0.4202180382","","","","","","","","","","","","","","76","L","3","","","207","main_expt","",""
"","bandit","291","849667","0.0-249.0-0.0","32252382","wem/bandit_party_1","A3NKTB1JU5AKIW","either","4","392","","","","","","","0","0","1","0.4168586074","","0.2","0.6","0.4","0.8","","","","","0.290219871","0.2419557814","0.1602309633","0.4168586074","","","","","","","","","","76","L","3","","","208","main_expt","",""
"","bandit","292","851546","0.0-250.0-0.0","32252382","wem/bandit_party_1","A3NKTB1JU5AKIW","either","4","365","","","","","","","0","1","0","","0.3949328033","0.2","0.6","0.4","0.8","0.3426384504","0.2449545816","0.2009997365","0.3949328033","","","","","","","","","","","","","","76","L","3","","","209","main_expt","",""
"","bandit","293","853514","0.0-251.0-0.0","32252382","wem/bandit_party_1","A3NKTB1JU5AKIW","either","4","454","","","","","","","1","0","0","0.41782505","","0.2","0.6","0.4","0.8","","","","","0.2932754766","0.2176860071","0.1997114924","0.41782505","","","","","","","","","","76","L","3","","","210","main_expt","",""
"","bandit","294","855586","0.0-252.0-0.0","32252382","wem/bandit_party_1","A3NKTB1JU5AKIW","either","4","563","","","","","","","1","0","0","0.4377941382","","0.2","0.6","0.4","0.8","","","","","0.2522206247","0.2460847292","0.2631807131","0.4377941382","","","","","","","","","","76","L","3","","","211","main_expt","",""
"","bandit","295","857970","0.0-253.0-0.0","32252382","wem/bandit_party_1","A3NKTB1JU5AKIW","either","4","874","","","","","","","1","0","0","0.4619006446","","0.2","0.6","0.4","0.8","","","","","0.2323705111","0.2017704833","0.2008991105","0.4619006446","","","","","","","","","","76","L","3","","","212","main_expt","",""
"","bandit","296","859834","0.0-254.0-0.0","32252382","wem/bandit_party_1","A3NKTB1JU5AKIW","either","4","349","","","","","","","1","0","0","0.4508737721","","0.2","0.6","0.4","0.8","","","","","0.2815580385","0.1891715169","0.1656487101","0.4508737721","","","","","","","","","","76","L","3","","","213","main_expt","",""
"","bandit","297","861930","0.0-255.0-0.0","32252382","wem/bandit_party_1","A3NKTB1JU5AKIW","either","4","586","","","","","","","1","0","0","0.4639731149","","0.2","0.6","0.4","0.8","","","","","0.2955812139","0.1819308411","0.213788386","0.4639731149","","","","","","","","","","76","L","3","","","214","main_expt","",""
"","bandit","298","864098","0.0-256.0-0.0","32252382","wem/bandit_party_1","A3NKTB1JU5AKIW","either","4","655","","","","","","","1","0","0","0.4690757113","","0.2","0.6","0.4","0.8","","","","","0.2988647484","0.1406935411","0.2206736926","0.4690757113","","","","","","","","","","76","L","3","","","215","main_expt","",""
"","bandit","299","866012","0.0-257.0-0.0","32252382","wem/bandit_party_1","A3NKTB1JU5AKIW","either","4","393","","","","","","","0","0","1","0.4685680314","","0.2","0.6","0.4","0.8","","","","","0.3361974059","0.206739756","0.2270120675","0.4685680314","","","","","","","","","","76","L","3","","","216","main_expt","",""
"","bandit","300","867934","0.0-258.0-0.0","32252382","wem/bandit_party_1","A3NKTB1JU5AKIW","either","4","410","","","","","","","0","0","1","","0.4873952874","0.2","0.6","0.4","0.8","0.2764506131","0.178624692","0.2561581829","0.4873952874","","","","","","","","","","","","","","76","L","3","","","217","main_expt","",""
"","bandit","301","869819","0.0-259.0-0.0","32252382","wem/bandit_party_1","A3NKTB1JU5AKIW","either","4","371","","","","","","","0","0","1","","0.4790671899","0.2","0.6","0.4","0.8","0.299893698","0.2021641755","0.2785758431","0.4790671899","","","","","","","","","","","","","","76","L","3","","","218","main_expt","",""
"","bandit","302","871670","0.0-260.0-0.0","32252382","wem/bandit_party_1","A3NKTB1JU5AKIW","either","4","336","","","","","","","0","0","1","0.4769795117","","0.2","0.6","0.4","0.8","","","","","0.3213687962","0.2076996705","0.2707863597","0.4769795117","","","","","","","","","","76","L","3","","","219","main_expt","",""
"","bandit","303","873627","0.0-261.0-0.0","32252382","wem/bandit_party_1","A3NKTB1JU5AKIW","either","4","441","","","","","","","0","0","1","0.4746148145","","0.2","0.6","0.4","0.8","","","","","0.3782095139","0.2479045362","0.2262269101","0.4746148145","","","","","","","","","","76","L","3","","","220","main_expt","",""
"","bandit","304","875508","0.0-262.0-0.0","32252382","wem/bandit_party_1","A3NKTB1JU5AKIW","either","4","370","","","","","","","0","0","1","","0.4789253058","0.2","0.6","0.4","0.8","0.3572699546","0.251163546","0.2522421151","0.4789253058","","","","","","","","","","","","","","76","L","3","","","221","main_expt","",""
"","bandit","305","877660","0.0-263.0-0.0","32252382","wem/bandit_party_1","A3NKTB1JU5AKIW","either","4","637","","","","","","","0","0","1","","0.332217079","0.2","0.6","0.4","0.8","0.332217079","0.2653622565","0.2323100388","0.4765400837","","","","","","","","","","","","","","72","H","0","img/none_selected.jpg","","222","main_expt","",""
"","bandit","306","879419","0.0-264.0-0.0","32252382","wem/bandit_party_1","A3NKTB1JU5AKIW","either","4","244","","","","","","","0","0","1","","0.3327789551","0.2","0.6","0.4","0.8","0.3327789551","0.2034578964","0.2013525365","0.4872993944","","","","","","","","","","","","","","72","H","0","img/none_selected.jpg","","223","main_expt","",""
"","bandit","307","882102","0.0-265.0-0.0","32252382","wem/bandit_party_1","A3NKTB1JU5AKIW","either","4","1166","","","","","","","0","0","1","0.3720138676","","0.2","0.6","0.4","0.8","","","","","0.3720138676","0.1176985371","0.2017363432","0.4864577786","","","","","","","","","","72","H","0","img/none_selected.jpg","","224","main_expt","",""
"","bandit","308","883724","0.0-266.0-0.0","32252382","wem/bandit_party_1","A3NKTB1JU5AKIW","either","4","107","","","","","","","0","0","1","0.4035982493","","0.2","0.6","0.4","0.8","","","","","0.4035982493","0.08531446518","0.1608447522","0.4815865163","","","","","","","","","","72","H","0","img/none_selected.jpg","","225","main_expt","",""
"","bandit","309","886323","0.0-267.0-0.0","32252382","wem/bandit_party_1","A3NKTB1JU5AKIW","either","4","1086","","","","","","","0","1","0","","0.3538577565","0.2","0.6","0.4","0.8","0.3538577565","0.0901010045","0.2023183299","0.4781941344","","","","","","","","","","","","","","72","H","0","img/none_selected.jpg","","226","main_expt","",""
"","bandit","310","888138","0.0-268.0-0.0","32252382","wem/bandit_party_1","A3NKTB1JU5AKIW","either","4","306","","","","","","","0","1","0","","0.4205879778","0.2","0.6","0.4","0.8","0.4205879778","0.06499555022","0.1555458008","0.4742279627","","","","","","","","","","","","","","72","H","0","img/none_selected.jpg","","227","main_expt","",""
"","bandit","311","889779","0.0-269.0-0.0","32252382","wem/bandit_party_1","A3NKTB1JU5AKIW","either","4","125","","","","","","","0","0","1","0.4082381823","","0.2","0.6","0.4","0.8","","","","","0.4082381823","0.06967502077","0.1210896773","0.4597327255","","","","","","","","","","72","H","0","img/none_selected.jpg","","228","main_expt","",""
"","bandit","312","891668","0.0-270.0-0.0","32252382","wem/bandit_party_1","A3NKTB1JU5AKIW","either","4","371","","","","","","","0","1","0","","0.4274963613","0.2","0.6","0.4","0.8","0.4274963613","0.07642173418","0.1206830913","0.4733003713","","","","","","","","","","","","","","72","H","0","img/none_selected.jpg","","229","main_expt","",""
"","bandit","313","893685","0.0-271.0-0.0","32252382","wem/bandit_party_1","A3NKTB1JU5AKIW","either","4","502","","","","","","","0","1","0","","0.4362488765","0.2","0.6","0.4","0.8","0.4362488765","0.04973788902","0.1334008039","0.4832022084","","","","","","","","","","","","","","72","H","0","img/none_selected.jpg","","230","main_expt","",""
"","bandit","314","895580","0.0-272.0-0.0","32252382","wem/bandit_party_1","A3NKTB1JU5AKIW","either","4","379","","","","","","","0","0","1","","0.4420629534","0.2","0.6","0.4","0.8","0.4420629534","0.07419495466","0.1048467088","0.4802630573","","","","","","","","","","","","","","72","H","0","img/none_selected.jpg","","231","main_expt","",""
