"consent","trial_type","trial_index","time_elapsed","internal_node_id","subjID","study","MID","cond","drift","rt","responses","button_pressed","key_press","like","value","connected","gems","bombs","no_reward","GemPrChosen","BombPrChosen","GainOverPainPr_0","GainOverPainPr_1","GainOverPainPr_2","GainOverPainPr_3","LosePr_0","LosePr_1","LosePr_2","LosePr_3","WinPr_0","WinPr_1","WinPr_2","WinPr_3","Q0","Q1","Q2","gender","age","ethnicity","label","expt_phase","target","respCharCode","respKey","respChoiceNum","respChoice","practice","trial_counter","trial_label","Q0_index"
"GDM/GDM_behavioral_consent_30min_online.html","consent","0","7435","0.0-0.0","32494336","wem/bandit_party_1","A2EZNZ6X58RTNR","either","7","","","","","","","","","","","","","","","","","","","","","","","","","","","","","","","","","","","","","","","","",""
"","survey-text","1","12776","0.0-1.0","32494336","wem/bandit_party_1","A2EZNZ6X58RTNR","either","7","4329","{""Q0"":""A2EZNZ6X58RTNR""}","","","","","","","","","","","","","","","","","","","","","","","","","","","","","","","","","","","","","","",""
"","button-response","2","15026","0.0-2.0","32494336","wem/bandit_party_1","A2EZNZ6X58RTNR","either","7","1243","","0","","","","","","","","","","","","","","","","","","","","","","","","","","","","","","","","","","","","","",""
"","text-replacement","3","24168","0.0-3.0","32494336","wem/bandit_party_1","A2EZNZ6X58RTNR","either","7","8138","","","32","","","","","","","","","","","","","","","","","","","","","","","","","","","","","","","","","","","","",""
"","text-replacement","4","25792","0.0-4.0","32494336","wem/bandit_party_1","A2EZNZ6X58RTNR","either","7","1620","","","32","","","","","","","","","","","","","","","","","","","","","","","","","","","","","","","","","","","","",""
"","identification","5","32144","0.0-6.0-0.0","32494336","wem/bandit_party_1","A2EZNZ6X58RTNR","either","7","6329","","","","0","0","0","","","","","","","","","","","","","","","","","","","","","","","","pre","identification_pre","the Democratic Party","","","","","","","",""
"","identification","6","35856","0.0-6.0-1.0","32494336","wem/bandit_party_1","A2EZNZ6X58RTNR","either","7","2690","","","","6","6","6","","","","","","","","","","","","","","","","","","","","","","","","pre","identification_pre","the Republican party","","","","","","","",""
"","text-replacement","7","41844","0.0-7.0","32494336","wem/bandit_party_1","A2EZNZ6X58RTNR","either","7","4986","","","32","","","","","","","","","","","","","","","","","","","","","","","","","","","","","","","","","","","","",""
"","text-replacement","8","45301","0.0-8.0","32494336","wem/bandit_party_1","A2EZNZ6X58RTNR","either","7","3454","","","32","","","","","","","","","","","","","","","","","","","","","","","","","","","","","","","","","","","","",""
"","text-replacement","9","54242","0.0-9.0","32494336","wem/bandit_party_1","A2EZNZ6X58RTNR","either","7","8937","","","32","","","","","","","","","","","","","","","","","","","","","","","","","","","","","","","","","","","","",""
"","text-replacement","10","57252","0.0-10.0","32494336","wem/bandit_party_1","A2EZNZ6X58RTNR","either","7","3007","","","32","","","","","","","","","","","","","","","","","","","","","","","","","","","","","","","","","","","","",""
"","text-replacement","11","59059","0.0-11.0","32494336","wem/bandit_party_1","A2EZNZ6X58RTNR","either","7","1805","","","32","","","","","","","","","","","","","","","","","","","","","","","","","","","","","","","","","","","","",""
"","bandit","12","62515","0.0-12.0-0.0","32494336","wem/bandit_party_1","A2EZNZ6X58RTNR","either","7","1942","","","","","","","0","0","1","0","0","","","","","0","","","","0","","","","","","","","","","","","","74","J","0","img/none_selected_demo.jpg","true","0","",""
"","bandit","13","67160","0.0-13.0-0.0","32494336","wem/bandit_party_1","A2EZNZ6X58RTNR","either","7","3137","","","","","","","0","0","1","0","0","","","","","0","","","","0","","","","","","","","","","","","","75","K","0","img/none_selected_demo.jpg","true","0","",""
"","text-replacement","14","71140","0.0-14.0","32494336","wem/bandit_party_1","A2EZNZ6X58RTNR","either","7","3977","","","32","","","","","","","","","","","","","","","","","","","","","","","","","","","","","","","","","","","","",""
"","text-replacement","15","72590","0.0-15.0","32494336","wem/bandit_party_1","A2EZNZ6X58RTNR","either","7","1448","","","32","","","","","","","","","","","","","","","","","","","","","","","","","","","","","","","","","","","","",""
"","text-replacement","16","81493","0.0-16.0","32494336","wem/bandit_party_1","A2EZNZ6X58RTNR","either","7","8902","","","32","","","","","","","","","","","","","","","","","","","","","","","","","","","","","","","","","","","","",""
"","text-replacement","17","85246","0.0-17.0","32494336","wem/bandit_party_1","A2EZNZ6X58RTNR","either","7","3751","","","32","","","","","","","","","","","","","","","","","","","","","","","","","","","","","","","","","","","","",""
"","bandit","18","99705","0.0-18.0-0.0","32494336","wem/bandit_party_1","A2EZNZ6X58RTNR","either","7","12946","","","","","","","0","0","1","","0.2","0.5","0.5","","","0.8","0.2","","","","","","","","","","","","","","","","75","K","1","","true","0","80_20_practice",""
"","bandit","19","101423","0.0-18.0-1.0","32494336","wem/bandit_party_1","A2EZNZ6X58RTNR","either","7","210","","","","","","","0","0","1","","0.2","0.5","0.5","","","0.8","0.2","","","","","","","","","","","","","","","","75","K","1","","true","0","80_20_practice",""
"","bandit","20","103577","0.0-18.0-2.0","32494336","wem/bandit_party_1","A2EZNZ6X58RTNR","either","7","645","","","","","","","1","0","0","0.2","","0.5","0.5","","","","","","","0.8","0.2","","","","","","","","","","","","75","K","1","","true","0","80_20_practice",""
"","bandit","21","105693","0.0-18.0-3.0","32494336","wem/bandit_party_1","A2EZNZ6X58RTNR","either","7","608","","","","","","","1","0","0","0.2","","0.5","0.5","","","","","","","0.8","0.2","","","","","","","","","","","","75","K","1","","true","0","80_20_practice",""
"","bandit","22","107538","0.0-18.0-4.0","32494336","wem/bandit_party_1","A2EZNZ6X58RTNR","either","7","334","","","","","","","0","1","0","","0.2","0.5","0.5","","","0.8","0.2","","","","","","","","","","","","","","","","75","K","1","","true","0","80_20_practice",""
"","bandit","23","109217","0.0-18.0-5.0","32494336","wem/bandit_party_1","A2EZNZ6X58RTNR","either","7","170","","","","","","","0","0","1","0.2","","0.5","0.5","","","","","","","0.8","0.2","","","","","","","","","","","","75","K","1","","true","0","80_20_practice",""
"","bandit","24","111150","0.0-18.0-6.0","32494336","wem/bandit_party_1","A2EZNZ6X58RTNR","either","7","423","","","","","","","0","0","1","","0.2","0.5","0.5","","","0.8","0.2","","","","","","","","","","","","","","","","75","K","1","","true","0","80_20_practice",""
"","bandit","25","112918","0.0-18.0-7.0","32494336","wem/bandit_party_1","A2EZNZ6X58RTNR","either","7","260","","","","","","","0","0","1","0.2","","0.5","0.5","","","","","","","0.8","0.2","","","","","","","","","","","","75","K","1","","true","0","80_20_practice",""
"","bandit","26","114520","0.0-18.0-8.0","32494336","wem/bandit_party_1","A2EZNZ6X58RTNR","either","7","92","","","","","","","0","0","1","","0.2","0.5","0.5","","","0.8","0.2","","","","","","","","","","","","","","","","75","K","1","","true","0","80_20_practice",""
"","bandit","27","116466","0.0-18.0-9.0","32494336","wem/bandit_party_1","A2EZNZ6X58RTNR","either","7","439","","","","","","","0","0","1","0.2","","0.5","0.5","","","","","","","0.8","0.2","","","","","","","","","","","","75","K","1","","true","0","80_20_practice",""
"","bandit","28","118322","0.0-18.0-10.0","32494336","wem/bandit_party_1","A2EZNZ6X58RTNR","either","7","346","","","","","","","0","1","0","","0.8","0.5","0.5","","","0.8","0.2","","","","","","","","","","","","","","","","74","J","0","img/none_selected_demo.jpg","true","0","80_20_practice",""
"","bandit","29","120068","0.0-18.0-11.0","32494336","wem/bandit_party_1","A2EZNZ6X58RTNR","either","7","238","","","","","","","1","0","0","0.8","","0.5","0.5","","","","","","","0.8","0.2","","","","","","","","","","","","74","J","0","img/none_selected_demo.jpg","true","0","80_20_practice",""
"","bandit","30","121815","0.0-18.0-12.0","32494336","wem/bandit_party_1","A2EZNZ6X58RTNR","either","7","236","","","","","","","1","0","0","0.8","","0.5","0.5","","","","","","","0.8","0.2","","","","","","","","","","","","74","J","0","img/none_selected_demo.jpg","true","0","80_20_practice",""
"","bandit","31","123657","0.0-18.0-13.0","32494336","wem/bandit_party_1","A2EZNZ6X58RTNR","either","7","332","","","","","","","1","0","0","0.8","","0.5","0.5","","","","","","","0.8","0.2","","","","","","","","","","","","74","J","0","img/none_selected_demo.jpg","true","0","80_20_practice",""
"","bandit","32","125363","0.0-18.0-14.0","32494336","wem/bandit_party_1","A2EZNZ6X58RTNR","either","7","197","","","","","","","0","1","0","","0.8","0.5","0.5","","","0.8","0.2","","","","","","","","","","","","","","","","74","J","0","img/none_selected_demo.jpg","true","0","80_20_practice",""
"","bandit","33","127125","0.0-18.0-15.0","32494336","wem/bandit_party_1","A2EZNZ6X58RTNR","either","7","251","","","","","","","1","0","0","0.8","","0.5","0.5","","","","","","","0.8","0.2","","","","","","","","","","","","74","J","0","img/none_selected_demo.jpg","true","0","80_20_practice",""
"","bandit","34","128818","0.0-18.0-16.0","32494336","wem/bandit_party_1","A2EZNZ6X58RTNR","either","7","183","","","","","","","1","0","0","0.8","","0.5","0.5","","","","","","","0.8","0.2","","","","","","","","","","","","74","J","0","img/none_selected_demo.jpg","true","0","80_20_practice",""
"","bandit","35","130437","0.0-18.0-17.0","32494336","wem/bandit_party_1","A2EZNZ6X58RTNR","either","7","111","","","","","","","0","1","0","","0.8","0.5","0.5","","","0.8","0.2","","","","","","","","","","","","","","","","74","J","0","img/none_selected_demo.jpg","true","0","80_20_practice",""
"","bandit","36","132092","0.0-18.0-18.0","32494336","wem/bandit_party_1","A2EZNZ6X58RTNR","either","7","147","","","","","","","1","0","0","0.8","","0.5","0.5","","","","","","","0.8","0.2","","","","","","","","","","","","74","J","0","img/none_selected_demo.jpg","true","0","80_20_practice",""
"","bandit","37","133765","0.0-18.0-19.0","32494336","wem/bandit_party_1","A2EZNZ6X58RTNR","either","7","163","","","","","","","1","0","0","0.8","","0.5","0.5","","","","","","","0.8","0.2","","","","","","","","","","","","74","J","0","img/none_selected_demo.jpg","true","0","80_20_practice",""
"","text-replacement","38","138810","0.0-19.0","32494336","wem/bandit_party_1","A2EZNZ6X58RTNR","either","7","5040","","","32","","","","","","","","","","","","","","","","","","","","","","","","","","","","","","","","","","","","",""
"","bandit","39","140856","0.0-20.0-0.0","32494336","wem/bandit_party_1","A2EZNZ6X58RTNR","either","7","537","","","","","","","1","0","0","1","0","","","","","0","1","","","1","0","","","","","","","","","","","","74","J","0","img/none_selected_demo.jpg","true","0","",""
"","text-replacement","40","146665","0.0-21.0","32494336","wem/bandit_party_1","A2EZNZ6X58RTNR","either","7","5806","","","74","","","","","","","","","","","","","","","","","","","","","","","","","","","","","","","","","","","","",""
"","text-replacement","41","158680","0.0-22.0","32494336","wem/bandit_party_1","A2EZNZ6X58RTNR","either","7","12011","","","32","","","","","","","","","","","","","","","","","","","","","","","","","","","","","","","","","","","","",""
"","text-replacement","42","169777","0.0-23.0","32494336","wem/bandit_party_1","A2EZNZ6X58RTNR","either","7","11093","","","32","","","","","","","","","","","","","","","","","","","","","","","","","","","","","","","","","","","","",""
"","text-replacement","43","170370","0.0-24.0","32494336","wem/bandit_party_1","A2EZNZ6X58RTNR","either","7","589","","","32","","","","","","","","","","","","","","","","","","","","","","","","","","","","","","","","","","","","",""
"","text-replacement","44","170904","0.0-25.0","32494336","wem/bandit_party_1","A2EZNZ6X58RTNR","either","7","531","","","32","","","","","","","","","","","","","","","","","","","","","","","","","","","","","","","","","","","","",""
"","text-replacement","45","171329","0.0-26.0","32494336","wem/bandit_party_1","A2EZNZ6X58RTNR","either","7","421","","","32","","","","","","","","","","","","","","","","","","","","","","","","","","","","","","","","","","","","",""
"","text-replacement","46","174179","0.0-27.0","32494336","wem/bandit_party_1","A2EZNZ6X58RTNR","either","7","2845","","","32","","","","","","","","","","","","","","","","","","","","","","","","","","","","","","","","","","","","",""
"","text-replacement","47","174672","0.0-28.0","32494336","wem/bandit_party_1","A2EZNZ6X58RTNR","either","7","490","","","32","","","","","","","","","","","","","","","","","","","","","","","","","","","","","","","","","","","","",""
"","text-replacement","48","175032","0.0-29.0","32494336","wem/bandit_party_1","A2EZNZ6X58RTNR","either","7","357","","","32","","","","","","","","","","","","","","","","","","","","","","","","","","","","","","","","","","","","",""
"","text-replacement","49","175357","0.0-30.0","32494336","wem/bandit_party_1","A2EZNZ6X58RTNR","either","7","322","","","32","","","","","","","","","","","","","","","","","","","","","","","","","","","","","","","","","","","","",""
"","text-replacement","50","176041","0.0-31.0","32494336","wem/bandit_party_1","A2EZNZ6X58RTNR","either","7","680","","","32","","","","","","","","","","","","","","","","","","","","","","","","","","","","","","","","","","","","",""
"","bandit","51","178856","0.0-32.0-0.0","32494336","wem/bandit_party_1","A2EZNZ6X58RTNR","either","7","1308","","","","","","","0","0","1","0.2","","0.5","0.5","0.5","0.5","","","","","0.8","0.2","0.6","0.2","","","","","","","","","","74","J","1","","true","0","full_practice",""
"","bandit","52","180938","0.0-32.0-1.0","32494336","wem/bandit_party_1","A2EZNZ6X58RTNR","either","7","572","","","","","","","0","0","1","","0.2","0.5","0.5","0.5","0.5","0.8","0.2","0.6","0.2","","","","","","","","","","","","","","74","J","1","","true","0","full_practice",""
"","bandit","53","183561","0.0-32.0-2.0","32494336","wem/bandit_party_1","A2EZNZ6X58RTNR","either","7","1114","","","","","","","0","0","1","","0.2","0.5","0.5","0.5","0.5","0.8","0.2","0.6","0.2","","","","","","","","","","","","","","74","J","1","","true","0","full_practice",""
"","bandit","54","185484","0.0-32.0-3.0","32494336","wem/bandit_party_1","A2EZNZ6X58RTNR","either","7","413","","","","","","","0","0","1","0.8","","0.5","0.5","0.5","0.5","","","","","0.8","0.2","0.6","0.2","","","","","","","","","","72","H","0","img/none_selected.jpg","true","0","full_practice",""
"","bandit","55","187456","0.0-32.0-4.0","32494336","wem/bandit_party_1","A2EZNZ6X58RTNR","either","7","462","","","","","","","0","0","1","0.8","","0.5","0.5","0.5","0.5","","","","","0.8","0.2","0.6","0.2","","","","","","","","","","72","H","0","img/none_selected.jpg","true","0","full_practice",""
"","bandit","56","189340","0.0-32.0-5.0","32494336","wem/bandit_party_1","A2EZNZ6X58RTNR","either","7","375","","","","","","","0","1","0","","0.8","0.5","0.5","0.5","0.5","0.8","0.2","0.6","0.2","","","","","","","","","","","","","","72","H","0","img/none_selected.jpg","true","0","full_practice",""
"","bandit","57","191180","0.0-32.0-6.0","32494336","wem/bandit_party_1","A2EZNZ6X58RTNR","either","7","332","","","","","","","1","0","0","0.8","","0.5","0.5","0.5","0.5","","","","","0.8","0.2","0.6","0.2","","","","","","","","","","72","H","0","img/none_selected.jpg","true","0","full_practice",""
"","bandit","58","192957","0.0-32.0-7.0","32494336","wem/bandit_party_1","A2EZNZ6X58RTNR","either","7","268","","","","","","","0","1","0","","0.8","0.5","0.5","0.5","0.5","0.8","0.2","0.6","0.2","","","","","","","","","","","","","","72","H","0","img/none_selected.jpg","true","0","full_practice",""
"","bandit","59","194523","0.0-32.0-8.0","32494336","wem/bandit_party_1","A2EZNZ6X58RTNR","either","7","53","","","","","","","0","0","1","0.8","","0.5","0.5","0.5","0.5","","","","","0.8","0.2","0.6","0.2","","","","","","","","","","72","H","0","img/none_selected.jpg","true","0","full_practice",""
"","bandit","60","196059","0.0-32.0-9.0","32494336","wem/bandit_party_1","A2EZNZ6X58RTNR","either","7","27","","","","","","","1","0","0","0.8","","0.5","0.5","0.5","0.5","","","","","0.8","0.2","0.6","0.2","","","","","","","","","","72","H","0","img/none_selected.jpg","true","0","full_practice",""
"","bandit","61","198691","0.0-32.0-10.0","32494336","wem/bandit_party_1","A2EZNZ6X58RTNR","either","7","1120","","","","","","","0","1","0","","0.8","0.5","0.5","0.5","0.5","0.8","0.2","0.6","0.2","","","","","","","","","","","","","","72","H","0","img/none_selected.jpg","true","0","full_practice",""
"","bandit","62","204487","0.0-32.0-11.0","32494336","wem/bandit_party_1","A2EZNZ6X58RTNR","either","7","4285","","","","","","","1","0","0","0.8","","0.5","0.5","0.5","0.5","","","","","0.8","0.2","0.6","0.2","","","","","","","","","","72","H","0","img/none_selected.jpg","true","0","full_practice",""
"","bandit","63","207056","0.0-32.0-12.0","32494336","wem/bandit_party_1","A2EZNZ6X58RTNR","either","7","1059","","","","","","","0","0","1","","0.8","0.5","0.5","0.5","0.5","0.8","0.2","0.6","0.2","","","","","","","","","","","","","","72","H","0","img/none_selected.jpg","true","0","full_practice",""
"","bandit","64","208975","0.0-32.0-13.0","32494336","wem/bandit_party_1","A2EZNZ6X58RTNR","either","7","409","","","","","","","0","0","1","","0.8","0.5","0.5","0.5","0.5","0.8","0.2","0.6","0.2","","","","","","","","","","","","","","72","H","0","img/none_selected.jpg","true","0","full_practice",""
"","bandit","65","210642","0.0-32.0-14.0","32494336","wem/bandit_party_1","A2EZNZ6X58RTNR","either","7","157","","","","","","","0","0","1","0.8","","0.5","0.5","0.5","0.5","","","","","0.8","0.2","0.6","0.2","","","","","","","","","","72","H","0","img/none_selected.jpg","true","0","full_practice",""
"","bandit","66","213795","0.0-32.0-15.0","32494336","wem/bandit_party_1","A2EZNZ6X58RTNR","either","7","1642","","","","","","","1","0","0","0.8","","0.5","0.5","0.5","0.5","","","","","0.8","0.2","0.6","0.2","","","","","","","","","","72","H","0","img/none_selected.jpg","true","0","full_practice",""
"","bandit","67","215401","0.0-32.0-16.0","32494336","wem/bandit_party_1","A2EZNZ6X58RTNR","either","7","96","","","","","","","1","0","0","0.8","","0.5","0.5","0.5","0.5","","","","","0.8","0.2","0.6","0.2","","","","","","","","","","72","H","0","img/none_selected.jpg","true","0","full_practice",""
"","bandit","68","217052","0.0-32.0-17.0","32494336","wem/bandit_party_1","A2EZNZ6X58RTNR","either","7","141","","","","","","","0","1","0","","0.8","0.5","0.5","0.5","0.5","0.8","0.2","0.6","0.2","","","","","","","","","","","","","","72","H","0","img/none_selected.jpg","true","0","full_practice",""
"","bandit","69","218608","0.0-32.0-18.0","32494336","wem/bandit_party_1","A2EZNZ6X58RTNR","either","7","45","","","","","","","0","1","0","","0.8","0.5","0.5","0.5","0.5","0.8","0.2","0.6","0.2","","","","","","","","","","","","","","72","H","0","img/none_selected.jpg","true","0","full_practice",""
"","bandit","70","222740","0.0-32.0-19.0","32494336","wem/bandit_party_1","A2EZNZ6X58RTNR","either","7","2624","","","","","","","1","0","0","0.8","","0.5","0.5","0.5","0.5","","","","","0.8","0.2","0.6","0.2","","","","","","","","","","72","H","0","img/none_selected.jpg","true","0","full_practice",""
"","text","71","238170","0.0-33.0","32494336","wem/bandit_party_1","A2EZNZ6X58RTNR","either","7","15413","","","32","","","","","","","","","","","","","","","","","","","","","","","","","","","","","","","","","","","","",""
"","text-replacement","72","293152","0.0-34.0","32494336","wem/bandit_party_1","A2EZNZ6X58RTNR","either","7","53977","","","32","","","","","","","","","","","","","","","","","","","","","","","","","","","","","","","","","","","","",""
"","text-replacement","73","294921","0.0-35.0","32494336","wem/bandit_party_1","A2EZNZ6X58RTNR","either","7","1765","","","32","","","","","","","","","","","","","","","","","","","","","","","","","","","","","","","","","","","","",""
"","text-replacement","74","295677","0.0-36.0","32494336","wem/bandit_party_1","A2EZNZ6X58RTNR","either","7","751","","","32","","","","","","","","","","","","","","","","","","","","","","","","","","","","","","","","","","","","",""
"","text-replacement","75","296524","0.0-37.0","32494336","wem/bandit_party_1","A2EZNZ6X58RTNR","either","7","839","","","32","","","","","","","","","","","","","","","","","","","","","","","","","","","","","","","","","","","","",""
"","text-replacement","76","300723","0.0-38.0","32494336","wem/bandit_party_1","A2EZNZ6X58RTNR","either","7","4195","","","32","","","","","","","","","","","","","","","","","","","","","","","","","","","","","","","","","","","","",""
"","survey-multi-choice-replacement","77","306700","0.0-39.0-0.0","32494336","wem/bandit_party_1","A2EZNZ6X58RTNR","either","7","5962","","","","","","","","","","","","","","","","","","","","","","","","Money will be added to the pool for <span style='color:red;'>REPUBLICANS</span>","","","","","","","attn_check","","","","","","","","","0"
"","survey-multi-choice-replacement","78","311085","0.0-40.0-0.0","32494336","wem/bandit_party_1","A2EZNZ6X58RTNR","either","7","3368","","","","","","","","","","","","","","","","","","","","","","","","Equal amounts of money will be added to the pool for <span style='color:red;'>REPUBLICANS</span> and subtracted from the pool for <span style='color:blue;'>DEMOCRATS</span>","","","","","","","attn_check","","","","","","","","","2"
"","survey-multi-choice-replacement","79","317112","0.0-41.0-0.0","32494336","wem/bandit_party_1","A2EZNZ6X58RTNR","either","7","5010","","","","","","","","","","","","","","","","","","","","","","","","No money will be added to either pool","","","","","","","attn_check","","","","","","","","","3"
"","bandit","80","326371","0.0-42.0-0.0","32494336","wem/bandit_party_1","A2EZNZ6X58RTNR","either","7","6745","","","","","","","0","0","1","0.01738065524","","0.8","0.2","0.6","0.4","","","","","0.01738065524","0.1952616071","0.1480066451","0.06530018083","","","","","","","","","","72","H","0","img/none_selected.jpg","","1","main_expt",""
"","bandit","81","329121","0.0-43.0-0.0","32494336","wem/bandit_party_1","A2EZNZ6X58RTNR","either","7","1242","","","","","","","0","0","1","0.0196943787","","0.8","0.2","0.6","0.4","","","","","0.0196943787","0.1652234336","0.1053714073","0.1011701763","","","","","","","","","","72","H","0","img/none_selected.jpg","","2","main_expt",""
"","bandit","82","331034","0.0-44.0-0.0","32494336","wem/bandit_party_1","A2EZNZ6X58RTNR","either","7","403","","","","","","","0","0","1","","0.01678573497","0.8","0.2","0.6","0.4","0.01678573497","0.1347382479","0.1460078221","0.09486719381","","","","","","","","","","","","","","72","H","0","img/none_selected.jpg","","3","main_expt",""
"","bandit","83","332885","0.0-45.0-0.0","32494336","wem/bandit_party_1","A2EZNZ6X58RTNR","either","7","340","","","","","","","0","0","1","","0.1684625442","0.8","0.2","0.6","0.4","0.02981965743","0.1684625442","0.1866138214","0.06705802814","","","","","","","","","","","","","","74","J","1","","","4","main_expt",""
"","bandit","84","334721","0.0-46.0-0.0","32494336","wem/bandit_party_1","A2EZNZ6X58RTNR","either","7","325","","","","","","","0","0","1","","0.1792029032","0.8","0.2","0.6","0.4","0.02600208211","0.1792029032","0.2445348717","0.0822298525","","","","","","","","","","","","","","74","J","1","","","5","main_expt",""
"","bandit","85","336615","0.0-47.0-0.0","32494336","wem/bandit_party_1","A2EZNZ6X58RTNR","either","7","383","","","","","","","0","0","1","","0.2153873139","0.8","0.2","0.6","0.4","0.02332436933","0.2153873139","0.2546962146","0.09162209411","","","","","","","","","","","","","","74","J","1","","","6","main_expt",""
"","bandit","86","338790","0.0-48.0-0.0","32494336","wem/bandit_party_1","A2EZNZ6X58RTNR","either","7","664","","","","","","","0","0","1","0.2344841702","","0.8","0.2","0.6","0.4","","","","","0.02864040813","0.1757762721","0.2344841702","0.1028820098","","","","","","","","","","75","K","2","","","7","main_expt",""
"","bandit","87","340721","0.0-49.0-0.0","32494336","wem/bandit_party_1","A2EZNZ6X58RTNR","either","7","424","","","","","","","0","0","1","0.2473344203","","0.8","0.2","0.6","0.4","","","","","0.02951264166","0.2241229746","0.2473344203","0.1532270122","","","","","","","","","","75","K","2","","","8","main_expt",""
"","bandit","88","342509","0.0-50.0-0.0","32494336","wem/bandit_party_1","A2EZNZ6X58RTNR","either","7","278","","","","","","","0","0","1","","0.2642160399","0.8","0.2","0.6","0.4","0.02997011939","0.2199426203","0.2642160399","0.2131450397","","","","","","","","","","","","","","75","K","2","","","9","main_expt",""
"","bandit","89","344355","0.0-51.0-0.0","32494336","wem/bandit_party_1","A2EZNZ6X58RTNR","either","7","331","","","","","","","1","0","0","0.2985754635","","0.8","0.2","0.6","0.4","","","","","0.02489651457","0.1520686932","0.2104627424","0.2985754635","","","","","","","","","","76","L","3","","","10","main_expt",""
"","bandit","90","346407","0.0-52.0-0.0","32494336","wem/bandit_party_1","A2EZNZ6X58RTNR","either","7","544","","","","","","","0","0","1","0.2924640086","","0.8","0.2","0.6","0.4","","","","","0.01651058827","0.2013349999","0.219372878","0.2924640086","","","","","","","","","","76","L","3","","","11","main_expt",""
"","bandit","91","348509","0.0-53.0-0.0","32494336","wem/bandit_party_1","A2EZNZ6X58RTNR","either","7","593","","","","","","","0","0","1","0.3264291113","","0.8","0.2","0.6","0.4","","","","","0.02341729431","0.2156800105","0.2105839871","0.3264291113","","","","","","","","","","76","L","3","","","12","main_expt",""
"","bandit","92","350324","0.0-54.0-0.0","32494336","wem/bandit_party_1","A2EZNZ6X58RTNR","either","7","305","","","","","","","0","0","1","","0.3254913314","0.8","0.2","0.6","0.4","0.0257410372","0.1833947696","0.2511698571","0.3254913314","","","","","","","","","","","","","","76","L","3","","","13","main_expt",""
"","bandit","93","352242","0.0-55.0-0.0","32494336","wem/bandit_party_1","A2EZNZ6X58RTNR","either","7","408","","","","","","","0","0","1","0.3428504842","","0.8","0.2","0.6","0.4","","","","","0.02570014082","0.243643366","0.2158977649","0.3428504842","","","","","","","","","","76","L","3","","","14","main_expt",""
"","bandit","94","354025","0.0-56.0-0.0","32494336","wem/bandit_party_1","A2EZNZ6X58RTNR","either","7","272","","","","","","","0","0","1","","0.3244047679","0.8","0.2","0.6","0.4","0.04268316416","0.2265365198","0.2762480727","0.3244047679","","","","","","","","","","","","","","76","L","3","","","15","main_expt",""
"","bandit","95","355637","0.0-57.0-0.0","32494336","wem/bandit_party_1","A2EZNZ6X58RTNR","either","7","102","","","","","","","0","1","0","","0.3025313629","0.8","0.2","0.6","0.4","0.04667408308","0.2484951132","0.3202890724","0.3025313629","","","","","","","","","","","","","","76","L","3","","","16","main_expt",""
"","bandit","96","357516","0.0-58.0-0.0","32494336","wem/bandit_party_1","A2EZNZ6X58RTNR","either","7","370","","","","","","","0","1","0","","0.3291216938","0.8","0.2","0.6","0.4","0.0506688767","0.2570267238","0.3680552247","0.3291216938","","","","","","","","","","","","","","76","L","3","","","17","main_expt",""
"","bandit","97","359596","0.0-59.0-0.0","32494336","wem/bandit_party_1","A2EZNZ6X58RTNR","either","7","570","","","","","","","0","0","1","","0.2987881532","0.8","0.2","0.6","0.4","0.02988526167","0.287418789","0.3968593921","0.2987881532","","","","","","","","","","","","","","76","L","3","","","18","main_expt",""
"","bandit","98","361429","0.0-60.0-0.0","32494336","wem/bandit_party_1","A2EZNZ6X58RTNR","either","7","323","","","","","","","0","0","1","","0.281207523","0.8","0.2","0.6","0.4","0.03476350355","0.2338710899","0.4192996399","0.281207523","","","","","","","","","","","","","","76","L","3","","","19","main_expt",""
"","bandit","99","362993","0.0-61.0-0.0","32494336","wem/bandit_party_1","A2EZNZ6X58RTNR","either","7","55","","","","","","","0","0","1","0.291129981","","0.8","0.2","0.6","0.4","","","","","0.0233687216","0.2335293464","0.4362768361","0.291129981","","","","","","","","","","76","L","3","","","20","main_expt",""
"","bandit","100","366095","0.0-62.0-0.0","32494336","wem/bandit_party_1","A2EZNZ6X58RTNR","either","7","1591","","","","","","","0","1","0","","0.2729578326","0.8","0.2","0.6","0.4","0.01272547494","0.2434826965","0.4599691003","0.2729578326","","","","","","","","","","","","","","76","L","3","","","21","main_expt",""
"","bandit","101","368285","0.0-63.0-0.0","32494336","wem/bandit_party_1","A2EZNZ6X58RTNR","either","7","682","","","","","","","0","0","1","","0.2805141014","0.8","0.2","0.6","0.4","0.01739491555","0.2702300591","0.44353765","0.2805141014","","","","","","","","","","","","","","76","L","3","","","22","main_expt",""
"","bandit","102","369834","0.0-64.0-0.0","32494336","wem/bandit_party_1","A2EZNZ6X58RTNR","either","7","38","","","","","","","0","0","1","","0.3016389313","0.8","0.2","0.6","0.4","0.006692102231","0.2424740502","0.4105594395","0.3016389313","","","","","","","","","","","","","","76","L","3","","","23","main_expt",""
"","bandit","103","371458","0.0-65.0-0.0","32494336","wem/bandit_party_1","A2EZNZ6X58RTNR","either","7","114","","","","","","","0","0","1","","0.2475621169","0.8","0.2","0.6","0.4","0.01209419849","0.1754503809","0.4243351486","0.2475621169","","","","","","","","","","","","","","76","L","3","","","24","main_expt",""
"","bandit","104","373334","0.0-66.0-0.0","32494336","wem/bandit_party_1","A2EZNZ6X58RTNR","either","7","364","","","","","","","0","0","1","0.2607476102","","0.8","0.2","0.6","0.4","","","","","0.009734580702","0.2023019753","0.4172780312","0.2607476102","","","","","","","","","","76","L","3","","","25","main_expt",""
"","bandit","105","374980","0.0-67.0-0.0","32494336","wem/bandit_party_1","A2EZNZ6X58RTNR","either","7","137","","","","","","","0","1","0","","0.3981062588","0.8","0.2","0.6","0.4","0.008596148908","0.1887270612","0.3981062588","0.292589008","","","","","","","","","","","","","","75","K","2","","","26","main_expt",""
"","bandit","106","376763","0.0-68.0-0.0","32494336","wem/bandit_party_1","A2EZNZ6X58RTNR","either","7","263","","","","","","","0","0","1","0.3889188119","","0.8","0.2","0.6","0.4","","","","","0.01380650739","0.2526986378","0.3889188119","0.2978950393","","","","","","","","","","75","K","2","","","27","main_expt",""
"","bandit","107","378275","0.0-69.0-0.0","32494336","wem/bandit_party_1","A2EZNZ6X58RTNR","either","7","1","","","","","","","0","0","1","0.3699095679","","0.8","0.2","0.6","0.4","","","","","0.01160852189","0.2536033627","0.3699095679","0.337392419","","","","","","","","","","75","K","2","","","28","main_expt",""
"","bandit","108","379790","0.0-70.0-0.0","32494336","wem/bandit_party_1","A2EZNZ6X58RTNR","either","7","1","","","","","","","0","0","1","","0.4087832773","0.8","0.2","0.6","0.4","0.02858314752","0.258258936","0.4087832773","0.3830759015","","","","","","","","","","","","","","75","K","2","","","29","main_expt",""
"","bandit","109","381324","0.0-71.0-0.0","32494336","wem/bandit_party_1","A2EZNZ6X58RTNR","either","7","23","","","","","","","1","0","0","0.4162513677","","0.8","0.2","0.6","0.4","","","","","0.0265596094","0.3152574144","0.4162513677","0.3778881599","","","","","","","","","","75","K","2","","","30","main_expt",""
"","bandit","110","382905","0.0-72.0-0.0","32494336","wem/bandit_party_1","A2EZNZ6X58RTNR","either","7","71","","","","","","","0","1","0","","0.43337534","0.8","0.2","0.6","0.4","0.02828816112","0.3508579725","0.43337534","0.3585458117","","","","","","","","","","","","","","75","K","2","","","31","main_expt",""
"","bandit","111","384502","0.0-73.0-0.0","32494336","wem/bandit_party_1","A2EZNZ6X58RTNR","either","7","86","","","","","","","0","0","1","0.4399105216","","0.8","0.2","0.6","0.4","","","","","0.03857304495","0.3902021543","0.4399105216","0.3511664436","","","","","","","","","","75","K","2","","","32","main_expt",""
"","bandit","112","386081","0.0-74.0-0.0","32494336","wem/bandit_party_1","A2EZNZ6X58RTNR","either","7","67","","","","","","","0","0","1","0.3859623535","","0.8","0.2","0.6","0.4","","","","","0.02642959278","0.4112626521","0.3859623535","0.3924960189","","","","","","","","","","75","K","2","","","33","main_expt",""
"","bandit","113","387788","0.0-75.0-0.0","32494336","wem/bandit_party_1","A2EZNZ6X58RTNR","either","7","193","","","","","","","0","0","1","","0.4231921331","0.8","0.2","0.6","0.4","0.06800028167","0.3912589523","0.4231921331","0.3713907517","","","","","","","","","","","","","","75","K","2","","","34","main_expt",""
"","bandit","114","389633","0.0-76.0-0.0","32494336","wem/bandit_party_1","A2EZNZ6X58RTNR","either","7","326","","","","","","","0","0","1","0.3950458867","","0.8","0.2","0.6","0.4","","","","","0.05710280771","0.3663646496","0.3950458867","0.3929004689","","","","","","","","","","75","K","2","","","35","main_expt",""
"","bandit","115","391278","0.0-77.0-0.0","32494336","wem/bandit_party_1","A2EZNZ6X58RTNR","either","7","129","","","","","","","0","1","0","","0.3045225128","0.8","0.2","0.6","0.4","0.07756943076","0.3045225128","0.4005306787","0.3820467604","","","","","","","","","","","","","","74","J","1","","","36","main_expt",""
"","bandit","116","393354","0.0-78.0-0.0","32494336","wem/bandit_party_1","A2EZNZ6X58RTNR","either","7","565","","","","","","","0","1","0","","0.2806474599","0.8","0.2","0.6","0.4","0.06074629621","0.2806474599","0.3972735937","0.3948022939","","","","","","","","","","","","","","74","J","1","","","37","main_expt",""
"","bandit","117","395405","0.0-79.0-0.0","32494336","wem/bandit_party_1","A2EZNZ6X58RTNR","either","7","539","","","","","","","0","0","1","","0.3558759705","0.8","0.2","0.6","0.4","0.07063042774","0.3558759705","0.38339591","0.3769579019","","","","","","","","","","","","","","74","J","1","","","38","main_expt",""
"","bandit","118","398038","0.0-80.0-0.0","32494336","wem/bandit_party_1","A2EZNZ6X58RTNR","either","7","1119","","","","","","","0","0","1","0.3194138052","","0.8","0.2","0.6","0.4","","","","","0.06209293178","0.3194138052","0.3906354184","0.4030344636","","","","","","","","","","74","J","1","","","39","main_expt",""
"","bandit","119","400748","0.0-81.0-0.0","32494336","wem/bandit_party_1","A2EZNZ6X58RTNR","either","7","1199","","","","","","","0","1","0","","0.3549086085","0.8","0.2","0.6","0.4","0.06952578958","0.3549086085","0.3623676206","0.3622335218","","","","","","","","","","","","","","74","J","1","","","40","main_expt",""
"","bandit","120","402925","0.0-82.0-0.0","32494336","wem/bandit_party_1","A2EZNZ6X58RTNR","either","7","663","","","","","","","0","1","0","","0.3452113815","0.8","0.2","0.6","0.4","0.1291245709","0.3452113815","0.3873704927","0.3911596719","","","","","","","","","","","","","","74","J","1","","","41","main_expt",""
"","bandit","121","405150","0.0-83.0-0.0","32494336","wem/bandit_party_1","A2EZNZ6X58RTNR","either","7","711","","","","","","","0","0","1","","0.3522960267","0.8","0.2","0.6","0.4","0.1174523948","0.3522960267","0.359823116","0.3921858285","","","","","","","","","","","","","","74","J","1","","","42","main_expt",""
"","bandit","122","408473","0.0-84.0-0.0","32494336","wem/bandit_party_1","A2EZNZ6X58RTNR","either","7","1813","","","","","","","0","1","0","","0.3093122096","0.8","0.2","0.6","0.4","0.1201484523","0.3093122096","0.3710191411","0.3831213528","","","","","","","","","","","","","","74","J","1","","","43","main_expt",""
"","bandit","123","410877","0.0-85.0-0.0","32494336","wem/bandit_party_1","A2EZNZ6X58RTNR","either","7","896","","","","","","","0","0","1","","0.3026159556","0.8","0.2","0.6","0.4","0.09958360536","0.3026159556","0.3874065465","0.3518708159","","","","","","","","","","","","","","74","J","1","","","44","main_expt",""
"","bandit","124","417933","0.0-86.0-0.0","32494336","wem/bandit_party_1","A2EZNZ6X58RTNR","either","7","5544","","","","","","","0","1","0","","0.3336294247","0.8","0.2","0.6","0.4","0.05173655998","0.3336294247","0.3851533971","0.3122870636","","","","","","","","","","","","","","74","J","1","","","45","main_expt",""
"","bandit","125","419980","0.0-87.0-0.0","32494336","wem/bandit_party_1","A2EZNZ6X58RTNR","either","7","534","","","","","","","0","0","1","","0.3400222736","0.8","0.2","0.6","0.4","0.05945041096","0.3400222736","0.4055883719","0.2635721956","","","","","","","","","","","","","","74","J","1","","","46","main_expt",""
"","bandit","126","423008","0.0-88.0-0.0","32494336","wem/bandit_party_1","A2EZNZ6X58RTNR","either","7","1516","","","","","","","0","0","1","0.328707825","","0.8","0.2","0.6","0.4","","","","","0.04375763727","0.328707825","0.3671593179","0.2856785865","","","","","","","","","","74","J","1","","","47","main_expt",""
"","bandit","127","425462","0.0-89.0-0.0","32494336","wem/bandit_party_1","A2EZNZ6X58RTNR","either","7","937","","","","","","","1","0","0","0.3307690822","","0.8","0.2","0.6","0.4","","","","","0.0666370861","0.3307690822","0.3198203038","0.2649087478","","","","","","","","","","74","J","1","","","48","main_expt",""
"","bandit","128","427118","0.0-90.0-0.0","32494336","wem/bandit_party_1","A2EZNZ6X58RTNR","either","7","143","","","","","","","0","1","0","","0.3438067684","0.8","0.2","0.6","0.4","0.08266213623","0.3438067684","0.3111357295","0.2462979357","","","","","","","","","","","","","","74","J","1","","","49","main_expt",""
"","bandit","129","429739","0.0-91.0-0.0","32494336","wem/bandit_party_1","A2EZNZ6X58RTNR","either","7","1109","","","","","","","0","0","1","","0.4037002216","0.8","0.2","0.6","0.4","0.08795051988","0.4037002216","0.3196682981","0.2490076798","","","","","","","","","","","","","","74","J","1","","","50","main_expt",""
"","bandit","130","432189","0.0-92.0-0.0","32494336","wem/bandit_party_1","A2EZNZ6X58RTNR","either","7","940","","","","","","","0","0","1","","0.3557518394","0.8","0.2","0.6","0.4","0.07533366945","0.3557518394","0.3088596379","0.305209751","","","","","","","","","","","","","","74","J","1","","","51","main_expt",""
"","bandit","131","434485","0.0-93.0-0.0","32494336","wem/bandit_party_1","A2EZNZ6X58RTNR","either","7","783","","","","","","","0","0","1","","0.3254324358","0.8","0.2","0.6","0.4","0.06506638851","0.3254324358","0.3060924957","0.3087204988","","","","","","","","","","","","","","74","J","1","","","52","main_expt",""
"","bandit","132","436442","0.0-94.0-0.0","32494336","wem/bandit_party_1","A2EZNZ6X58RTNR","either","7","445","","","","","","","0","0","1","","0.2952150256","0.8","0.2","0.6","0.4","0.06562792832","0.2952150256","0.3229319808","0.2984188648","","","","","","","","","","","","","","74","J","1","","","53","main_expt",""
"","bandit","133","438603","0.0-95.0-0.0","32494336","wem/bandit_party_1","A2EZNZ6X58RTNR","either","7","648","","","","","","","0","0","1","","0.300320608","0.8","0.2","0.6","0.4","0.04630081711","0.300320608","0.3280138586","0.3353917468","","","","","","","","","","","","","","74","J","1","","","54","main_expt",""
"","bandit","134","442057","0.0-96.0-0.0","32494336","wem/bandit_party_1","A2EZNZ6X58RTNR","either","7","1943","","","","","","","0","1","0","","0.2985084879","0.8","0.2","0.6","0.4","0.03868373719","0.2985084879","0.2777260571","0.3259144651","","","","","","","","","","","","","","74","J","1","","","55","main_expt",""
"","bandit","135","444245","0.0-97.0-0.0","32494336","wem/bandit_party_1","A2EZNZ6X58RTNR","either","7","673","","","","","","","0","0","1","","0.2607009345","0.8","0.2","0.6","0.4","0.06235362297","0.2607009345","0.1791004868","0.3259049121","","","","","","","","","","","","","","74","J","1","","","56","main_expt",""
"","bandit","136","448140","0.0-98.0-0.0","32494336","wem/bandit_party_1","A2EZNZ6X58RTNR","either","7","2383","","","","","","","0","1","0","","0.2565854794","0.8","0.2","0.6","0.4","0.04639461243","0.2565854794","0.2182265394","0.3687904078","","","","","","","","","","","","","","74","J","1","","","57","main_expt",""
"","bandit","137","450368","0.0-99.0-0.0","32494336","wem/bandit_party_1","A2EZNZ6X58RTNR","either","7","715","","","","","","","0","1","0","","0.319121847","0.8","0.2","0.6","0.4","0.08954448139","0.319121847","0.2970860181","0.3422038875","","","","","","","","","","","","","","74","J","1","","","58","main_expt",""
"","bandit","138","452277","0.0-100.0-0.0","32494336","wem/bandit_party_1","A2EZNZ6X58RTNR","either","7","396","","","","","","","1","0","0","0.3269923399","","0.8","0.2","0.6","0.4","","","","","0.07390342289","0.3269923399","0.3249685468","0.3771421139","","","","","","","","","","74","J","1","","","59","main_expt",""
"","bandit","139","453817","0.0-101.0-0.0","32494336","wem/bandit_party_1","A2EZNZ6X58RTNR","either","7","28","","","","","","","1","0","0","0.3150968823","","0.8","0.2","0.6","0.4","","","","","0.05801548519","0.3150968823","0.2931470039","0.3620124399","","","","","","","","","","74","J","1","","","60","main_expt",""
"","bandit","140","461766","0.0-102.0-0.0","32494336","wem/bandit_party_1","A2EZNZ6X58RTNR","either","7","6435","","","","","","","0","0","1","","0.324539239","0.8","0.2","0.6","0.4","0.07333263924","0.324539239","0.2646536279","0.3958116198","","","","","","","","","","","","","","74","J","1","","","61","main_expt",""
"","bandit","141","464370","0.0-103.0-0.0","32494336","wem/bandit_party_1","A2EZNZ6X58RTNR","either","7","1090","","","","","","","0","0","1","","0.3066306166","0.8","0.2","0.6","0.4","0.07563430262","0.3066306166","0.242461968","0.3615218546","","","","","","","","","","","","","","74","J","1","","","62","main_expt",""
"","bandit","142","466217","0.0-104.0-0.0","32494336","wem/bandit_party_1","A2EZNZ6X58RTNR","either","7","336","","","","","","","0","0","1","","0.3068900116","0.8","0.2","0.6","0.4","0.06826526778","0.3068900116","0.2206683029","0.3574266064","","","","","","","","","","","","","","74","J","1","","","63","main_expt",""
"","bandit","143","468052","0.0-105.0-0.0","32494336","wem/bandit_party_1","A2EZNZ6X58RTNR","either","7","325","","","","","","","0","0","1","0.2936494982","","0.8","0.2","0.6","0.4","","","","","0.1175271989","0.2936494982","0.2288959862","0.3541915859","","","","","","","","","","74","J","1","","","64","main_expt",""
"","bandit","144","469808","0.0-106.0-0.0","32494336","wem/bandit_party_1","A2EZNZ6X58RTNR","either","7","248","","","","","","","0","1","0","","0.290236101","0.8","0.2","0.6","0.4","0.1273865191","0.290236101","0.2346523549","0.3339820985","","","","","","","","","","","","","","74","J","1","","","65","main_expt",""
"","bandit","145","471680","0.0-107.0-0.0","32494336","wem/bandit_party_1","A2EZNZ6X58RTNR","either","7","363","","","","","","","0","1","0","","0.2512036594","0.8","0.2","0.6","0.4","0.09075088943","0.2512036594","0.1881688105","0.3195467083","","","","","","","","","","","","","","74","J","1","","","66","main_expt",""
"","bandit","146","473448","0.0-108.0-0.0","32494336","wem/bandit_party_1","A2EZNZ6X58RTNR","either","7","255","","","","","","","0","0","1","0.263747572","","0.8","0.2","0.6","0.4","","","","","0.08077075725","0.263747572","0.231043846","0.3477383846","","","","","","","","","","74","J","1","","","67","main_expt",""
"","bandit","147","475312","0.0-109.0-0.0","32494336","wem/bandit_party_1","A2EZNZ6X58RTNR","either","7","351","","","","","","","0","0","1","","0.2892519303","0.8","0.2","0.6","0.4","0.08810311296","0.2892519303","0.2576664243","0.3365352069","","","","","","","","","","","","","","74","J","1","","","68","main_expt",""
"","bandit","148","477273","0.0-110.0-0.0","32494336","wem/bandit_party_1","A2EZNZ6X58RTNR","either","7","447","","","","","","","0","0","1","","0.2383664846","0.8","0.2","0.6","0.4","0.1260156682","0.2383664846","0.2183283259","0.3148812039","","","","","","","","","","","","","","74","J","1","","","69","main_expt",""
"","bandit","149","479253","0.0-111.0-0.0","32494336","wem/bandit_party_1","A2EZNZ6X58RTNR","either","7","465","","","","","","","0","1","0","","0.2497111545","0.8","0.2","0.6","0.4","0.08773951932","0.2497111545","0.2260484764","0.3154014692","","","","","","","","","","","","","","74","J","1","","","70","main_expt",""
"","bandit","150","481339","0.0-112.0-0.0","32494336","wem/bandit_party_1","A2EZNZ6X58RTNR","either","7","571","","","","","","","0","0","1","","0.2095843002","0.8","0.2","0.6","0.4","0.1154304285","0.2095843002","0.3196469567","0.219815459","","","","","","","","","","","","","","74","J","1","","","71","main_expt",""
"","bandit","151","484150","0.0-113.0-0.0","32494336","wem/bandit_party_1","A2EZNZ6X58RTNR","either","7","1298","","","","","","","0","0","1","","0.1972488467","0.8","0.2","0.6","0.4","0.10097247","0.1972488467","0.3644141189","0.2623730272","","","","","","","","","","","","","","74","J","1","","","72","main_expt",""
"","bandit","152","489849","0.0-114.0-0.0","32494336","wem/bandit_party_1","A2EZNZ6X58RTNR","either","7","4185","","","","","","","0","1","0","","0.15494396","0.8","0.2","0.6","0.4","0.0746930591","0.15494396","0.4081842109","0.2639805735","","","","","","","","","","","","","","74","J","1","","","73","main_expt",""
"","bandit","153","491816","0.0-115.0-0.0","32494336","wem/bandit_party_1","A2EZNZ6X58RTNR","either","7","454","","","","","","","0","0","1","0.1324790415","","0.8","0.2","0.6","0.4","","","","","0.1124392477","0.1324790415","0.4506698749","0.2770925356","","","","","","","","","","74","J","1","","","74","main_expt",""
"","bandit","154","495239","0.0-116.0-0.0","32494336","wem/bandit_party_1","A2EZNZ6X58RTNR","either","7","1909","","","","","","","0","0","1","","0.179195356","0.8","0.2","0.6","0.4","0.113494578","0.179195356","0.454520075","0.2796652475","","","","","","","","","","","","","","74","J","1","","","75","main_expt",""
"","bandit","155","496801","0.0-117.0-0.0","32494336","wem/bandit_party_1","A2EZNZ6X58RTNR","either","7","52","","","","","","","0","0","1","","0.215808919","0.8","0.2","0.6","0.4","0.1469344428","0.215808919","0.466199952","0.3153427244","","","","","","","","","","","","","","74","J","1","","","76","main_expt",""
"","bandit","156","501248","0.0-118.0-0.0","32494336","wem/bandit_party_1","A2EZNZ6X58RTNR","either","7","2935","","","","","","","0","0","1","","0.2312347408","0.8","0.2","0.6","0.4","0.2152215887","0.2312347408","0.4402141775","0.3676911864","","","","","","","","","","","","","","74","J","1","","","77","main_expt",""
"","bandit","157","510784","0.0-119.0-0.0","32494336","wem/bandit_party_1","A2EZNZ6X58RTNR","either","7","8021","","","","","","","0","1","0","","0.2197025874","0.8","0.2","0.6","0.4","0.2055177618","0.2197025874","0.4525957793","0.3434277392","","","","","","","","","","","","","","74","J","1","","","78","main_expt",""
"","bandit","158","512874","0.0-120.0-0.0","32494336","wem/bandit_party_1","A2EZNZ6X58RTNR","either","7","578","","","","","","","0","0","1","","0.2227420924","0.8","0.2","0.6","0.4","0.222262525","0.2227420924","0.4630799716","0.3758616161","","","","","","","","","","","","","","74","J","1","","","79","main_expt",""
"","bandit","159","515047","0.0-121.0-0.0","32494336","wem/bandit_party_1","A2EZNZ6X58RTNR","either","7","659","","","","","","","0","0","1","","0.2283057493","0.8","0.2","0.6","0.4","0.2700860438","0.2283057493","0.423693353","0.3862393514","","","","","","","","","","","","","","74","J","1","","","80","main_expt",""
"","bandit","160","517331","0.0-122.0-0.0","32494336","wem/bandit_party_1","A2EZNZ6X58RTNR","either","7","769","","","","","","","0","0","1","0.2721525977","","0.8","0.2","0.6","0.4","","","","","0.2642688004","0.2721525977","0.4319112677","0.3593770893","","","","","","","","","","74","J","1","","","81","main_expt",""
"","bandit","161","519346","0.0-123.0-0.0","32494336","wem/bandit_party_1","A2EZNZ6X58RTNR","either","7","502","","","","","","","0","0","1","","0.2850237184","0.8","0.2","0.6","0.4","0.2824164754","0.2850237184","0.441827487","0.4035110645","","","","","","","","","","","","","","74","J","1","","","82","main_expt",""
"","bandit","162","521358","0.0-124.0-0.0","32494336","wem/bandit_party_1","A2EZNZ6X58RTNR","either","7","499","","","","","","","0","0","1","0.3236436683","","0.8","0.2","0.6","0.4","","","","","0.2819095575","0.3236436683","0.4288861504","0.3719627038","","","","","","","","","","74","J","1","","","83","main_expt",""
"","bandit","163","523299","0.0-125.0-0.0","32494336","wem/bandit_party_1","A2EZNZ6X58RTNR","either","7","428","","","","","","","0","0","1","","0.3339638593","0.8","0.2","0.6","0.4","0.2589745902","0.3339638593","0.4350385517","0.3349288927","","","","","","","","","","","","","","74","J","1","","","84","main_expt",""
"","bandit","164","525316","0.0-126.0-0.0","32494336","wem/bandit_party_1","A2EZNZ6X58RTNR","either","7","503","","","","","","","0","0","1","","0.3795022601","0.8","0.2","0.6","0.4","0.3626504113","0.3795022601","0.4255505645","0.3247899262","","","","","","","","","","","","","","74","J","1","","","85","main_expt",""
"","bandit","165","527359","0.0-127.0-0.0","32494336","wem/bandit_party_1","A2EZNZ6X58RTNR","either","7","531","","","","","","","0","0","1","","0.3835523064","0.8","0.2","0.6","0.4","0.3598915268","0.3835523064","0.4330938692","0.3443557019","","","","","","","","","","","","","","74","J","1","","","86","main_expt",""
"","bandit","166","529706","0.0-128.0-0.0","32494336","wem/bandit_party_1","A2EZNZ6X58RTNR","either","7","832","","","","","","","0","0","1","","0.3772514457","0.8","0.2","0.6","0.4","0.3433052933","0.3772514457","0.4548398529","0.3648776167","","","","","","","","","","","","","","74","J","1","","","87","main_expt",""
"","bandit","167","532083","0.0-129.0-0.0","32494336","wem/bandit_party_1","A2EZNZ6X58RTNR","either","7","859","","","","","","","0","0","1","","0.3766830519","0.8","0.2","0.6","0.4","0.4022938878","0.3766830519","0.4493124031","0.3609631839","","","","","","","","","","","","","","74","J","1","","","88","main_expt",""
"","bandit","168","534881","0.0-130.0-0.0","32494336","wem/bandit_party_1","A2EZNZ6X58RTNR","either","7","1284","","","","","","","0","0","1","","0.3537755119","0.8","0.2","0.6","0.4","0.4141493151","0.3537755119","0.4161110063","0.3636167192","","","","","","","","","","","","","","74","J","1","","","89","main_expt",""
"","bandit","169","536857","0.0-131.0-0.0","32494336","wem/bandit_party_1","A2EZNZ6X58RTNR","either","7","464","","","","","","","0","1","0","","0.3014761449","0.8","0.2","0.6","0.4","0.4136124289","0.3014761449","0.405260856","0.3563441379","","","","","","","","","","","","","","74","J","1","","","90","main_expt",""
"","bandit","170","538539","0.0-132.0-0.0","32494336","wem/bandit_party_1","A2EZNZ6X58RTNR","either","7","169","","","","","","","0","0","1","","0.2694038268","0.8","0.2","0.6","0.4","0.4184852842","0.2694038268","0.3827048226","0.3389138503","","","","","","","","","","","","","","74","J","1","","","91","main_expt",""
"","bandit","171","542139","0.0-133.0-0.0","32494336","wem/bandit_party_1","A2EZNZ6X58RTNR","either","7","2085","","","","","","","0","0","1","","0.2651536323","0.8","0.2","0.6","0.4","0.4456808576","0.2651536323","0.3552182969","0.3263360165","","","","","","","","","","","","","","74","J","1","","","92","main_expt",""
"","bandit","172","544011","0.0-134.0-0.0","32494336","wem/bandit_party_1","A2EZNZ6X58RTNR","either","7","356","","","","","","","1","0","0","0.4355219805","","0.8","0.2","0.6","0.4","","","","","0.4355219805","0.1997208586","0.3286897504","0.2844131911","","","","","","","","","","72","H","0","img/none_selected.jpg","","93","main_expt",""
"","bandit","173","545992","0.0-135.0-0.0","32494336","wem/bandit_party_1","A2EZNZ6X58RTNR","either","7","466","","","","","","","0","0","1","","0.4609821192","0.8","0.2","0.6","0.4","0.4609821192","0.2442555344","0.3422490236","0.2978465223","","","","","","","","","","","","","","72","H","0","img/none_selected.jpg","","94","main_expt",""
"","bandit","174","548034","0.0-136.0-0.0","32494336","wem/bandit_party_1","A2EZNZ6X58RTNR","either","7","528","","","","","","","0","0","1","0.4419374505","","0.8","0.2","0.6","0.4","","","","","0.4419374505","0.2638839348","0.3160161054","0.2638723705","","","","","","","","","","72","H","0","img/none_selected.jpg","","95","main_expt",""
"","bandit","175","549891","0.0-137.0-0.0","32494336","wem/bandit_party_1","A2EZNZ6X58RTNR","either","7","344","","","","","","","0","0","1","0.39438674","","0.8","0.2","0.6","0.4","","","","","0.39438674","0.2265245807","0.2945538732","0.2276010735","","","","","","","","","","72","H","0","img/none_selected.jpg","","96","main_expt",""
"","bandit","176","551725","0.0-138.0-0.0","32494336","wem/bandit_party_1","A2EZNZ6X58RTNR","either","7","319","","","","","","","1","0","0","0.3617668419","","0.8","0.2","0.6","0.4","","","","","0.3617668419","0.1969189177","0.393563827","0.2045446072","","","","","","","","","","72","H","0","img/none_selected.jpg","","97","main_expt",""
"","bandit","177","553649","0.0-139.0-0.0","32494336","wem/bandit_party_1","A2EZNZ6X58RTNR","either","7","411","","","","","","","0","1","0","","0.3737913853","0.8","0.2","0.6","0.4","0.3737913853","0.1761144245","0.4046254927","0.2436418828","","","","","","","","","","","","","","72","H","0","img/none_selected.jpg","","98","main_expt",""
"","bandit","178","555774","0.0-140.0-0.0","32494336","wem/bandit_party_1","A2EZNZ6X58RTNR","either","7","610","","","","","","","0","0","1","0.4221129479","","0.8","0.2","0.6","0.4","","","","","0.4221129479","0.1211630765","0.3659012549","0.2473144087","","","","","","","","","","72","H","0","img/none_selected.jpg","","99","main_expt",""
"","bandit","179","557646","0.0-141.0-0.0","32494336","wem/bandit_party_1","A2EZNZ6X58RTNR","either","7","356","","","","","","","0","1","0","","0.3857893684","0.8","0.2","0.6","0.4","0.3857893684","0.1257326749","0.400368336","0.2707360286","","","","","","","","","","","","","","72","H","0","img/none_selected.jpg","","100","main_expt",""
"","bandit","180","559968","0.0-142.0-0.0","32494336","wem/bandit_party_1","A2EZNZ6X58RTNR","either","7","811","","","","","","","1","0","0","0.3635527264","","0.8","0.2","0.6","0.4","","","","","0.3635527264","0.09975532208","0.4367931528","0.3250409822","","","","","","","","","","72","H","0","img/none_selected.jpg","","101","main_expt",""
"","bandit","181","562110","0.0-143.0-0.0","32494336","wem/bandit_party_1","A2EZNZ6X58RTNR","either","7","630","","","","","","","0","0","1","0.3738375489","","0.8","0.2","0.6","0.4","","","","","0.3738375489","0.1127414424","0.4371155326","0.3088580598","","","","","","","","","","72","H","0","img/none_selected.jpg","","102","main_expt",""
"","bandit","182","564386","0.0-144.0-0.0","32494336","wem/bandit_party_1","A2EZNZ6X58RTNR","either","7","761","","","","","","","0","0","1","0.3860163181","","0.8","0.2","0.6","0.4","","","","","0.3860163181","0.1232600734","0.388648264","0.2901001995","","","","","","","","","","72","H","0","img/none_selected.jpg","","103","main_expt",""
"","bandit","183","566568","0.0-145.0-0.0","32494336","wem/bandit_party_1","A2EZNZ6X58RTNR","either","7","668","","","","","","","0","0","1","0.390692362","","0.8","0.2","0.6","0.4","","","","","0.390692362","0.08156843846","0.3718469433","0.309645936","","","","","","","","","","72","H","0","img/none_selected.jpg","","104","main_expt",""
"","bandit","184","569696","0.0-146.0-0.0","32494336","wem/bandit_party_1","A2EZNZ6X58RTNR","either","7","1616","","","","","","","0","0","1","0.4139082553","","0.8","0.2","0.6","0.4","","","","","0.4139082553","0.08245659199","0.3920304628","0.3386062745","","","","","","","","","","72","H","0","img/none_selected.jpg","","105","main_expt",""
"","bandit","185","572659","0.0-147.0-0.0","32494336","wem/bandit_party_1","A2EZNZ6X58RTNR","either","7","1449","","","","","","","0","0","1","0.3295275825","","0.8","0.2","0.6","0.4","","","","","0.3295275825","0.1276639339","0.3733497125","0.3827539061","","","","","","","","","","72","H","0","img/none_selected.jpg","","106","main_expt",""
"","bandit","186","574831","0.0-148.0-0.0","32494336","wem/bandit_party_1","A2EZNZ6X58RTNR","either","7","659","","","","","","","0","0","1","0.3401355396","","0.8","0.2","0.6","0.4","","","","","0.3499712774","0.1812689745","0.3878439861","0.3401355396","","","","","","","","","","76","L","3","","","107","main_expt",""
"","bandit","187","578288","0.0-149.0-0.0","32494336","wem/bandit_party_1","A2EZNZ6X58RTNR","either","7","1939","","","","","","","1","0","0","0.3258039352","","0.8","0.2","0.6","0.4","","","","","0.2666891207","0.2187982558","0.3529013302","0.3258039352","","","","","","","","","","76","L","3","","","108","main_expt",""
"","bandit","188","582204","0.0-150.0-0.0","32494336","wem/bandit_party_1","A2EZNZ6X58RTNR","either","7","2403","","","","","","","0","0","1","","0.374919859","0.8","0.2","0.6","0.4","0.2575067634","0.2201216928","0.3457683734","0.374919859","","","","","","","","","","","","","","76","L","3","","","109","main_expt",""
"","bandit","189","584638","0.0-151.0-0.0","32494336","wem/bandit_party_1","A2EZNZ6X58RTNR","either","7","916","","","","","","","0","0","1","0.3656186065","","0.8","0.2","0.6","0.4","","","","","0.2664913793","0.1789817232","0.3316873257","0.3656186065","","","","","","","","","","76","L","3","","","110","main_expt",""
"","bandit","190","586726","0.0-152.0-0.0","32494336","wem/bandit_party_1","A2EZNZ6X58RTNR","either","7","572","","","","","","","1","0","0","0.3434945318","","0.8","0.2","0.6","0.4","","","","","0.2233446911","0.2404947452","0.3434945318","0.3649701027","","","","","","","","","","75","K","2","","","111","main_expt",""
"","bandit","191","590356","0.0-153.0-0.0","32494336","wem/bandit_party_1","A2EZNZ6X58RTNR","either","7","2116","","","","","","","0","0","1","0.2729480053","","0.8","0.2","0.6","0.4","","","","","0.2170082082","0.2959558532","0.2729480053","0.3371716456","","","","","","","","","","75","K","2","","","112","main_expt",""
"","bandit","192","593918","0.0-154.0-0.0","32494336","wem/bandit_party_1","A2EZNZ6X58RTNR","either","7","2049","","","","","","","0","0","1","","0.2579672073","0.8","0.2","0.6","0.4","0.1912277411","0.2966985553","0.2579672073","0.2587224119","","","","","","","","","","","","","","75","K","2","","","113","main_expt",""
"","bandit","193","596304","0.0-155.0-0.0","32494336","wem/bandit_party_1","A2EZNZ6X58RTNR","either","7","872","","","","","","","0","0","1","","0.24654084","0.8","0.2","0.6","0.4","0.1691995451","0.3289730608","0.24654084","0.2384324947","","","","","","","","","","","","","","75","K","2","","","114","main_expt",""
"","bandit","194","598174","0.0-156.0-0.0","32494336","wem/bandit_party_1","A2EZNZ6X58RTNR","either","7","356","","","","","","","0","0","1","","0.246649757","0.8","0.2","0.6","0.4","0.1263730162","0.2783705844","0.246649757","0.2705755989","","","","","","","","","","","","","","75","K","2","","","115","main_expt",""
"","bandit","195","602625","0.0-157.0-0.0","32494336","wem/bandit_party_1","A2EZNZ6X58RTNR","either","7","2936","","","","","","","0","0","1","","0.2990421824","0.8","0.2","0.6","0.4","0.1130092975","0.2990421824","0.2190482835","0.2666822","","","","","","","","","","","","","","74","J","1","","","116","main_expt",""
"","bandit","196","604814","0.0-158.0-0.0","32494336","wem/bandit_party_1","A2EZNZ6X58RTNR","either","7","675","","","","","","","0","0","1","","0.3214730448","0.8","0.2","0.6","0.4","0.1317362661","0.3214730448","0.1860086181","0.2664749026","","","","","","","","","","","","","","74","J","1","","","117","main_expt",""
"","bandit","197","607476","0.0-159.0-0.0","32494336","wem/bandit_party_1","A2EZNZ6X58RTNR","either","7","1148","","","","","","","0","0","1","","0.3996160597","0.8","0.2","0.6","0.4","0.08460291254","0.3996160597","0.1765749983","0.285497096","","","","","","","","","","","","","","74","J","1","","","118","main_expt",""
"","bandit","198","609228","0.0-160.0-0.0","32494336","wem/bandit_party_1","A2EZNZ6X58RTNR","either","7","239","","","","","","","0","0","1","0.09168363065","","0.8","0.2","0.6","0.4","","","","","0.09168363065","0.4143362638","0.1840588368","0.3004427434","","","","","","","","","","72","H","0","img/none_selected.jpg","","119","main_expt",""
"","bandit","199","610989","0.0-161.0-0.0","32494336","wem/bandit_party_1","A2EZNZ6X58RTNR","either","7","248","","","","","","","0","0","1","0.06729372802","","0.8","0.2","0.6","0.4","","","","","0.06729372802","0.372340151","0.1988357929","0.2419855731","","","","","","","","","","72","H","0","img/none_selected.jpg","","120","main_expt",""
"","bandit","200","613769","0.0-162.0-0.0","32494336","wem/bandit_party_1","A2EZNZ6X58RTNR","either","7","1265","","","","","","","0","0","1","0.08346408207","","0.8","0.2","0.6","0.4","","","","","0.08346408207","0.3910424524","0.2315674","0.3054132847","","","","","","","","","","72","H","0","img/none_selected.jpg","","121","main_expt",""
"","bandit","201","616192","0.0-163.0-0.0","32494336","wem/bandit_party_1","A2EZNZ6X58RTNR","either","7","909","","","","","","","0","0","1","","0.05632743158","0.8","0.2","0.6","0.4","0.05632743158","0.3813410711","0.2041322171","0.2473202095","","","","","","","","","","","","","","72","H","0","img/none_selected.jpg","","122","main_expt",""
"","bandit","202","618539","0.0-164.0-0.0","32494336","wem/bandit_party_1","A2EZNZ6X58RTNR","either","7","835","","","","","","","0","0","1","0.05516745574","","0.8","0.2","0.6","0.4","","","","","0.05516745574","0.4247291795","0.1945268209","0.2909195989","","","","","","","","","","72","H","0","img/none_selected.jpg","","123","main_expt",""
"","bandit","203","621029","0.0-165.0-0.0","32494336","wem/bandit_party_1","A2EZNZ6X58RTNR","either","7","975","","","","","","","0","0","1","0.05528311039","","0.8","0.2","0.6","0.4","","","","","0.05528311039","0.4311179713","0.2206749142","0.3493750294","","","","","","","","","","72","H","0","img/none_selected.jpg","","124","main_expt",""
"","bandit","204","624010","0.0-166.0-0.0","32494336","wem/bandit_party_1","A2EZNZ6X58RTNR","either","7","1468","","","","","","","0","0","1","0.07149807259","","0.8","0.2","0.6","0.4","","","","","0.07149807259","0.4085782939","0.212012295","0.3883668019","","","","","","","","","","72","H","0","img/none_selected.jpg","","125","main_expt",""
"","bandit","205","626385","0.0-167.0-0.0","32494336","wem/bandit_party_1","A2EZNZ6X58RTNR","either","7","865","","","","","","","0","0","1","","0.1137803622","0.8","0.2","0.6","0.4","0.1137803622","0.4110861309","0.1656684785","0.3888129637","","","","","","","","","","","","","","72","H","0","img/none_selected.jpg","","126","main_expt",""
"","bandit","206","628971","0.0-168.0-0.0","32494336","wem/bandit_party_1","A2EZNZ6X58RTNR","either","7","1071","","","","","","","0","0","1","0.1003054442","","0.8","0.2","0.6","0.4","","","","","0.1003054442","0.4214671818","0.1685301808","0.3659195129","","","","","","","","","","72","H","0","img/none_selected.jpg","","127","main_expt",""
"","bandit","207","636261","0.0-169.0-0.0","32494336","wem/bandit_party_1","A2EZNZ6X58RTNR","either","7","5774","","","","","","","0","0","1","","0.1378169536","0.8","0.2","0.6","0.4","0.1378169536","0.36889317","0.1703551811","0.3689954399","","","","","","","","","","","","","","72","H","0","img/none_selected.jpg","","128","main_expt",""
"","bandit","208","638993","0.0-170.0-0.0","32494336","wem/bandit_party_1","A2EZNZ6X58RTNR","either","7","1223","","","","","","","0","0","1","0.1333081235","","0.8","0.2","0.6","0.4","","","","","0.1333081235","0.3840267129","0.1624753709","0.3600340942","","","","","","","","","","72","H","0","img/none_selected.jpg","","129","main_expt",""
"","bandit","209","640651","0.0-171.0-0.0","32494336","wem/bandit_party_1","A2EZNZ6X58RTNR","either","7","147","","","","","","","0","0","1","0.1682212827","","0.8","0.2","0.6","0.4","","","","","0.1682212827","0.3809677701","0.2335662737","0.3580797835","","","","","","","","","","72","H","0","img/none_selected.jpg","","130","main_expt",""
"","bandit","210","679202","0.0-172.0-0.0","32494336","wem/bandit_party_1","A2EZNZ6X58RTNR","either","7","37036","","","","","","","1","0","0","0.3681933818","","0.8","0.2","0.6","0.4","","","","","0.2193829955","0.3681933818","0.240441026","0.3785893338","","","","","","","","","","74","J","1","","","131","main_expt",""
"","bandit","211","681044","0.0-173.0-0.0","32494336","wem/bandit_party_1","A2EZNZ6X58RTNR","either","7","328","","","","","","","0","0","1","","0.3664045944","0.8","0.2","0.6","0.4","0.2693349046","0.3664045944","0.2266699971","0.3764735404","","","","","","","","","","","","","","74","J","1","","","132","main_expt",""
"","bandit","212","682967","0.0-174.0-0.0","32494336","wem/bandit_party_1","A2EZNZ6X58RTNR","either","7","406","","","","","","","0","0","1","","0.4046437197","0.8","0.2","0.6","0.4","0.2576546077","0.4046437197","0.1994193025","0.3433534211","","","","","","","","","","","","","","74","J","1","","","133","main_expt",""
"","bandit","213","684613","0.0-175.0-0.0","32494336","wem/bandit_party_1","A2EZNZ6X58RTNR","either","7","132","","","","","","","0","1","0","","0.364490756","0.8","0.2","0.6","0.4","0.2412372273","0.364490756","0.1891464922","0.3606247271","","","","","","","","","","","","","","74","J","1","","","134","main_expt",""
"","bandit","214","686397","0.0-176.0-0.0","32494336","wem/bandit_party_1","A2EZNZ6X58RTNR","either","7","269","","","","","","","0","0","1","","0.311914316","0.8","0.2","0.6","0.4","0.2198641054","0.311914316","0.1614798668","0.3268624306","","","","","","","","","","","","","","74","J","1","","","135","main_expt",""
"","bandit","215","688297","0.0-177.0-0.0","32494336","wem/bandit_party_1","A2EZNZ6X58RTNR","either","7","386","","","","","","","0","0","1","","0.2653901568","0.8","0.2","0.6","0.4","0.2504132697","0.2653901568","0.1880386222","0.2854606769","","","","","","","","","","","","","","74","J","1","","","136","main_expt",""
"","bandit","216","690101","0.0-178.0-0.0","32494336","wem/bandit_party_1","A2EZNZ6X58RTNR","either","7","289","","","","","","","0","1","0","","0.2413295316","0.8","0.2","0.6","0.4","0.1912230989","0.2413295316","0.1961818793","0.3311747399","","","","","","","","","","","","","","74","J","1","","","137","main_expt",""
"","bandit","217","691917","0.0-179.0-0.0","32494336","wem/bandit_party_1","A2EZNZ6X58RTNR","either","7","302","","","","","","","0","0","1","","0.2060295423","0.8","0.2","0.6","0.4","0.1576256809","0.2060295423","0.2857678963","0.2570785188","","","","","","","","","","","","","","74","J","1","","","138","main_expt",""
"","bandit","218","693982","0.0-180.0-0.0","32494336","wem/bandit_party_1","A2EZNZ6X58RTNR","either","7","550","","","","","","","0","0","1","","0.1809645164","0.8","0.2","0.6","0.4","0.1019788138","0.1809645164","0.3449131854","0.2858060749","","","","","","","","","","","","","","74","J","1","","","139","main_expt",""
"","bandit","219","695862","0.0-181.0-0.0","32494336","wem/bandit_party_1","A2EZNZ6X58RTNR","either","7","367","","","","","","","0","0","1","","0.1843216893","0.8","0.2","0.6","0.4","0.07754087054","0.1843216893","0.2537716732","0.2975559752","","","","","","","","","","","","","","74","J","1","","","140","main_expt",""
"","bandit","220","697902","0.0-182.0-0.0","32494336","wem/bandit_party_1","A2EZNZ6X58RTNR","either","7","529","","","","","","","0","0","1","","0.1651876155","0.8","0.2","0.6","0.4","0.09489610577","0.1651876155","0.2858111263","0.2802168405","","","","","","","","","","","","","","74","J","1","","","141","main_expt",""
"","bandit","221","699525","0.0-183.0-0.0","32494336","wem/bandit_party_1","A2EZNZ6X58RTNR","either","7","110","","","","","","","0","0","1","","0.303049367","0.8","0.2","0.6","0.4","0.09601428546","0.1536427928","0.303049367","0.2231986748","","","","","","","","","","","","","","75","K","2","","","142","main_expt",""
"","bandit","222","701287","0.0-184.0-0.0","32494336","wem/bandit_party_1","A2EZNZ6X58RTNR","either","7","246","","","","","","","1","0","0","0.2969419413","","0.8","0.2","0.6","0.4","","","","","0.08301142993","0.1546140226","0.2969419413","0.2032880393","","","","","","","","","","75","K","2","","","143","main_expt",""
"","bandit","223","703173","0.0-185.0-0.0","32494336","wem/bandit_party_1","A2EZNZ6X58RTNR","either","7","377","","","","","","","0","0","1","0.3128690494","","0.8","0.2","0.6","0.4","","","","","0.09599686985","0.1746031107","0.3128690494","0.1967741464","","","","","","","","","","75","K","2","","","144","main_expt",""
"","bandit","224","704916","0.0-186.0-0.0","32494336","wem/bandit_party_1","A2EZNZ6X58RTNR","either","7","228","","","","","","","0","0","1","0.2991796355","","0.8","0.2","0.6","0.4","","","","","0.07499383622","0.2021387556","0.2991796355","0.2283154954","","","","","","","","","","75","K","2","","","145","main_expt",""
"","bandit","225","706765","0.0-187.0-0.0","32494336","wem/bandit_party_1","A2EZNZ6X58RTNR","either","7","335","","","","","","","0","0","1","","0.3163763193","0.8","0.2","0.6","0.4","0.09566861","0.2504344391","0.3163763193","0.2118700154","","","","","","","","","","","","","","75","K","2","","","146","main_expt",""
"","bandit","226","708793","0.0-188.0-0.0","32494336","wem/bandit_party_1","A2EZNZ6X58RTNR","either","7","512","","","","","","","1","0","0","0.3198025905","","0.8","0.2","0.6","0.4","","","","","0.08578591382","0.2437718569","0.3198025905","0.210437557","","","","","","","","","","75","K","2","","","147","main_expt",""
"","bandit","227","710736","0.0-189.0-0.0","32494336","wem/bandit_party_1","A2EZNZ6X58RTNR","either","7","435","","","","","","","1","0","0","0.2588245921","","0.8","0.2","0.6","0.4","","","","","0.1147887709","0.2446677265","0.2588245921","0.2370661354","","","","","","","","","","75","K","2","","","148","main_expt",""
"","bandit","228","712783","0.0-190.0-0.0","32494336","wem/bandit_party_1","A2EZNZ6X58RTNR","either","7","537","","","","","","","0","0","1","0.248712437","","0.8","0.2","0.6","0.4","","","","","0.1378203382","0.2911002833","0.248712437","0.2430363771","","","","","","","","","","75","K","2","","","149","main_expt",""
"","bandit","229","714698","0.0-191.0-0.0","32494336","wem/bandit_party_1","A2EZNZ6X58RTNR","either","7","400","","","","","","","0","0","1","","0.179144869","0.8","0.2","0.6","0.4","0.1414499273","0.3529655025","0.179144869","0.2242182381","","","","","","","","","","","","","","75","K","2","","","150","main_expt",""
"","bandit","230","716549","0.0-192.0-0.0","32494336","wem/bandit_party_1","A2EZNZ6X58RTNR","either","7","336","","","","","","","0","0","1","0.1545669956","","0.8","0.2","0.6","0.4","","","","","0.07852348772","0.3885741111","0.1545669956","0.1997145133","","","","","","","","","","75","K","2","","","151","main_expt",""
"","bandit","231","719253","0.0-193.0-0.0","32494336","wem/bandit_party_1","A2EZNZ6X58RTNR","either","7","1189","","","","","","","0","0","1","0.1651714415","","0.8","0.2","0.6","0.4","","","","","0.08485793113","0.3690499696","0.1651714415","0.2195927633","","","","","","","","","","75","K","2","","","152","main_expt",""
"","bandit","232","721083","0.0-194.0-0.0","32494336","wem/bandit_party_1","A2EZNZ6X58RTNR","either","7","315","","","","","","","0","1","0","","0.2396245514","0.8","0.2","0.6","0.4","0.1083789561","0.3710492515","0.2396245514","0.2121816628","","","","","","","","","","","","","","75","K","2","","","153","main_expt",""
"","bandit","233","723977","0.0-195.0-0.0","32494336","wem/bandit_party_1","A2EZNZ6X58RTNR","either","7","1376","","","","","","","0","0","1","","0.2085838567","0.8","0.2","0.6","0.4","0.109098481","0.3483335413","0.2085838567","0.1830588608","","","","","","","","","","","","","","75","K","2","","","154","main_expt",""
"","bandit","234","725745","0.0-196.0-0.0","32494336","wem/bandit_party_1","A2EZNZ6X58RTNR","either","7","253","","","","","","","0","0","1","0.1864274254","","0.8","0.2","0.6","0.4","","","","","0.1758262092","0.3343760247","0.1864274254","0.2031423662","","","","","","","","","","75","K","2","","","155","main_expt",""
"","bandit","235","730213","0.0-197.0-0.0","32494336","wem/bandit_party_1","A2EZNZ6X58RTNR","either","7","2952","","","","","","","1","0","0","0.1750870897","","0.8","0.2","0.6","0.4","","","","","0.2046597001","0.3742013553","0.1750870897","0.2022731065","","","","","","","","","","75","K","2","","","156","main_expt",""
"","bandit","236","732152","0.0-198.0-0.0","32494336","wem/bandit_party_1","A2EZNZ6X58RTNR","either","7","423","","","","","","","0","0","1","0.1321985386","","0.8","0.2","0.6","0.4","","","","","0.1774751899","0.3620366094","0.1321985386","0.1826661219","","","","","","","","","","75","K","2","","","157","main_expt",""
"","bandit","237","734969","0.0-199.0-0.0","32494336","wem/bandit_party_1","A2EZNZ6X58RTNR","either","7","1302","","","","","","","0","0","1","0.1341899746","","0.8","0.2","0.6","0.4","","","","","0.1612033886","0.3671714071","0.1341899746","0.1658993888","","","","","","","","","","75","K","2","","","158","main_expt",""
"","bandit","238","737414","0.0-200.0-0.0","32494336","wem/bandit_party_1","A2EZNZ6X58RTNR","either","7","931","","","","","","","0","0","1","","0.1567784951","0.8","0.2","0.6","0.4","0.1586838935","0.4015988616","0.1567784951","0.1620079643","","","","","","","","","","","","","","75","K","2","","","159","main_expt",""
"","bandit","239","739539","0.0-201.0-0.0","32494336","wem/bandit_party_1","A2EZNZ6X58RTNR","either","7","610","","","","","","","0","0","1","","0.1615549635","0.8","0.2","0.6","0.4","0.2159944071","0.4004877553","0.1615549635","0.2453635642","","","","","","","","","","","","","","75","K","2","","","160","main_expt",""
"","bandit","240","741826","0.0-202.0-0.0","32494336","wem/bandit_party_1","A2EZNZ6X58RTNR","either","7","770","","","","","","","0","0","1","0.1854631015","","0.8","0.2","0.6","0.4","","","","","0.2105769377","0.4095849454","0.1854631015","0.2456373749","","","","","","","","","","75","K","2","","","161","main_expt",""
"","bandit","241","743729","0.0-203.0-0.0","32494336","wem/bandit_party_1","A2EZNZ6X58RTNR","either","7","385","","","","","","","0","0","1","","0.21229469","0.8","0.2","0.6","0.4","0.2006925765","0.3978002783","0.21229469","0.2460125232","","","","","","","","","","","","","","75","K","2","","","162","main_expt",""
"","bandit","242","747366","0.0-204.0-0.0","32494336","wem/bandit_party_1","A2EZNZ6X58RTNR","either","7","2122","","","","","","","0","0","1","","0.162194177","0.8","0.2","0.6","0.4","0.2365124807","0.4180552148","0.162194177","0.2013568893","","","","","","","","","","","","","","75","K","2","","","163","main_expt",""
"","bandit","243","753478","0.0-205.0-0.0","32494336","wem/bandit_party_1","A2EZNZ6X58RTNR","either","7","4598","","","","","","","0","0","1","0.1535707797","","0.8","0.2","0.6","0.4","","","","","0.2157370886","0.4407560021","0.1535707797","0.1933595846","","","","","","","","","","75","K","2","","","164","main_expt",""
"","bandit","244","756777","0.0-206.0-0.0","32494336","wem/bandit_party_1","A2EZNZ6X58RTNR","either","7","1781","","","","","","","0","0","1","","0.2315934193","0.8","0.2","0.6","0.4","0.2166787898","0.4582960521","0.2315934193","0.167552211","","","","","","","","","","","","","","75","K","2","","","165","main_expt",""
"","bandit","245","758482","0.0-207.0-0.0","32494336","wem/bandit_party_1","A2EZNZ6X58RTNR","either","7","187","","","","","","","0","1","0","","0.2579087381","0.8","0.2","0.6","0.4","0.1846262972","0.4337500892","0.2579087381","0.1311237951","","","","","","","","","","","","","","75","K","2","","","166","main_expt",""
"","bandit","246","760711","0.0-208.0-0.0","32494336","wem/bandit_party_1","A2EZNZ6X58RTNR","either","7","714","","","","","","","0","0","1","","0.2496457694","0.8","0.2","0.6","0.4","0.1888750078","0.4537582576","0.2496457694","0.1714029316","","","","","","","","","","","","","","75","K","2","","","167","main_expt",""
"","bandit","247","763494","0.0-209.0-0.0","32494336","wem/bandit_party_1","A2EZNZ6X58RTNR","either","7","1269","","","","","","","0","0","1","","0.234558796","0.8","0.2","0.6","0.4","0.2315683769","0.4473485534","0.234558796","0.1494402723","","","","","","","","","","","","","","75","K","2","","","168","main_expt",""
"","bandit","248","767328","0.0-210.0-0.0","32494336","wem/bandit_party_1","A2EZNZ6X58RTNR","either","7","2324","","","","","","","1","0","0","0.2458600006","","0.8","0.2","0.6","0.4","","","","","0.2018123945","0.4471591033","0.2458600006","0.1819888556","","","","","","","","","","75","K","2","","","169","main_expt",""
"","bandit","249","769376","0.0-211.0-0.0","32494336","wem/bandit_party_1","A2EZNZ6X58RTNR","either","7","534","","","","","","","0","0","1","","0.2214583157","0.8","0.2","0.6","0.4","0.139238222","0.4581839475","0.2214583157","0.2329206984","","","","","","","","","","","","","","75","K","2","","","170","main_expt",""
"","bandit","250","771247","0.0-212.0-0.0","32494336","wem/bandit_party_1","A2EZNZ6X58RTNR","either","7","353","","","","","","","0","1","0","","0.296208115","0.8","0.2","0.6","0.4","0.1466511374","0.4674995421","0.296208115","0.2000607923","","","","","","","","","","","","","","75","K","2","","","171","main_expt",""
"","bandit","251","773126","0.0-213.0-0.0","32494336","wem/bandit_party_1","A2EZNZ6X58RTNR","either","7","362","","","","","","","0","1","0","","0.3062379281","0.8","0.2","0.6","0.4","0.1348290388","0.4455620345","0.3062379281","0.2342957318","","","","","","","","","","","","","","75","K","2","","","172","main_expt",""
"","bandit","252","775091","0.0-214.0-0.0","32494336","wem/bandit_party_1","A2EZNZ6X58RTNR","either","7","447","","","","","","","0","1","0","","0.2498067723","0.8","0.2","0.6","0.4","0.1521691919","0.4471610379","0.2498067723","0.2189308077","","","","","","","","","","","","","","75","K","2","","","173","main_expt",""
"","bandit","253","776935","0.0-215.0-0.0","32494336","wem/bandit_party_1","A2EZNZ6X58RTNR","either","7","327","","","","","","","1","0","0","0.1803522277","","0.8","0.2","0.6","0.4","","","","","0.2191935525","0.4496576915","0.1803522277","0.2373932689","","","","","","","","","","75","K","2","","","174","main_expt",""
"","bandit","254","778861","0.0-216.0-0.0","32494336","wem/bandit_party_1","A2EZNZ6X58RTNR","either","7","408","","","","","","","0","0","1","0.2014319342","","0.8","0.2","0.6","0.4","","","","","0.219961305","0.4715297358","0.2014319342","0.2160264752","","","","","","","","","","75","K","2","","","175","main_expt",""
"","bandit","255","780658","0.0-217.0-0.0","32494336","wem/bandit_party_1","A2EZNZ6X58RTNR","either","7","278","","","","","","","0","0","1","0.2122003168","","0.8","0.2","0.6","0.4","","","","","0.1882485239","0.477956151","0.2122003168","0.1990604306","","","","","","","","","","75","K","2","","","176","main_expt",""
"","bandit","256","782243","0.0-218.0-0.0","32494336","wem/bandit_party_1","A2EZNZ6X58RTNR","either","7","65","","","","","","","0","0","1","0.2629069455","","0.8","0.2","0.6","0.4","","","","","0.1644902553","0.4563721206","0.2629069455","0.1729978196","","","","","","","","","","75","K","2","","","177","main_expt",""
"","bandit","257","784030","0.0-219.0-0.0","32494336","wem/bandit_party_1","A2EZNZ6X58RTNR","either","7","269","","","","","","","0","0","1","","0.2336104206","0.8","0.2","0.6","0.4","0.1713669852","0.4409869931","0.2336104206","0.1633080779","","","","","","","","","","","","","","75","K","2","","","178","main_expt",""
"","bandit","258","787123","0.0-220.0-0.0","32494336","wem/bandit_party_1","A2EZNZ6X58RTNR","either","7","1577","","","","","","","0","0","1","0.1887504226","","0.8","0.2","0.6","0.4","","","","","0.2263400462","0.4243126063","0.1887504226","0.1243251356","","","","","","","","","","75","K","2","","","179","main_expt",""
"","bandit","259","788983","0.0-221.0-0.0","32494336","wem/bandit_party_1","A2EZNZ6X58RTNR","either","7","342","","","","","","","0","0","1","0.138376641","","0.8","0.2","0.6","0.4","","","","","0.2036870175","0.4312830743","0.138376641","0.1150149055","","","","","","","","","","75","K","2","","","180","main_expt",""
"","bandit","260","790806","0.0-222.0-0.0","32494336","wem/bandit_party_1","A2EZNZ6X58RTNR","either","7","307","","","","","","","0","0","1","0.1883992559","","0.8","0.2","0.6","0.4","","","","","0.1934599198","0.4433127893","0.1883992559","0.1407924877","","","","","","","","","","75","K","2","","","181","main_expt",""
"","bandit","261","792857","0.0-223.0-0.0","32494336","wem/bandit_party_1","A2EZNZ6X58RTNR","either","7","538","","","","","","","0","0","1","0.128889003","","0.8","0.2","0.6","0.4","","","","","0.2424515525","0.440136403","0.128889003","0.09672650852","","","","","","","","","","75","K","2","","","182","main_expt",""
"","bandit","262","794508","0.0-224.0-0.0","32494336","wem/bandit_party_1","A2EZNZ6X58RTNR","either","7","133","","","","","","","0","0","1","0.1748769843","","0.8","0.2","0.6","0.4","","","","","0.1961777535","0.4347693449","0.1748769843","0.09888002855","","","","","","","","","","75","K","2","","","183","main_expt",""
"","bandit","263","796206","0.0-225.0-0.0","32494336","wem/bandit_party_1","A2EZNZ6X58RTNR","either","7","175","","","","","","","0","0","1","0.1945994373","","0.8","0.2","0.6","0.4","","","","","0.1489283113","0.4277130926","0.1945994373","0.07200145298","","","","","","","","","","75","K","2","","","184","main_expt",""
"","bandit","264","798224","0.0-226.0-0.0","32494336","wem/bandit_party_1","A2EZNZ6X58RTNR","either","7","502","","","","","","","0","0","1","","0.1644748654","0.8","0.2","0.6","0.4","0.1499965078","0.3956248437","0.1644748654","0.09476413333","","","","","","","","","","","","","","75","K","2","","","185","main_expt",""
"","bandit","265","799963","0.0-227.0-0.0","32494336","wem/bandit_party_1","A2EZNZ6X58RTNR","either","7","219","","","","","","","0","0","1","0.1504635592","","0.8","0.2","0.6","0.4","","","","","0.2169832988","0.3748928266","0.1504635592","0.06556422103","","","","","","","","","","75","K","2","","","186","main_expt",""
"","bandit","266","803792","0.0-228.0-0.0","32494336","wem/bandit_party_1","A2EZNZ6X58RTNR","either","7","2310","","","","","","","0","0","1","0.1760039214","","0.8","0.2","0.6","0.4","","","","","0.2655186329","0.3848139325","0.1760039214","0.08901149072","","","","","","","","","","75","K","2","","","187","main_expt",""
"","bandit","267","806128","0.0-229.0-0.0","32494336","wem/bandit_party_1","A2EZNZ6X58RTNR","either","7","818","","","","","","","0","0","1","0.1203267588","","0.8","0.2","0.6","0.4","","","","","0.2738785118","0.3990176401","0.1203267588","0.09471428588","","","","","","","","","","75","K","2","","","188","main_expt",""
"","bandit","268","807662","0.0-230.0-0.0","32494336","wem/bandit_party_1","A2EZNZ6X58RTNR","either","7","12","","","","","","","1","0","0","0.1171540391","","0.8","0.2","0.6","0.4","","","","","0.3041874674","0.3581396838","0.1171540391","0.05118235823","","","","","","","","","","75","K","2","","","189","main_expt",""
"","bandit","269","809243","0.0-231.0-0.0","32494336","wem/bandit_party_1","A2EZNZ6X58RTNR","either","7","63","","","","","","","0","0","1","","0.1535230761","0.8","0.2","0.6","0.4","0.3229453735","0.2882972244","0.1535230761","0.05788318751","","","","","","","","","","","","","","75","K","2","","","190","main_expt",""
"","bandit","270","814100","0.0-232.0-0.0","32494336","wem/bandit_party_1","A2EZNZ6X58RTNR","either","7","3345","","","","","","","1","0","0","0.1372750947","","0.8","0.2","0.6","0.4","","","","","0.3818249757","0.3145326233","0.1372750947","0.08736915481","","","","","","","","","","75","K","2","","","191","main_expt",""
"","bandit","271","815899","0.0-233.0-0.0","32494336","wem/bandit_party_1","A2EZNZ6X58RTNR","either","7","280","","","","","","","0","0","1","0.1047771501","","0.8","0.2","0.6","0.4","","","","","0.4157726243","0.3270603702","0.1047771501","0.08251019118","","","","","","","","","","75","K","2","","","192","main_expt",""
"","bandit","272","817983","0.0-234.0-0.0","32494336","wem/bandit_party_1","A2EZNZ6X58RTNR","either","7","567","","","","","","","0","0","1","0.1100845432","","0.8","0.2","0.6","0.4","","","","","0.4611608212","0.3604030797","0.1100845432","0.06897628064","","","","","","","","","","75","K","2","","","193","main_expt",""
"","bandit","273","820800","0.0-235.0-0.0","32494336","wem/bandit_party_1","A2EZNZ6X58RTNR","either","7","1300","","","","","","","0","0","1","","0.1468163818","0.8","0.2","0.6","0.4","0.4508818777","0.357423186","0.1468163818","0.06801266305","","","","","","","","","","","","","","75","K","2","","","194","main_expt",""
"","bandit","274","823905","0.0-236.0-0.0","32494336","wem/bandit_party_1","A2EZNZ6X58RTNR","either","7","1591","","","","","","","0","0","1","","0.1495594621","0.8","0.2","0.6","0.4","0.4278921451","0.3697779856","0.1495594621","0.09923709358","","","","","","","","","","","","","","75","K","2","","","195","main_expt",""
"","bandit","275","825976","0.0-237.0-0.0","32494336","wem/bandit_party_1","A2EZNZ6X58RTNR","either","7","552","","","","","","","0","0","1","0.2263220537","","0.8","0.2","0.6","0.4","","","","","0.4256293003","0.3617177512","0.2263220537","0.1103063831","","","","","","","","","","75","K","2","","","196","main_expt",""
"","bandit","276","829082","0.0-238.0-0.0","32494336","wem/bandit_party_1","A2EZNZ6X58RTNR","either","7","1593","","","","","","","0","1","0","","0.2204718804","0.8","0.2","0.6","0.4","0.4476975038","0.3775990084","0.2204718804","0.07377144043","","","","","","","","","","","","","","75","K","2","","","197","main_expt",""
"","bandit","277","830929","0.0-239.0-0.0","32494336","wem/bandit_party_1","A2EZNZ6X58RTNR","either","7","328","","","","","","","0","1","0","","0.2401118457","0.8","0.2","0.6","0.4","0.4434357272","0.4144042571","0.2401118457","0.08863448313","","","","","","","","","","","","","","75","K","2","","","198","main_expt",""
"","bandit","278","833428","0.0-240.0-0.0","32494336","wem/bandit_party_1","A2EZNZ6X58RTNR","either","7","983","","","","","","","0","0","1","0.2673724497","","0.8","0.2","0.6","0.4","","","","","0.4245114622","0.4081775392","0.2673724497","0.1082179128","","","","","","","","","","75","K","2","","","199","main_expt",""
"","bandit","279","836414","0.0-241.0-0.0","32494336","wem/bandit_party_1","A2EZNZ6X58RTNR","either","7","1475","","","","","","","0","0","1","","0.3125307902","0.8","0.2","0.6","0.4","0.4087100315","0.4166156547","0.3125307902","0.09350688576","","","","","","","","","","","","","","75","K","2","","","200","main_expt",""
"","bandit","280","839661","0.0-242.0-0.0","32494336","wem/bandit_party_1","A2EZNZ6X58RTNR","either","7","1734","","","","","","","0","0","1","","0.2914574258","0.8","0.2","0.6","0.4","0.4361521275","0.4306537176","0.2914574258","0.1036625099","","","","","","","","","","","","","","75","K","2","","","201","main_expt",""
"","bandit","281","844110","0.0-243.0-0.0","32494336","wem/bandit_party_1","A2EZNZ6X58RTNR","either","7","2925","","","","","","","0","1","0","","0.2550600684","0.8","0.2","0.6","0.4","0.3332596158","0.449382563","0.2550600684","0.1216733889","","","","","","","","","","","","","","75","K","2","","","202","main_expt",""
"","bandit","282","848812","0.0-244.0-0.0","32494336","wem/bandit_party_1","A2EZNZ6X58RTNR","either","7","3180","","","","","","","0","0","1","0.2769745997","","0.8","0.2","0.6","0.4","","","","","0.3581848779","0.4506576586","0.2769745997","0.120655788","","","","","","","","","","75","K","2","","","203","main_expt",""
"","bandit","283","850595","0.0-245.0-0.0","32494336","wem/bandit_party_1","A2EZNZ6X58RTNR","either","7","265","","","","","","","0","1","0","","0.2752990059","0.8","0.2","0.6","0.4","0.3597133043","0.454839243","0.2752990059","0.1082970726","","","","","","","","","","","","","","75","K","2","","","204","main_expt",""
"","bandit","284","852236","0.0-246.0-0.0","32494336","wem/bandit_party_1","A2EZNZ6X58RTNR","either","7","124","","","","","","","0","0","1","0.2901512169","","0.8","0.2","0.6","0.4","","","","","0.3630183988","0.4512889682","0.2901512169","0.09143681274","","","","","","","","","","75","K","2","","","205","main_expt",""
"","bandit","285","856514","0.0-247.0-0.0","32494336","wem/bandit_party_1","A2EZNZ6X58RTNR","either","7","2764","","","","","","","0","0","1","","0.2823763913","0.8","0.2","0.6","0.4","0.3737494834","0.4591490044","0.2823763913","0.08377413986","","","","","","","","","","","","","","75","K","2","","","206","main_expt",""
"","bandit","286","860156","0.0-248.0-0.0","32494336","wem/bandit_party_1","A2EZNZ6X58RTNR","either","7","2122","","","","","","","0","0","1","","0.2708062506","0.8","0.2","0.6","0.4","0.3668784438","0.4650593633","0.2708062506","0.1585073664","","","","","","","","","","","","","","75","K","2","","","207","main_expt",""
"","bandit","287","862974","0.0-249.0-0.0","32494336","wem/bandit_party_1","A2EZNZ6X58RTNR","either","7","1298","","","","","","","0","0","1","0.2641553663","","0.8","0.2","0.6","0.4","","","","","0.4045351895","0.4641513068","0.2641553663","0.162299901","","","","","","","","","","75","K","2","","","208","main_expt",""
"","bandit","288","865801","0.0-250.0-0.0","32494336","wem/bandit_party_1","A2EZNZ6X58RTNR","either","7","1308","","","","","","","0","0","1","0.2704675845","","0.8","0.2","0.6","0.4","","","","","0.4402386934","0.4567807332","0.2704675845","0.1542266077","","","","","","","","","","75","K","2","","","209","main_expt",""
"","bandit","289","870428","0.0-251.0-0.0","32494336","wem/bandit_party_1","A2EZNZ6X58RTNR","either","7","3108","","","","","","","1","0","0","0.3420868926","","0.8","0.2","0.6","0.4","","","","","0.4483623408","0.428253188","0.3420868926","0.1890415559","","","","","","","","","","75","K","2","","","210","main_expt",""
"","bandit","290","872371","0.0-252.0-0.0","32494336","wem/bandit_party_1","A2EZNZ6X58RTNR","either","7","429","","","","","","","1","0","0","0.3069688952","","0.8","0.2","0.6","0.4","","","","","0.4471415093","0.410271385","0.3069688952","0.1818133019","","","","","","","","","","75","K","2","","","211","main_expt",""
"","bandit","291","873921","0.0-253.0-0.0","32494336","wem/bandit_party_1","A2EZNZ6X58RTNR","either","7","31","","","","","","","0","0","1","0.3005379093","","0.8","0.2","0.6","0.4","","","","","0.4374655127","0.4065587724","0.3005379093","0.1782747956","","","","","","","","","","75","K","2","","","212","main_expt",""
"","bandit","292","878266","0.0-254.0-0.0","32494336","wem/bandit_party_1","A2EZNZ6X58RTNR","either","7","2824","","","","","","","0","0","1","0.213882915","","0.8","0.2","0.6","0.4","","","","","0.4381457257","0.4007116542","0.213882915","0.1935195711","","","","","","","","","","75","K","2","","","213","main_expt",""
"","bandit","293","880134","0.0-255.0-0.0","32494336","wem/bandit_party_1","A2EZNZ6X58RTNR","either","7","348","","","","","","","0","0","1","","0.2138557204","0.8","0.2","0.6","0.4","0.4643769008","0.4246209323","0.2138557204","0.2421176173","","","","","","","","","","","","","","75","K","2","","","214","main_expt",""
"","bandit","294","884292","0.0-256.0-0.0","32494336","wem/bandit_party_1","A2EZNZ6X58RTNR","either","7","2639","","","","","","","0","0","1","0.2142566612","","0.8","0.2","0.6","0.4","","","","","0.4328812357","0.3993057066","0.2142566612","0.2629876012","","","","","","","","","","75","K","2","","","215","main_expt",""
"","bandit","295","890572","0.0-257.0-0.0","32494336","wem/bandit_party_1","A2EZNZ6X58RTNR","either","7","4763","","","","","","","0","0","1","","0.1900351118","0.8","0.2","0.6","0.4","0.4064507999","0.3987772474","0.1900351118","0.2977714141","","","","","","","","","","","","","","75","K","2","","","216","main_expt",""
"","bandit","296","893795","0.0-258.0-0.0","32494336","wem/bandit_party_1","A2EZNZ6X58RTNR","either","7","1710","","","","","","","0","0","1","0.2185169477","","0.8","0.2","0.6","0.4","","","","","0.4197961641","0.4101433534","0.2185169477","0.3017601552","","","","","","","","","","75","K","2","","","217","main_expt",""
"","bandit","297","895406","0.0-259.0-0.0","32494336","wem/bandit_party_1","A2EZNZ6X58RTNR","either","7","89","","","","","","","0","0","1","","0.2240895604","0.8","0.2","0.6","0.4","0.4167397569","0.4448029092","0.2240895604","0.2888566207","","","","","","","","","","","","","","75","K","2","","","218","main_expt",""
"","bandit","298","897917","0.0-260.0-0.0","32494336","wem/bandit_party_1","A2EZNZ6X58RTNR","either","7","999","","","","","","","0","0","1","","0.1990808675","0.8","0.2","0.6","0.4","0.4250944588","0.4454766299","0.1990808675","0.2844008008","","","","","","","","","","","","","","75","K","2","","","219","main_expt",""
"","bandit","299","903368","0.0-261.0-0.0","32494336","wem/bandit_party_1","A2EZNZ6X58RTNR","either","7","3932","","","","","","","0","0","1","0.266602996","","0.8","0.2","0.6","0.4","","","","","0.4173336587","0.4610997771","0.266602996","0.2225062479","","","","","","","","","","75","K","2","","","220","main_expt",""
"","bandit","300","905714","0.0-262.0-0.0","32494336","wem/bandit_party_1","A2EZNZ6X58RTNR","either","7","828","","","","","","","0","0","1","0.2443661227","","0.8","0.2","0.6","0.4","","","","","0.3944711005","0.4642289789","0.2443661227","0.2409900116","","","","","","","","","","75","K","2","","","221","main_expt",""
"","bandit","301","908852","0.0-263.0-0.0","32494336","wem/bandit_party_1","A2EZNZ6X58RTNR","either","7","1619","","","","","","","0","0","1","","0.2205922116","0.8","0.2","0.6","0.4","0.3619306912","0.4641270597","0.2205922116","0.1989678636","","","","","","","","","","","","","","75","K","2","","","222","main_expt",""
"","bandit","302","913007","0.0-264.0-0.0","32494336","wem/bandit_party_1","A2EZNZ6X58RTNR","either","7","2636","","","","","","","1","0","0","0.1861223506","","0.8","0.2","0.6","0.4","","","","","0.4117842179","0.4697433819","0.1861223506","0.1902867071","","","","","","","","","","75","K","2","","","223","main_expt",""
"","bandit","303","916662","0.0-265.0-0.0","32494336","wem/bandit_party_1","A2EZNZ6X58RTNR","either","7","2134","","","","","","","1","0","0","0.1668884863","","0.8","0.2","0.6","0.4","","","","","0.3965092367","0.460898083","0.1668884863","0.2076415522","","","","","","","","","","75","K","2","","","224","main_expt",""
"","bandit","304","919992","0.0-266.0-0.0","32494336","wem/bandit_party_1","A2EZNZ6X58RTNR","either","7","1813","","","","","","","0","0","1","0.1481472712","","0.8","0.2","0.6","0.4","","","","","0.4084477862","0.4394890665","0.1481472712","0.2393469174","","","","","","","","","","75","K","2","","","225","main_expt",""
"","bandit","305","923623","0.0-267.0-0.0","32494336","wem/bandit_party_1","A2EZNZ6X58RTNR","either","7","2112","","","","","","","0","0","1","0.1140846591","","0.8","0.2","0.6","0.4","","","","","0.4104601526","0.4520955237","0.1140846591","0.2425440376","","","","","","","","","","75","K","2","","","226","main_expt",""
"","bandit","306","926982","0.0-268.0-0.0","32494336","wem/bandit_party_1","A2EZNZ6X58RTNR","either","7","1839","","","","","","","0","0","1","0.1074218354","","0.8","0.2","0.6","0.4","","","","","0.3899733519","0.4324220164","0.1074218354","0.2365603363","","","","","","","","","","75","K","2","","","227","main_expt",""
"","bandit","307","930805","0.0-269.0-0.0","32494336","wem/bandit_party_1","A2EZNZ6X58RTNR","either","7","2305","","","","","","","0","0","1","0.08065165665","","0.8","0.2","0.6","0.4","","","","","0.3796730737","0.4220482421","0.08065165665","0.2127958296","","","","","","","","","","75","K","2","","","228","main_expt",""
"","bandit","308","934593","0.0-270.0-0.0","32494336","wem/bandit_party_1","A2EZNZ6X58RTNR","either","7","2268","","","","","","","0","0","1","0.07774059362","","0.8","0.2","0.6","0.4","","","","","0.4046866514","0.3885749154","0.07774059362","0.2207861463","","","","","","","","","","75","K","2","","","229","main_expt",""
"","bandit","309","936298","0.0-271.0-0.0","32494336","wem/bandit_party_1","A2EZNZ6X58RTNR","either","7","187","","","","","","","0","0","1","0.1109483114","","0.8","0.2","0.6","0.4","","","","","0.3988793555","0.4023755806","0.1109483114","0.2589226453","","","","","","","","","","75","K","2","","","230","main_expt",""
"","bandit","310","938756","0.0-272.0-0.0","32494336","wem/bandit_party_1","A2EZNZ6X58RTNR","either","7","946","","","","","","","0","0","1","0.05902300203","","0.8","0.2","0.6","0.4","","","","","0.3981898202","0.3768725222","0.05902300203","0.2956158432","","","","","","","","","","75","K","2","","","231","main_expt",""
"","bandit","311","940970","0.0-273.0-0.0","32494336","wem/bandit_party_1","A2EZNZ6X58RTNR","either","7","695","","","","","","","0","0","1","0.06675855664","","0.8","0.2","0.6","0.4","","","","","0.4411941832","0.3619917427","0.06675855664","0.3202484073","","","","","","","","","","75","K","2","","","232","main_expt",""
"","bandit","312","943216","0.0-274.0-0.0","32494336","wem/bandit_party_1","A2EZNZ6X58RTNR","either","7","720","","","","","","","0","0","1","","0.06703699679","0.8","0.2","0.6","0.4","0.42967461","0.3833578816","0.06703699679","0.2933644042","","","","","","","","","","","","","","75","K","2","","","233","main_expt",""
"","bandit","313","945809","0.0-275.0-0.0","32494336","wem/bandit_party_1","A2EZNZ6X58RTNR","either","7","1075","","","","","","","0","0","1","0.05331023031","","0.8","0.2","0.6","0.4","","","","","0.4242798354","0.3552131768","0.05331023031","0.3106154811","","","","","","","","","","75","K","2","","","234","main_expt",""
"","bandit","314","947862","0.0-276.0-0.0","32494336","wem/bandit_party_1","A2EZNZ6X58RTNR","either","7","539","","","","","","","0","0","1","","0.05187545802","0.8","0.2","0.6","0.4","0.4617388459","0.3135084543","0.05187545802","0.3158990995","","","","","","","","","","","","","","75","K","2","","","235","main_expt",""
"","bandit","315","949819","0.0-277.0-0.0","32494336","wem/bandit_party_1","A2EZNZ6X58RTNR","either","7","440","","","","","","","1","0","0","0.06939909985","","0.8","0.2","0.6","0.4","","","","","0.4619510484","0.244945467","0.06939909985","0.3036927748","","","","","","","","","","75","K","2","","","236","main_expt",""
"","bandit","316","952444","0.0-278.0-0.0","32494336","wem/bandit_party_1","A2EZNZ6X58RTNR","either","7","1106","","","","","","","0","0","1","","0.1210409879","0.8","0.2","0.6","0.4","0.4482398789","0.1823839079","0.1210409879","0.3491021326","","","","","","","","","","","","","","75","K","2","","","237","main_expt",""
"","bandit","317","954117","0.0-279.0-0.0","32494336","wem/bandit_party_1","A2EZNZ6X58RTNR","either","7","158","","","","","","","1","0","0","0.1147840357","","0.8","0.2","0.6","0.4","","","","","0.4193969143","0.1685050226","0.1147840357","0.3939254097","","","","","","","","","","75","K","2","","","238","main_expt",""
