"consent","trial_type","trial_index","time_elapsed","internal_node_id","subjID","study","MID","cond","drift","rt","responses","button_pressed","key_press","like","value","connected","gems","bombs","no_reward","GemPrChosen","BombPrChosen","GainOverPainPr_0","GainOverPainPr_1","GainOverPainPr_2","GainOverPainPr_3","LosePr_0","LosePr_1","LosePr_2","LosePr_3","WinPr_0","WinPr_1","WinPr_2","WinPr_3","Q0","Q1","Q2","gender","age","ethnicity","label","expt_phase","target","respCharCode","respKey","respChoiceNum","respChoice","practice","trial_counter","trial_label","Q0_index"
"GDM/GDM_behavioral_consent_30min_online.html","consent","0","16644","0.0-0.0","37236138","wem/bandit_party_1","A2VX8B1CJXRN2","either","8","","","","","","","","","","","","","","","","","","","","","","","","","","","","","","","","","","","","","","","","",""
"","survey-text","1","22964","0.0-1.0","37236138","wem/bandit_party_1","A2VX8B1CJXRN2","either","8","5304","{""Q0"":""A2VX8B1CJXRN2""}","","","","","","","","","","","","","","","","","","","","","","","","","","","","","","","","","","","","","","",""
"","button-response","2","25918","0.0-2.0","37236138","wem/bandit_party_1","A2VX8B1CJXRN2","either","8","1943","","1","","","","","","","","","","","","","","","","","","","","","","","","","","","","","","","","","","","","","",""
"","text-replacement","3","38369","0.0-3.0","37236138","wem/bandit_party_1","A2VX8B1CJXRN2","either","8","11444","","","32","","","","","","","","","","","","","","","","","","","","","","","","","","","","","","","","","","","","",""
"","text-replacement","4","49402","0.0-4.0","37236138","wem/bandit_party_1","A2VX8B1CJXRN2","either","8","11027","","","32","","","","","","","","","","","","","","","","","","","","","","","","","","","","","","","","","","","","",""
"","identification","5","59402","0.0-6.0-0.0","37236138","wem/bandit_party_1","A2VX8B1CJXRN2","either","8","9949","","","","3","2","2","","","","","","","","","","","","","","","","","","","","","","","","pre","identification_pre","the Republican party","","","","","","","",""
"","identification","6","66817","0.0-6.0-1.0","37236138","wem/bandit_party_1","A2VX8B1CJXRN2","either","8","6351","","","","4","5","5","","","","","","","","","","","","","","","","","","","","","","","","pre","identification_pre","the Democratic Party","","","","","","","",""
"","text-replacement","7","71881","0.0-7.0","37236138","wem/bandit_party_1","A2VX8B1CJXRN2","either","8","4037","","","32","","","","","","","","","","","","","","","","","","","","","","","","","","","","","","","","","","","","",""
"","text-replacement","8","77408","0.0-8.0","37236138","wem/bandit_party_1","A2VX8B1CJXRN2","either","8","5497","","","32","","","","","","","","","","","","","","","","","","","","","","","","","","","","","","","","","","","","",""
"","text-replacement","9","91850","0.0-9.0","37236138","wem/bandit_party_1","A2VX8B1CJXRN2","either","8","14422","","","32","","","","","","","","","","","","","","","","","","","","","","","","","","","","","","","","","","","","",""
"","text-replacement","10","97151","0.0-10.0","37236138","wem/bandit_party_1","A2VX8B1CJXRN2","either","8","5272","","","32","","","","","","","","","","","","","","","","","","","","","","","","","","","","","","","","","","","","",""
"","text-replacement","11","105158","0.0-11.0","37236138","wem/bandit_party_1","A2VX8B1CJXRN2","either","8","7995","","","32","","","","","","","","","","","","","","","","","","","","","","","","","","","","","","","","","","","","",""
"","bandit","12","109036","0.0-12.0-0.0","37236138","wem/bandit_party_1","A2VX8B1CJXRN2","either","8","2309","","","","","","","0","0","1","0","0","","","","","0","","","","0","","","","","","","","","","","","","74","J","0","img/none_selected_demo.jpg","true","0","",""
"","bandit","13","112193","0.0-13.0-0.0","37236138","wem/bandit_party_1","A2VX8B1CJXRN2","either","8","1630","","","","","","","0","0","1","0","0","","","","","0","","","","0","","","","","","","","","","","","","75","K","0","img/none_selected_demo.jpg","true","0","",""
"","text-replacement","14","118692","0.0-14.0","37236138","wem/bandit_party_1","A2VX8B1CJXRN2","either","8","6490","","","32","","","","","","","","","","","","","","","","","","","","","","","","","","","","","","","","","","","","",""
"","text-replacement","15","131658","0.0-15.0","37236138","wem/bandit_party_1","A2VX8B1CJXRN2","either","8","12956","","","32","","","","","","","","","","","","","","","","","","","","","","","","","","","","","","","","","","","","",""
"","text-replacement","16","140365","0.0-16.0","37236138","wem/bandit_party_1","A2VX8B1CJXRN2","either","8","8698","","","32","","","","","","","","","","","","","","","","","","","","","","","","","","","","","","","","","","","","",""
"","text-replacement","17","149086","0.0-17.0","37236138","wem/bandit_party_1","A2VX8B1CJXRN2","either","8","8709","","","32","","","","","","","","","","","","","","","","","","","","","","","","","","","","","","","","","","","","",""
"","bandit","18","152973","0.0-18.0-0.0","37236138","wem/bandit_party_1","A2VX8B1CJXRN2","either","8","2343","","","","","","","1","0","0","0.8","","0.5","0.5","","","","","","","0.8","0.2","","","","","","","","","","","","74","J","0","img/none_selected_demo.jpg","true","0","80_20_practice",""
"","bandit","19","155853","0.0-18.0-1.0","37236138","wem/bandit_party_1","A2VX8B1CJXRN2","either","8","1319","","","","","","","0","1","0","","0.8","0.5","0.5","","","0.8","0.2","","","","","","","","","","","","","","","","74","J","0","img/none_selected_demo.jpg","true","0","80_20_practice",""
"","bandit","20","159099","0.0-18.0-2.0","37236138","wem/bandit_party_1","A2VX8B1CJXRN2","either","8","1683","","","","","","","0","0","1","0.2","","0.5","0.5","","","","","","","0.8","0.2","","","","","","","","","","","","75","K","1","","true","0","80_20_practice",""
"","bandit","21","161482","0.0-18.0-3.0","37236138","wem/bandit_party_1","A2VX8B1CJXRN2","either","8","840","","","","","","","0","1","0","","0.8","0.5","0.5","","","0.8","0.2","","","","","","","","","","","","","","","","74","J","0","img/none_selected_demo.jpg","true","0","80_20_practice",""
"","bandit","22","163540","0.0-18.0-4.0","37236138","wem/bandit_party_1","A2VX8B1CJXRN2","either","8","515","","","","","","","0","1","0","","0.8","0.5","0.5","","","0.8","0.2","","","","","","","","","","","","","","","","74","J","0","img/none_selected_demo.jpg","true","0","80_20_practice",""
"","bandit","23","165344","0.0-18.0-5.0","37236138","wem/bandit_party_1","A2VX8B1CJXRN2","either","8","245","","","","","","","0","1","0","","0.8","0.5","0.5","","","0.8","0.2","","","","","","","","","","","","","","","","74","J","0","img/none_selected_demo.jpg","true","0","80_20_practice",""
"","bandit","24","167480","0.0-18.0-6.0","37236138","wem/bandit_party_1","A2VX8B1CJXRN2","either","8","570","","","","","","","0","0","1","0.8","","0.5","0.5","","","","","","","0.8","0.2","","","","","","","","","","","","74","J","0","img/none_selected_demo.jpg","true","0","80_20_practice",""
"","bandit","25","169854","0.0-18.0-7.0","37236138","wem/bandit_party_1","A2VX8B1CJXRN2","either","8","810","","","","","","","0","0","1","0.2","","0.5","0.5","","","","","","","0.8","0.2","","","","","","","","","","","","75","K","1","","true","0","80_20_practice",""
"","bandit","26","173042","0.0-18.0-8.0","37236138","wem/bandit_party_1","A2VX8B1CJXRN2","either","8","1629","","","","","","","0","1","0","","0.2","0.5","0.5","","","0.8","0.2","","","","","","","","","","","","","","","","75","K","1","","true","0","80_20_practice",""
"","bandit","27","177381","0.0-18.0-9.0","37236138","wem/bandit_party_1","A2VX8B1CJXRN2","either","8","2745","","","","","","","0","0","1","","0.2","0.5","0.5","","","0.8","0.2","","","","","","","","","","","","","","","","75","K","1","","true","0","80_20_practice",""
"","bandit","28","180935","0.0-18.0-10.0","37236138","wem/bandit_party_1","A2VX8B1CJXRN2","either","8","1969","","","","","","","0","0","1","0.8","","0.5","0.5","","","","","","","0.8","0.2","","","","","","","","","","","","74","J","0","img/none_selected_demo.jpg","true","0","80_20_practice",""
"","bandit","29","182852","0.0-18.0-11.0","37236138","wem/bandit_party_1","A2VX8B1CJXRN2","either","8","351","","","","","","","0","1","0","","0.8","0.5","0.5","","","0.8","0.2","","","","","","","","","","","","","","","","74","J","0","img/none_selected_demo.jpg","true","0","80_20_practice",""
"","bandit","30","184775","0.0-18.0-12.0","37236138","wem/bandit_party_1","A2VX8B1CJXRN2","either","8","360","","","","","","","0","1","0","","0.8","0.5","0.5","","","0.8","0.2","","","","","","","","","","","","","","","","74","J","0","img/none_selected_demo.jpg","true","0","80_20_practice",""
"","bandit","31","187949","0.0-18.0-13.0","37236138","wem/bandit_party_1","A2VX8B1CJXRN2","either","8","1608","","","","","","","0","0","1","","0.8","0.5","0.5","","","0.8","0.2","","","","","","","","","","","","","","","","74","J","0","img/none_selected_demo.jpg","true","0","80_20_practice",""
"","bandit","32","190436","0.0-18.0-14.0","37236138","wem/bandit_party_1","A2VX8B1CJXRN2","either","8","927","","","","","","","0","1","0","","0.8","0.5","0.5","","","0.8","0.2","","","","","","","","","","","","","","","","74","J","0","img/none_selected_demo.jpg","true","0","80_20_practice",""
"","bandit","33","192407","0.0-18.0-15.0","37236138","wem/bandit_party_1","A2VX8B1CJXRN2","either","8","427","","","","","","","1","0","0","0.8","","0.5","0.5","","","","","","","0.8","0.2","","","","","","","","","","","","74","J","0","img/none_selected_demo.jpg","true","0","80_20_practice",""
"","bandit","34","194544","0.0-18.0-16.0","37236138","wem/bandit_party_1","A2VX8B1CJXRN2","either","8","581","","","","","","","0","0","1","","0.8","0.5","0.5","","","0.8","0.2","","","","","","","","","","","","","","","","74","J","0","img/none_selected_demo.jpg","true","0","80_20_practice",""
"","bandit","35","198360","0.0-18.0-17.0","37236138","wem/bandit_party_1","A2VX8B1CJXRN2","either","8","2256","","","","","","","0","1","0","","0.8","0.5","0.5","","","0.8","0.2","","","","","","","","","","","","","","","","74","J","0","img/none_selected_demo.jpg","true","0","80_20_practice",""
"","bandit","36","200397","0.0-18.0-18.0","37236138","wem/bandit_party_1","A2VX8B1CJXRN2","either","8","479","","","","","","","1","0","0","0.8","","0.5","0.5","","","","","","","0.8","0.2","","","","","","","","","","","","74","J","0","img/none_selected_demo.jpg","true","0","80_20_practice",""
"","bandit","37","202476","0.0-18.0-19.0","37236138","wem/bandit_party_1","A2VX8B1CJXRN2","either","8","508","","","","","","","0","1","0","","0.8","0.5","0.5","","","0.8","0.2","","","","","","","","","","","","","","","","74","J","0","img/none_selected_demo.jpg","true","0","80_20_practice",""
"","text-replacement","38","208044","0.0-19.0","37236138","wem/bandit_party_1","A2VX8B1CJXRN2","either","8","5553","","","32","","","","","","","","","","","","","","","","","","","","","","","","","","","","","","","","","","","","",""
"","bandit","39","210352","0.0-20.0-0.0","37236138","wem/bandit_party_1","A2VX8B1CJXRN2","either","8","752","","","","","","","1","0","0","1","0","","","","","0","1","","","1","0","","","","","","","","","","","","74","J","0","img/none_selected_demo.jpg","true","0","",""
"","text-replacement","40","217718","0.0-21.0","37236138","wem/bandit_party_1","A2VX8B1CJXRN2","either","8","7355","","","32","","","","","","","","","","","","","","","","","","","","","","","","","","","","","","","","","","","","",""
"","text-replacement","41","222002","0.0-22.0","37236138","wem/bandit_party_1","A2VX8B1CJXRN2","either","8","4246","","","32","","","","","","","","","","","","","","","","","","","","","","","","","","","","","","","","","","","","",""
"","text-replacement","42","229997","0.0-23.0","37236138","wem/bandit_party_1","A2VX8B1CJXRN2","either","8","7969","","","32","","","","","","","","","","","","","","","","","","","","","","","","","","","","","","","","","","","","",""
"","text-replacement","43","233348","0.0-24.0","37236138","wem/bandit_party_1","A2VX8B1CJXRN2","either","8","3334","","","32","","","","","","","","","","","","","","","","","","","","","","","","","","","","","","","","","","","","",""
"","text-replacement","44","244732","0.0-25.0","37236138","wem/bandit_party_1","A2VX8B1CJXRN2","either","8","11356","","","32","","","","","","","","","","","","","","","","","","","","","","","","","","","","","","","","","","","","",""
"","text-replacement","45","249088","0.0-26.0","37236138","wem/bandit_party_1","A2VX8B1CJXRN2","either","8","4333","","","32","","","","","","","","","","","","","","","","","","","","","","","","","","","","","","","","","","","","",""
"","text-replacement","46","254380","0.0-27.0","37236138","wem/bandit_party_1","A2VX8B1CJXRN2","either","8","5275","","","32","","","","","","","","","","","","","","","","","","","","","","","","","","","","","","","","","","","","",""
"","text-replacement","47","258620","0.0-28.0","37236138","wem/bandit_party_1","A2VX8B1CJXRN2","either","8","4231","","","32","","","","","","","","","","","","","","","","","","","","","","","","","","","","","","","","","","","","",""
"","text-replacement","48","263733","0.0-29.0","37236138","wem/bandit_party_1","A2VX8B1CJXRN2","either","8","5088","","","32","","","","","","","","","","","","","","","","","","","","","","","","","","","","","","","","","","","","",""
"","text-replacement","49","266729","0.0-30.0","37236138","wem/bandit_party_1","A2VX8B1CJXRN2","either","8","2985","","","32","","","","","","","","","","","","","","","","","","","","","","","","","","","","","","","","","","","","",""
"","text-replacement","50","275762","0.0-31.0","37236138","wem/bandit_party_1","A2VX8B1CJXRN2","either","8","9022","","","32","","","","","","","","","","","","","","","","","","","","","","","","","","","","","","","","","","","","",""
"","bandit","51","278170","0.0-32.0-0.0","37236138","wem/bandit_party_1","A2VX8B1CJXRN2","either","8","848","","","","","","","0","0","1","0.2","","0.5","0.5","0.5","0.5","","","","","0.8","0.2","0.6","0.2","","","","","","","","","","74","J","1","","true","0","full_practice",""
"","bandit","52","281279","0.0-32.0-1.0","37236138","wem/bandit_party_1","A2VX8B1CJXRN2","either","8","1548","","","","","","","0","1","0","","0.2","0.5","0.5","0.5","0.5","0.8","0.2","0.6","0.2","","","","","","","","","","","","","","74","J","1","","true","0","full_practice",""
"","bandit","53","284158","0.0-32.0-2.0","37236138","wem/bandit_party_1","A2VX8B1CJXRN2","either","8","1328","","","","","","","0","0","1","0.2","","0.5","0.5","0.5","0.5","","","","","0.8","0.2","0.6","0.2","","","","","","","","","","74","J","1","","true","0","full_practice",""
"","bandit","54","285895","0.0-32.0-3.0","37236138","wem/bandit_party_1","A2VX8B1CJXRN2","either","8","186","","","","","","","1","0","0","0.6","","0.5","0.5","0.5","0.5","","","","","0.8","0.2","0.6","0.2","","","","","","","","","","75","K","2","","true","0","full_practice",""
"","bandit","55","288973","0.0-32.0-4.0","37236138","wem/bandit_party_1","A2VX8B1CJXRN2","either","8","1531","","","","","","","0","1","0","","0.6","0.5","0.5","0.5","0.5","0.8","0.2","0.6","0.2","","","","","","","","","","","","","","75","K","2","","true","0","full_practice",""
"","bandit","56","292026","0.0-32.0-5.0","37236138","wem/bandit_party_1","A2VX8B1CJXRN2","either","8","1513","","","","","","","0","1","0","","0.6","0.5","0.5","0.5","0.5","0.8","0.2","0.6","0.2","","","","","","","","","","","","","","75","K","2","","true","0","full_practice",""
"","bandit","57","294914","0.0-32.0-6.0","37236138","wem/bandit_party_1","A2VX8B1CJXRN2","either","8","1333","","","","","","","0","1","0","","0.6","0.5","0.5","0.5","0.5","0.8","0.2","0.6","0.2","","","","","","","","","","","","","","75","K","2","","true","0","full_practice",""
"","bandit","58","297291","0.0-32.0-7.0","37236138","wem/bandit_party_1","A2VX8B1CJXRN2","either","8","815","","","","","","","0","0","1","0.6","","0.5","0.5","0.5","0.5","","","","","0.8","0.2","0.6","0.2","","","","","","","","","","75","K","2","","true","0","full_practice",""
"","bandit","59","300085","0.0-32.0-8.0","37236138","wem/bandit_party_1","A2VX8B1CJXRN2","either","8","1243","","","","","","","0","1","0","","0.6","0.5","0.5","0.5","0.5","0.8","0.2","0.6","0.2","","","","","","","","","","","","","","75","K","2","","true","0","full_practice",""
"","bandit","60","302460","0.0-32.0-9.0","37236138","wem/bandit_party_1","A2VX8B1CJXRN2","either","8","812","","","","","","","0","0","1","0.2","","0.5","0.5","0.5","0.5","","","","","0.8","0.2","0.6","0.2","","","","","","","","","","76","L","3","","true","0","full_practice",""
"","bandit","61","304263","0.0-32.0-10.0","37236138","wem/bandit_party_1","A2VX8B1CJXRN2","either","8","237","","","","","","","0","0","1","0.2","","0.5","0.5","0.5","0.5","","","","","0.8","0.2","0.6","0.2","","","","","","","","","","76","L","3","","true","0","full_practice",""
"","bandit","62","307407","0.0-32.0-11.0","37236138","wem/bandit_party_1","A2VX8B1CJXRN2","either","8","1582","","","","","","","0","0","1","","0.8","0.5","0.5","0.5","0.5","0.8","0.2","0.6","0.2","","","","","","","","","","","","","","72","H","0","img/none_selected.jpg","true","0","full_practice",""
"","bandit","63","309750","0.0-32.0-12.0","37236138","wem/bandit_party_1","A2VX8B1CJXRN2","either","8","791","","","","","","","0","1","0","","0.8","0.5","0.5","0.5","0.5","0.8","0.2","0.6","0.2","","","","","","","","","","","","","","72","H","0","img/none_selected.jpg","true","0","full_practice",""
"","bandit","64","311523","0.0-32.0-13.0","37236138","wem/bandit_party_1","A2VX8B1CJXRN2","either","8","217","","","","","","","0","1","0","","0.6","0.5","0.5","0.5","0.5","0.8","0.2","0.6","0.2","","","","","","","","","","","","","","75","K","2","","true","0","full_practice",""
"","bandit","65","313510","0.0-32.0-14.0","37236138","wem/bandit_party_1","A2VX8B1CJXRN2","either","8","425","","","","","","","0","0","1","","0.6","0.5","0.5","0.5","0.5","0.8","0.2","0.6","0.2","","","","","","","","","","","","","","75","K","2","","true","0","full_practice",""
"","bandit","66","315405","0.0-32.0-15.0","37236138","wem/bandit_party_1","A2VX8B1CJXRN2","either","8","344","","","","","","","1","0","0","0.6","","0.5","0.5","0.5","0.5","","","","","0.8","0.2","0.6","0.2","","","","","","","","","","75","K","2","","true","0","full_practice",""
"","bandit","67","317280","0.0-32.0-16.0","37236138","wem/bandit_party_1","A2VX8B1CJXRN2","either","8","320","","","","","","","1","0","0","0.6","","0.5","0.5","0.5","0.5","","","","","0.8","0.2","0.6","0.2","","","","","","","","","","75","K","2","","true","0","full_practice",""
"","bandit","68","319116","0.0-32.0-17.0","37236138","wem/bandit_party_1","A2VX8B1CJXRN2","either","8","287","","","","","","","1","0","0","0.6","","0.5","0.5","0.5","0.5","","","","","0.8","0.2","0.6","0.2","","","","","","","","","","75","K","2","","true","0","full_practice",""
"","bandit","69","320849","0.0-32.0-18.0","37236138","wem/bandit_party_1","A2VX8B1CJXRN2","either","8","170","","","","","","","0","0","1","0.6","","0.5","0.5","0.5","0.5","","","","","0.8","0.2","0.6","0.2","","","","","","","","","","75","K","2","","true","0","full_practice",""
"","bandit","70","322814","0.0-32.0-19.0","37236138","wem/bandit_party_1","A2VX8B1CJXRN2","either","8","413","","","","","","","1","0","0","0.6","","0.5","0.5","0.5","0.5","","","","","0.8","0.2","0.6","0.2","","","","","","","","","","75","K","2","","true","0","full_practice",""
"","text","71","327925","0.0-33.0","37236138","wem/bandit_party_1","A2VX8B1CJXRN2","either","8","5087","","","32","","","","","","","","","","","","","","","","","","","","","","","","","","","","","","","","","","","","",""
"","text-replacement","72","347798","0.0-34.0","37236138","wem/bandit_party_1","A2VX8B1CJXRN2","either","8","18849","","","32","","","","","","","","","","","","","","","","","","","","","","","","","","","","","","","","","","","","",""
"","text-replacement","73","359025","0.0-35.0","37236138","wem/bandit_party_1","A2VX8B1CJXRN2","either","8","11193","","","32","","","","","","","","","","","","","","","","","","","","","","","","","","","","","","","","","","","","",""
"","text-replacement","74","362895","0.0-36.0","37236138","wem/bandit_party_1","A2VX8B1CJXRN2","either","8","3859","","","32","","","","","","","","","","","","","","","","","","","","","","","","","","","","","","","","","","","","",""
"","text-replacement","75","368374","0.0-37.0","37236138","wem/bandit_party_1","A2VX8B1CJXRN2","either","8","5450","","","32","","","","","","","","","","","","","","","","","","","","","","","","","","","","","","","","","","","","",""
"","text-replacement","76","372867","0.0-38.0","37236138","wem/bandit_party_1","A2VX8B1CJXRN2","either","8","4473","","","32","","","","","","","","","","","","","","","","","","","","","","","","","","","","","","","","","","","","",""
"","survey-multi-choice-replacement","77","378953","0.0-39.0-0.0","37236138","wem/bandit_party_1","A2VX8B1CJXRN2","either","8","6034","","","","","","","","","","","","","","","","","","","","","","","","Money will be added to the pool for <span style='color:blue;'>DEMOCRATS</span>","","","","","","","attn_check","","","","","","","","","0"
"","survey-multi-choice-replacement","78","395558","0.0-40.0-0.0","37236138","wem/bandit_party_1","A2VX8B1CJXRN2","either","8","15555","","","","","","","","","","","","","","","","","","","","","","","","Equal amounts of money will be added to the pool for <span style='color:blue;'>DEMOCRATS</span> and subtracted from the pool for <span style='color:red;'>REPUBLICANS</span>","","","","","","","attn_check","","","","","","","","","2"
"","survey-multi-choice-replacement","79","401246","0.0-41.0-0.0","37236138","wem/bandit_party_1","A2VX8B1CJXRN2","either","8","4658","","","","","","","","","","","","","","","","","","","","","","","","No money will be added to either pool","","","","","","","attn_check","","","","","","","","","3"
"","bandit","80","406300","0.0-42.0-0.0","37236138","wem/bandit_party_1","A2VX8B1CJXRN2","either","8","2454","","","","","","","0","0","1","","0.2637293772","0.2","0.6","0.4","0.8","0.2637293772","0.2928194041","0.3540548627","0.1351790469","","","","","","","","","","","","","","72","H","0","img/none_selected.jpg","","1","main_expt",""
"","bandit","81","408508","0.0-43.0-0.0","37236138","wem/bandit_party_1","A2VX8B1CJXRN2","either","8","619","","","","","","","0","0","1","","0.2760013096","0.2","0.6","0.4","0.8","0.2760013096","0.3040419902","0.3812516843","0.125602744","","","","","","","","","","","","","","72","H","0","img/none_selected.jpg","","2","main_expt",""
"","bandit","82","410721","0.0-44.0-0.0","37236138","wem/bandit_party_1","A2VX8B1CJXRN2","either","8","655","","","","","","","0","0","1","","0.2875251023","0.2","0.6","0.4","0.8","0.3240499928","0.2875251023","0.3901316494","0.09574082279","","","","","","","","","","","","","","74","J","1","","","3","main_expt",""
"","bandit","83","413050","0.0-45.0-0.0","37236138","wem/bandit_party_1","A2VX8B1CJXRN2","either","8","748","","","","","","","0","0","1","0.2965567903","","0.2","0.6","0.4","0.8","","","","","0.3510822359","0.2965567903","0.3945399471","0.0913382225","","","","","","","","","","74","J","1","","","4","main_expt",""
"","bandit","84","414695","0.0-46.0-0.0","37236138","wem/bandit_party_1","A2VX8B1CJXRN2","either","8","93","","","","","","","1","0","0","0.3997977613","","0.2","0.6","0.4","0.8","","","","","0.3522827721","0.2681113314","0.3997977613","0.106177601","","","","","","","","","","75","K","2","","","5","main_expt",""
"","bandit","85","418556","0.0-47.0-0.0","37236138","wem/bandit_party_1","A2VX8B1CJXRN2","either","8","2284","","","","","","","0","0","1","","0.390783501","0.2","0.6","0.4","0.8","0.382674005","0.2330443498","0.390783501","0.08998955495","","","","","","","","","","","","","","75","K","2","","","6","main_expt",""
"","bandit","86","420787","0.0-48.0-0.0","37236138","wem/bandit_party_1","A2VX8B1CJXRN2","either","8","643","","","","","","","1","0","0","0.3305693427","","0.2","0.6","0.4","0.8","","","","","0.3998463606","0.1630509172","0.3305693427","0.1077526668","","","","","","","","","","75","K","2","","","7","main_expt",""
"","bandit","87","422964","0.0-49.0-0.0","37236138","wem/bandit_party_1","A2VX8B1CJXRN2","either","8","620","","","","","","","0","1","0","","0.3056545716","0.2","0.6","0.4","0.8","0.3832029687","0.2002468685","0.3056545716","0.1243697388","","","","","","","","","","","","","","75","K","2","","","8","main_expt",""
"","bandit","88","424996","0.0-50.0-0.0","37236138","wem/bandit_party_1","A2VX8B1CJXRN2","either","8","490","","","","","","","0","1","0","","0.3278889804","0.2","0.6","0.4","0.8","0.3796681134","0.1835034381","0.3278889804","0.1698108096","","","","","","","","","","","","","","75","K","2","","","9","main_expt",""
"","bandit","89","427003","0.0-51.0-0.0","37236138","wem/bandit_party_1","A2VX8B1CJXRN2","either","8","453","","","","","","","0","0","1","","0.3137855556","0.2","0.6","0.4","0.8","0.3614311416","0.1939723001","0.3137855556","0.221757114","","","","","","","","","","","","","","75","K","2","","","10","main_expt",""
"","bandit","90","428601","0.0-52.0-0.0","37236138","wem/bandit_party_1","A2VX8B1CJXRN2","either","8","25","","","","","","","0","0","1","","0.3253079181","0.2","0.6","0.4","0.8","0.3938737051","0.1949806013","0.3253079181","0.1961062924","","","","","","","","","","","","","","75","K","2","","","11","main_expt",""
"","bandit","91","432227","0.0-53.0-0.0","37236138","wem/bandit_party_1","A2VX8B1CJXRN2","either","8","2075","","","","","","","0","0","1","","0.3298150516","0.2","0.6","0.4","0.8","0.3810544723","0.2587943474","0.3298150516","0.1907056259","","","","","","","","","","","","","","75","K","2","","","12","main_expt",""
"","bandit","92","434685","0.0-54.0-0.0","37236138","wem/bandit_party_1","A2VX8B1CJXRN2","either","8","897","","","","","","","0","0","1","0.3673307406","","0.2","0.6","0.4","0.8","","","","","0.3707046684","0.3085985727","0.3673307406","0.2162865666","","","","","","","","","","75","K","2","","","13","main_expt",""
"","bandit","93","436271","0.0-55.0-0.0","37236138","wem/bandit_party_1","A2VX8B1CJXRN2","either","8","2","","","","","","","0","0","1","0.2399362825","","0.2","0.6","0.4","0.8","","","","","0.3486531997","0.2464992766","0.3679224674","0.2399362825","","","","","","","","","","76","L","3","","","14","main_expt",""
"","bandit","94","439115","0.0-56.0-0.0","37236138","wem/bandit_party_1","A2VX8B1CJXRN2","either","8","1256","","","","","","","0","0","1","0.1986859052","","0.2","0.6","0.4","0.8","","","","","0.3263578384","0.2474611475","0.3062507314","0.1986859052","","","","","","","","","","76","L","3","","","15","main_expt",""
"","bandit","95","440765","0.0-57.0-0.0","37236138","wem/bandit_party_1","A2VX8B1CJXRN2","either","8","71","","","","","","","0","0","1","0.1865641621","","0.2","0.6","0.4","0.8","","","","","0.3514189979","0.2835538477","0.2892976033","0.1865641621","","","","","","","","","","76","L","3","","","16","main_expt",""
"","bandit","96","443738","0.0-58.0-0.0","37236138","wem/bandit_party_1","A2VX8B1CJXRN2","either","8","1418","","","","","","","0","0","1","0.3256112075","","0.2","0.6","0.4","0.8","","","","","0.3532592314","0.3256112075","0.2861796528","0.2035525071","","","","","","","","","","74","J","1","","","17","main_expt",""
"","bandit","97","446409","0.0-59.0-0.0","37236138","wem/bandit_party_1","A2VX8B1CJXRN2","either","8","1110","","","","","","","0","1","0","","0.3802227677","0.2","0.6","0.4","0.8","0.3858608091","0.3802227677","0.2958570682","0.2039336531","","","","","","","","","","","","","","74","J","1","","","18","main_expt",""
"","bandit","98","449035","0.0-60.0-0.0","37236138","wem/bandit_party_1","A2VX8B1CJXRN2","either","8","1085","","","","","","","0","0","1","0.360566968","","0.2","0.6","0.4","0.8","","","","","0.3837638756","0.360566968","0.3353028819","0.1598579642","","","","","","","","","","74","J","1","","","19","main_expt",""
"","bandit","99","451906","0.0-61.0-0.0","37236138","wem/bandit_party_1","A2VX8B1CJXRN2","either","8","1294","","","","","","","0","1","0","","0.3696799013","0.2","0.6","0.4","0.8","0.2872100501","0.3696799013","0.3139704528","0.1437622327","","","","","","","","","","","","","","74","J","1","","","20","main_expt",""
"","bandit","100","454096","0.0-62.0-0.0","37236138","wem/bandit_party_1","A2VX8B1CJXRN2","either","8","596","","","","","","","0","0","1","","0.4006907501","0.2","0.6","0.4","0.8","0.2975414498","0.4006907501","0.2524707143","0.07974703335","","","","","","","","","","","","","","74","J","1","","","21","main_expt",""
"","bandit","101","456618","0.0-63.0-0.0","37236138","wem/bandit_party_1","A2VX8B1CJXRN2","either","8","947","","","","","","","0","0","1","","0.4081217326","0.2","0.6","0.4","0.8","0.2741965999","0.4081217326","0.248326021","0.1361132429","","","","","","","","","","","","","","74","J","1","","","22","main_expt",""
"","bandit","102","459240","0.0-64.0-0.0","37236138","wem/bandit_party_1","A2VX8B1CJXRN2","either","8","1044","","","","","","","0","0","1","","0.3740207531","0.2","0.6","0.4","0.8","0.2379064449","0.3740207531","0.2937153481","0.1705973249","","","","","","","","","","","","","","74","J","1","","","23","main_expt",""
"","bandit","103","462453","0.0-65.0-0.0","37236138","wem/bandit_party_1","A2VX8B1CJXRN2","either","8","1662","","","","","","","0","0","1","","0.2078598572","0.2","0.6","0.4","0.8","0.2078598572","0.3913756451","0.2625315469","0.1392759225","","","","","","","","","","","","","","72","H","0","img/none_selected.jpg","","24","main_expt",""
"","bandit","104","464545","0.0-66.0-0.0","37236138","wem/bandit_party_1","A2VX8B1CJXRN2","either","8","528","","","","","","","0","0","1","","0.2764850733","0.2","0.6","0.4","0.8","0.2764850733","0.4100905738","0.2405651368","0.1800538527","","","","","","","","","","","","","","72","H","0","img/none_selected.jpg","","25","main_expt",""
"","bandit","105","466941","0.0-67.0-0.0","37236138","wem/bandit_party_1","A2VX8B1CJXRN2","either","8","841","","","","","","","0","0","1","","0.3080191348","0.2","0.6","0.4","0.8","0.3080191348","0.3600668969","0.2503350336","0.2146400533","","","","","","","","","","","","","","72","H","0","img/none_selected.jpg","","26","main_expt",""
"","bandit","106","469181","0.0-68.0-0.0","37236138","wem/bandit_party_1","A2VX8B1CJXRN2","either","8","690","","","","","","","0","1","0","","0.354091838","0.2","0.6","0.4","0.8","0.3606197488","0.3703096079","0.354091838","0.1948367851","","","","","","","","","","","","","","75","K","2","","","27","main_expt",""
"","bandit","107","471246","0.0-69.0-0.0","37236138","wem/bandit_party_1","A2VX8B1CJXRN2","either","8","502","","","","","","","0","0","1","0.3419366675","","0.2","0.6","0.4","0.8","","","","","0.3696097963","0.3527269899","0.3419366675","0.2282666016","","","","","","","","","","75","K","2","","","28","main_expt",""
"","bandit","108","473606","0.0-70.0-0.0","37236138","wem/bandit_party_1","A2VX8B1CJXRN2","either","8","768","","","","","","","0","0","1","0.361896517","","0.2","0.6","0.4","0.8","","","","","0.3434444954","0.2854860911","0.361896517","0.1842618798","","","","","","","","","","75","K","2","","","29","main_expt",""
"","bandit","109","476250","0.0-71.0-0.0","37236138","wem/bandit_party_1","A2VX8B1CJXRN2","either","8","1081","","","","","","","0","0","1","","0.3701160785","0.2","0.6","0.4","0.8","0.3528183973","0.2971434158","0.3701160785","0.1930267653","","","","","","","","","","","","","","75","K","2","","","30","main_expt",""
"","bandit","110","478647","0.0-72.0-0.0","37236138","wem/bandit_party_1","A2VX8B1CJXRN2","either","8","831","","","","","","","1","0","0","0.3602312343","","0.2","0.6","0.4","0.8","","","","","0.3436926249","0.3192935598","0.3602312343","0.2279264959","","","","","","","","","","75","K","2","","","31","main_expt",""
"","bandit","111","480930","0.0-73.0-0.0","37236138","wem/bandit_party_1","A2VX8B1CJXRN2","either","8","700","","","","","","","0","0","1","0.3550043818","","0.2","0.6","0.4","0.8","","","","","0.3392376576","0.2910845839","0.3550043818","0.1922668126","","","","","","","","","","75","K","2","","","32","main_expt",""
"","bandit","112","482899","0.0-74.0-0.0","37236138","wem/bandit_party_1","A2VX8B1CJXRN2","either","8","421","","","","","","","0","0","1","","0.3927862597","0.2","0.6","0.4","0.8","0.2524106513","0.2956883229","0.3927862597","0.1503247695","","","","","","","","","","","","","","75","K","2","","","33","main_expt",""
"","bandit","113","484931","0.0-75.0-0.0","37236138","wem/bandit_party_1","A2VX8B1CJXRN2","either","8","499","","","","","","","0","0","1","0.4185963197","","0.2","0.6","0.4","0.8","","","","","0.2378308988","0.2918182698","0.4185963197","0.1875072744","","","","","","","","","","75","K","2","","","34","main_expt",""
"","bandit","114","487034","0.0-76.0-0.0","37236138","wem/bandit_party_1","A2VX8B1CJXRN2","either","8","550","","","","","","","0","0","1","0.441983755","","0.2","0.6","0.4","0.8","","","","","0.2683654211","0.3063909307","0.441983755","0.2135507624","","","","","","","","","","75","K","2","","","35","main_expt",""
"","bandit","115","489208","0.0-77.0-0.0","37236138","wem/bandit_party_1","A2VX8B1CJXRN2","either","8","626","","","","","","","0","0","1","","0.2820805085","0.2","0.6","0.4","0.8","0.2645223933","0.2820805085","0.4352827683","0.2042402853","","","","","","","","","","","","","","74","J","1","","","36","main_expt",""
"","bandit","116","491212","0.0-78.0-0.0","37236138","wem/bandit_party_1","A2VX8B1CJXRN2","either","8","454","","","","","","","0","0","1","0.2610370824","","0.2","0.6","0.4","0.8","","","","","0.2360561858","0.2610370824","0.450520142","0.2024605481","","","","","","","","","","74","J","1","","","37","main_expt",""
"","bandit","117","493286","0.0-79.0-0.0","37236138","wem/bandit_party_1","A2VX8B1CJXRN2","either","8","522","","","","","","","0","0","1","","0.1896233007","0.2","0.6","0.4","0.8","0.2001865083","0.1896233007","0.4681224698","0.1677713785","","","","","","","","","","","","","","74","J","1","","","38","main_expt",""
"","bandit","118","495377","0.0-80.0-0.0","37236138","wem/bandit_party_1","A2VX8B1CJXRN2","either","8","554","","","","","","","0","0","1","","0.168851025","0.2","0.6","0.4","0.8","0.1687915361","0.168851025","0.4711022053","0.221779122","","","","","","","","","","","","","","74","J","1","","","39","main_expt",""
"","bandit","119","497971","0.0-81.0-0.0","37236138","wem/bandit_party_1","A2VX8B1CJXRN2","either","8","1049","","","","","","","0","0","1","0.2722397218","","0.2","0.6","0.4","0.8","","","","","0.1503151413","0.1615787635","0.4559447699","0.2722397218","","","","","","","","","","76","L","3","","","40","main_expt",""
"","bandit","120","499977","0.0-82.0-0.0","37236138","wem/bandit_party_1","A2VX8B1CJXRN2","either","8","434","","","","","","","0","0","1","0.3298230943","","0.2","0.6","0.4","0.8","","","","","0.08168262283","0.1472326003","0.4412687596","0.3298230943","","","","","","","","","","76","L","3","","","41","main_expt",""
"","bandit","121","501997","0.0-83.0-0.0","37236138","wem/bandit_party_1","A2VX8B1CJXRN2","either","8","460","","","","","","","0","0","1","0.3104885444","","0.2","0.6","0.4","0.8","","","","","0.07668629145","0.1533480506","0.4457751761","0.3104885444","","","","","","","","","","76","L","3","","","42","main_expt",""
"","bandit","122","503969","0.0-84.0-0.0","37236138","wem/bandit_party_1","A2VX8B1CJXRN2","either","8","421","","","","","","","0","0","1","0.3005355489","","0.2","0.6","0.4","0.8","","","","","0.07394587158","0.1414351437","0.4298378352","0.3005355489","","","","","","","","","","76","L","3","","","43","main_expt",""
"","bandit","123","505981","0.0-85.0-0.0","37236138","wem/bandit_party_1","A2VX8B1CJXRN2","either","8","449","","","","","","","0","0","1","0.2456242138","","0.2","0.6","0.4","0.8","","","","","0.1192337685","0.1067646429","0.4416915379","0.2456242138","","","","","","","","","","76","L","3","","","44","main_expt",""
"","bandit","124","507944","0.0-86.0-0.0","37236138","wem/bandit_party_1","A2VX8B1CJXRN2","either","8","411","","","","","","","0","0","1","0.2839901561","","0.2","0.6","0.4","0.8","","","","","0.1285724119","0.1250796286","0.3915522423","0.2839901561","","","","","","","","","","76","L","3","","","45","main_expt",""
"","bandit","125","509604","0.0-87.0-0.0","37236138","wem/bandit_party_1","A2VX8B1CJXRN2","either","8","101","","","","","","","0","0","1","0.2353621531","","0.2","0.6","0.4","0.8","","","","","0.1112684106","0.1927264636","0.4318427431","0.2353621531","","","","","","","","","","76","L","3","","","46","main_expt",""
"","bandit","126","511694","0.0-88.0-0.0","37236138","wem/bandit_party_1","A2VX8B1CJXRN2","either","8","534","","","","","","","0","0","1","0.2405257196","","0.2","0.6","0.4","0.8","","","","","0.1207340475","0.1804488412","0.4395998441","0.2405257196","","","","","","","","","","76","L","3","","","47","main_expt",""
"","bandit","127","514327","0.0-89.0-0.0","37236138","wem/bandit_party_1","A2VX8B1CJXRN2","either","8","1082","","","","","","","0","0","1","0.1182533935","","0.2","0.6","0.4","0.8","","","","","0.1182533935","0.168268176","0.4630443269","0.2629408555","","","","","","","","","","72","H","0","img/none_selected.jpg","","48","main_expt",""
"","bandit","128","517099","0.0-90.0-0.0","37236138","wem/bandit_party_1","A2VX8B1CJXRN2","either","8","625","","","","","","","0","0","1","","0.1460801474","0.2","0.6","0.4","0.8","0.1460801474","0.1466838001","0.4794982466","0.2902453213","","","","","","","","","","","","","","72","H","0","img/none_selected.jpg","","49","main_expt",""
"","bandit","129","519399","0.0-91.0-0.0","37236138","wem/bandit_party_1","A2VX8B1CJXRN2","either","8","286","","","","","","","0","1","0","","0.1765155983","0.2","0.6","0.4","0.8","0.1765155983","0.1336340117","0.4562783041","0.3033715012","","","","","","","","","","","","","","72","H","0","img/none_selected.jpg","","50","main_expt",""
"","bandit","130","522278","0.0-92.0-0.0","37236138","wem/bandit_party_1","A2VX8B1CJXRN2","either","8","931","","","","","","","0","0","1","","0.1614266163","0.2","0.6","0.4","0.8","0.1614266163","0.1067821754","0.4515646323","0.3536831403","","","","","","","","","","","","","","72","H","0","img/none_selected.jpg","","51","main_expt",""
"","bandit","131","524429","0.0-93.0-0.0","37236138","wem/bandit_party_1","A2VX8B1CJXRN2","either","8","601","","","","","","","0","0","1","","0.1938643747","0.2","0.6","0.4","0.8","0.1938643747","0.07294577227","0.4344137529","0.3058792917","","","","","","","","","","","","","","72","H","0","img/none_selected.jpg","","52","main_expt",""
"","bandit","132","527006","0.0-94.0-0.0","37236138","wem/bandit_party_1","A2VX8B1CJXRN2","either","8","1012","","","","","","","0","0","1","","0.1721886996","0.2","0.6","0.4","0.8","0.1721886996","0.07676454597","0.4421766306","0.3466820038","","","","","","","","","","","","","","72","H","0","img/none_selected.jpg","","53","main_expt",""
"","bandit","133","529241","0.0-95.0-0.0","37236138","wem/bandit_party_1","A2VX8B1CJXRN2","either","8","704","","","","","","","0","0","1","0.1542880765","","0.2","0.6","0.4","0.8","","","","","0.1542880765","0.07707135067","0.4591875032","0.3159173384","","","","","","","","","","72","H","0","img/none_selected.jpg","","54","main_expt",""
"","bandit","134","531632","0.0-96.0-0.0","37236138","wem/bandit_party_1","A2VX8B1CJXRN2","either","8","830","","","","","","","1","0","0","0.2155598061","","0.2","0.6","0.4","0.8","","","","","0.2155598061","0.08227932488","0.4455250987","0.3205246683","","","","","","","","","","72","H","0","img/none_selected.jpg","","55","main_expt",""
"","bandit","135","533852","0.0-97.0-0.0","37236138","wem/bandit_party_1","A2VX8B1CJXRN2","either","8","633","","","","","","","0","0","1","","0.199350645","0.2","0.6","0.4","0.8","0.199350645","0.09013031375","0.4200701886","0.3067659888","","","","","","","","","","","","","","72","H","0","img/none_selected.jpg","","56","main_expt",""
"","bandit","136","535892","0.0-98.0-0.0","37236138","wem/bandit_party_1","A2VX8B1CJXRN2","either","8","470","","","","","","","0","0","1","","0.1991981904","0.2","0.6","0.4","0.8","0.1991981904","0.106866739","0.3635567377","0.3786279545","","","","","","","","","","","","","","72","H","0","img/none_selected.jpg","","57","main_expt",""
"","bandit","137","538050","0.0-99.0-0.0","37236138","wem/bandit_party_1","A2VX8B1CJXRN2","either","8","559","","","","","","","0","0","1","0.1307276253","","0.2","0.6","0.4","0.8","","","","","0.1307276253","0.0915584437","0.3647217687","0.3796022377","","","","","","","","","","72","H","0","img/none_selected.jpg","","58","main_expt",""
"","bandit","138","540134","0.0-100.0-0.0","37236138","wem/bandit_party_1","A2VX8B1CJXRN2","either","8","502","","","","","","","0","0","1","","0.1540949786","0.2","0.6","0.4","0.8","0.1540949786","0.1036540812","0.3975499765","0.3570845549","","","","","","","","","","","","","","72","H","0","img/none_selected.jpg","","59","main_expt",""
"","bandit","139","542169","0.0-101.0-0.0","37236138","wem/bandit_party_1","A2VX8B1CJXRN2","either","8","437","","","","","","","0","0","1","","0.1187181044","0.2","0.6","0.4","0.8","0.1187181044","0.07948280662","0.376383165","0.398525789","","","","","","","","","","","","","","72","H","0","img/none_selected.jpg","","60","main_expt",""
"","bandit","140","544280","0.0-102.0-0.0","37236138","wem/bandit_party_1","A2VX8B1CJXRN2","either","8","510","","","","","","","0","0","1","","0.1734870435","0.2","0.6","0.4","0.8","0.1734870435","0.0685056185","0.3384437455","0.380986593","","","","","","","","","","","","","","72","H","0","img/none_selected.jpg","","61","main_expt",""
"","bandit","141","546469","0.0-103.0-0.0","37236138","wem/bandit_party_1","A2VX8B1CJXRN2","either","8","638","","","","","","","0","0","1","","0.2056999461","0.2","0.6","0.4","0.8","0.2056999461","0.04196312691","0.3086389155","0.3928002855","","","","","","","","","","","","","","72","H","0","img/none_selected.jpg","","62","main_expt",""
"","bandit","142","548360","0.0-104.0-0.0","37236138","wem/bandit_party_1","A2VX8B1CJXRN2","either","8","325","","","","","","","0","0","1","0.06524357318","","0.2","0.6","0.4","0.8","","","","","0.2421495796","0.06524357318","0.3098998428","0.4097838671","","","","","","","","","","74","J","1","","","63","main_expt",""
"","bandit","143","550058","0.0-105.0-0.0","37236138","wem/bandit_party_1","A2VX8B1CJXRN2","either","8","131","","","","","","","0","0","1","0.04599317762","","0.2","0.6","0.4","0.8","","","","","0.2678986655","0.04599317762","0.2859800092","0.3942475769","","","","","","","","","","74","J","1","","","64","main_expt",""
"","bandit","144","551616","0.0-106.0-0.0","37236138","wem/bandit_party_1","A2VX8B1CJXRN2","either","8","9","","","","","","","0","0","1","0.04738713632","","0.2","0.6","0.4","0.8","","","","","0.2780805564","0.04738713632","0.2780623804","0.3756823908","","","","","","","","","","74","J","1","","","65","main_expt",""
"","bandit","145","553320","0.0-107.0-0.0","37236138","wem/bandit_party_1","A2VX8B1CJXRN2","either","8","131","","","","","","","0","0","1","","0.02873144913","0.2","0.6","0.4","0.8","0.2923516192","0.02873144913","0.2740889186","0.3780323226","","","","","","","","","","","","","","74","J","1","","","66","main_expt",""
"","bandit","146","554871","0.0-108.0-0.0","37236138","wem/bandit_party_1","A2VX8B1CJXRN2","either","8","2","","","","","","","0","0","1","0.0355516853","","0.2","0.6","0.4","0.8","","","","","0.3481747094","0.0355516853","0.3122756929","0.382091886","","","","","","","","","","74","J","1","","","67","main_expt",""
"","bandit","147","557165","0.0-109.0-0.0","37236138","wem/bandit_party_1","A2VX8B1CJXRN2","either","8","733","","","","","","","0","0","1","","0.04483006882","0.2","0.6","0.4","0.8","0.3540590834","0.04483006882","0.3004294993","0.4080562953","","","","","","","","","","","","","","74","J","1","","","68","main_expt",""
"","bandit","148","558776","0.0-110.0-0.0","37236138","wem/bandit_party_1","A2VX8B1CJXRN2","either","8","34","","","","","","","0","0","1","","0.04300650393","0.2","0.6","0.4","0.8","0.3348318208","0.04300650393","0.3312842332","0.419826639","","","","","","","","","","","","","","74","J","1","","","69","main_expt",""
"","bandit","149","560362","0.0-111.0-0.0","37236138","wem/bandit_party_1","A2VX8B1CJXRN2","either","8","48","","","","","","","0","0","1","0.03960880855","","0.2","0.6","0.4","0.8","","","","","0.3844983113","0.03960880855","0.2362018798","0.3889643965","","","","","","","","","","74","J","1","","","70","main_expt",""
"","bandit","150","562480","0.0-112.0-0.0","37236138","wem/bandit_party_1","A2VX8B1CJXRN2","either","8","567","","","","","","","0","0","1","","0.02401392238","0.2","0.6","0.4","0.8","0.3753843975","0.02401392238","0.1838323472","0.3492343966","","","","","","","","","","","","","","74","J","1","","","71","main_expt",""
"","bandit","151","564317","0.0-113.0-0.0","37236138","wem/bandit_party_1","A2VX8B1CJXRN2","either","8","290","","","","","","","0","0","1","","0.008756159955","0.2","0.6","0.4","0.8","0.3861429343","0.008756159955","0.1749810972","0.3502155883","","","","","","","","","","","","","","74","J","1","","","72","main_expt",""
"","bandit","152","566434","0.0-114.0-0.0","37236138","wem/bandit_party_1","A2VX8B1CJXRN2","either","8","568","","","","","","","0","0","1","","0.006257651783","0.2","0.6","0.4","0.8","0.3978436086","0.006257651783","0.1664097112","0.3568691787","","","","","","","","","","","","","","74","J","1","","","73","main_expt",""
"","bandit","153","569057","0.0-115.0-0.0","37236138","wem/bandit_party_1","A2VX8B1CJXRN2","either","8","1055","","","","","","","0","0","1","0.2001176207","","0.2","0.6","0.4","0.8","","","","","0.3847979518","0.004732084297","0.2001176207","0.3303653739","","","","","","","","","","75","K","2","","","74","main_expt",""
"","bandit","154","570856","0.0-116.0-0.0","37236138","wem/bandit_party_1","A2VX8B1CJXRN2","either","8","236","","","","","","","0","1","0","","0.1848717924","0.2","0.6","0.4","0.8","0.3974319157","0.006967558871","0.1848717924","0.3353283381","","","","","","","","","","","","","","75","K","2","","","75","main_expt",""
"","bandit","155","572771","0.0-117.0-0.0","37236138","wem/bandit_party_1","A2VX8B1CJXRN2","either","8","352","","","","","","","0","0","1","0.1510178238","","0.2","0.6","0.4","0.8","","","","","0.3987985884","0.004525860487","0.1510178238","0.3009524994","","","","","","","","","","75","K","2","","","76","main_expt",""
"","bandit","156","574917","0.0-118.0-0.0","37236138","wem/bandit_party_1","A2VX8B1CJXRN2","either","8","545","","","","","","","0","0","1","","0.2089633591","0.2","0.6","0.4","0.8","0.4127312768","0.007245535115","0.2089633591","0.3316028908","","","","","","","","","","","","","","75","K","2","","","77","main_expt",""
"","bandit","157","576923","0.0-119.0-0.0","37236138","wem/bandit_party_1","A2VX8B1CJXRN2","either","8","435","","","","","","","0","1","0","","0.2285147345","0.2","0.6","0.4","0.8","0.4257675477","0.00483057751","0.2285147345","0.3571024926","","","","","","","","","","","","","","75","K","2","","","78","main_expt",""
"","bandit","158","578935","0.0-120.0-0.0","37236138","wem/bandit_party_1","A2VX8B1CJXRN2","either","8","437","","","","","","","1","0","0","0.2246975601","","0.2","0.6","0.4","0.8","","","","","0.4331167668","0.005956317848","0.2246975601","0.3542776451","","","","","","","","","","75","K","2","","","79","main_expt",""
"","bandit","159","580998","0.0-121.0-0.0","37236138","wem/bandit_party_1","A2VX8B1CJXRN2","either","8","503","","","","","","","0","0","1","","0.1878766281","0.2","0.6","0.4","0.8","0.4294395537","0.0076590047","0.1878766281","0.3201174307","","","","","","","","","","","","","","75","K","2","","","80","main_expt",""
"","bandit","160","582923","0.0-122.0-0.0","37236138","wem/bandit_party_1","A2VX8B1CJXRN2","either","8","320","","","","","","","0","0","1","","0.2436254364","0.2","0.6","0.4","0.8","0.4234249918","0.009115568074","0.2436254364","0.3503003334","","","","","","","","","","","","","","75","K","2","","","81","main_expt",""
"","bandit","161","584793","0.0-123.0-0.0","37236138","wem/bandit_party_1","A2VX8B1CJXRN2","either","8","302","","","","","","","0","0","1","","0.2627531714","0.2","0.6","0.4","0.8","0.3956977209","0.01382977225","0.2627531714","0.3509066846","","","","","","","","","","","","","","75","K","2","","","82","main_expt",""
"","bandit","162","586475","0.0-124.0-0.0","37236138","wem/bandit_party_1","A2VX8B1CJXRN2","either","8","125","","","","","","","0","0","1","0.2672212524","","0.2","0.6","0.4","0.8","","","","","0.4248650233","0.01500629599","0.2672212524","0.3951868033","","","","","","","","","","75","K","2","","","83","main_expt",""
"","bandit","163","588103","0.0-125.0-0.0","37236138","wem/bandit_party_1","A2VX8B1CJXRN2","either","8","61","","","","","","","0","0","1","0.2817484998","","0.2","0.6","0.4","0.8","","","","","0.4196907627","0.02310127573","0.2817484998","0.4131477378","","","","","","","","","","75","K","2","","","84","main_expt",""
"","bandit","164","589660","0.0-126.0-0.0","37236138","wem/bandit_party_1","A2VX8B1CJXRN2","either","8","2","","","","","","","0","0","1","0.3074775227","","0.2","0.6","0.4","0.8","","","","","0.435633498","0.02639065846","0.3074775227","0.3889697292","","","","","","","","","","75","K","2","","","85","main_expt",""
"","bandit","165","591664","0.0-127.0-0.0","37236138","wem/bandit_party_1","A2VX8B1CJXRN2","either","8","451","","","","","","","1","0","0","0.2717847629","","0.2","0.6","0.4","0.8","","","","","0.4322222521","0.01746441632","0.2717847629","0.3885636443","","","","","","","","","","75","K","2","","","86","main_expt",""
"","bandit","166","593305","0.0-128.0-0.0","37236138","wem/bandit_party_1","A2VX8B1CJXRN2","either","8","63","","","","","","","0","0","1","0.2183858348","","0.2","0.6","0.4","0.8","","","","","0.4476119451","0.01256144444","0.2183858348","0.4028282504","","","","","","","","","","75","K","2","","","87","main_expt",""
"","bandit","167","595428","0.0-129.0-0.0","37236138","wem/bandit_party_1","A2VX8B1CJXRN2","either","8","572","","","","","","","0","0","1","","0.2054961256","0.2","0.6","0.4","0.8","0.4073123198","0.01178158386","0.2054961256","0.4306890759","","","","","","","","","","","","","","75","K","2","","","88","main_expt",""
"","bandit","168","597125","0.0-130.0-0.0","37236138","wem/bandit_party_1","A2VX8B1CJXRN2","either","8","141","","","","","","","0","0","1","","0.1452714398","0.2","0.6","0.4","0.8","0.3862301724","0.008722555822","0.1452714398","0.4103738654","","","","","","","","","","","","","","75","K","2","","","89","main_expt",""
"","bandit","169","599094","0.0-131.0-0.0","37236138","wem/bandit_party_1","A2VX8B1CJXRN2","either","8","411","","","","","","","0","0","1","","0.1077779513","0.2","0.6","0.4","0.8","0.3596745144","0.008232471735","0.1077779513","0.3980827974","","","","","","","","","","","","","","75","K","2","","","90","main_expt",""
"","bandit","170","601039","0.0-132.0-0.0","37236138","wem/bandit_party_1","A2VX8B1CJXRN2","either","8","382","","","","","","","0","0","1","0.1308407065","","0.2","0.6","0.4","0.8","","","","","0.3082854458","0.01249180717","0.1308407065","0.4040531024","","","","","","","","","","75","K","2","","","91","main_expt",""
"","bandit","171","602967","0.0-133.0-0.0","37236138","wem/bandit_party_1","A2VX8B1CJXRN2","either","8","345","","","","","","","0","0","1","","0.1652322036","0.2","0.6","0.4","0.8","0.312225492","0.01470986316","0.1652322036","0.3462944796","","","","","","","","","","","","","","75","K","2","","","92","main_expt",""
"","bandit","172","604790","0.0-134.0-0.0","37236138","wem/bandit_party_1","A2VX8B1CJXRN2","either","8","256","","","","","","","0","0","1","","0.1344678182","0.2","0.6","0.4","0.8","0.3671658277","0.02655281846","0.1344678182","0.3411451966","","","","","","","","","","","","","","75","K","2","","","93","main_expt",""
"","bandit","173","606592","0.0-135.0-0.0","37236138","wem/bandit_party_1","A2VX8B1CJXRN2","either","8","240","","","","","","","0","1","0","","0.1301314301","0.2","0.6","0.4","0.8","0.3401731108","0.02575246025","0.1301314301","0.3384154489","","","","","","","","","","","","","","75","K","2","","","94","main_expt",""
"","bandit","174","608465","0.0-136.0-0.0","37236138","wem/bandit_party_1","A2VX8B1CJXRN2","either","8","328","","","","","","","0","0","1","0.1746055711","","0.2","0.6","0.4","0.8","","","","","0.3413923724","0.02262355665","0.1746055711","0.3126988266","","","","","","","","","","75","K","2","","","95","main_expt",""
"","bandit","175","610286","0.0-137.0-0.0","37236138","wem/bandit_party_1","A2VX8B1CJXRN2","either","8","240","","","","","","","0","0","1","0.1994244555","","0.2","0.6","0.4","0.8","","","","","0.3570420485","0.02047181149","0.1994244555","0.3800019137","","","","","","","","","","75","K","2","","","96","main_expt",""
"","bandit","176","612005","0.0-138.0-0.0","37236138","wem/bandit_party_1","A2VX8B1CJXRN2","either","8","153","","","","","","","0","0","1","0.1834602947","","0.2","0.6","0.4","0.8","","","","","0.3435474977","0.0207754381","0.1834602947","0.3328121005","","","","","","","","","","75","K","2","","","97","main_expt",""
"","bandit","177","613769","0.0-139.0-0.0","37236138","wem/bandit_party_1","A2VX8B1CJXRN2","either","8","199","","","","","","","0","0","1","0.1719221531","","0.2","0.6","0.4","0.8","","","","","0.3614714926","0.02955834597","0.1719221531","0.332228596","","","","","","","","","","75","K","2","","","98","main_expt",""
"","bandit","178","615437","0.0-140.0-0.0","37236138","wem/bandit_party_1","A2VX8B1CJXRN2","either","8","94","","","","","","","0","0","1","0.1183399241","","0.2","0.6","0.4","0.8","","","","","0.3176405447","0.0383131093","0.1183399241","0.2843854285","","","","","","","","","","75","K","2","","","99","main_expt",""
"","bandit","179","617415","0.0-141.0-0.0","37236138","wem/bandit_party_1","A2VX8B1CJXRN2","either","8","389","","","","","","","0","0","1","","0.1558635017","0.2","0.6","0.4","0.8","0.3586553183","0.03580757471","0.1558635017","0.309751149","","","","","","","","","","","","","","75","K","2","","","100","main_expt",""
"","bandit","180","619255","0.0-142.0-0.0","37236138","wem/bandit_party_1","A2VX8B1CJXRN2","either","8","294","","","","","","","0","0","1","0.1389665978","","0.2","0.6","0.4","0.8","","","","","0.2951503345","0.04899620691","0.1389665978","0.2993195944","","","","","","","","","","75","K","2","","","101","main_expt",""
"","bandit","181","621156","0.0-143.0-0.0","37236138","wem/bandit_party_1","A2VX8B1CJXRN2","either","8","338","","","","","","","0","0","1","","0.1377203561","0.2","0.6","0.4","0.8","0.2998391809","0.08055650644","0.1377203561","0.3551890872","","","","","","","","","","","","","","75","K","2","","","102","main_expt",""
"","bandit","182","623150","0.0-144.0-0.0","37236138","wem/bandit_party_1","A2VX8B1CJXRN2","either","8","423","","","","","","","0","0","1","","0.1285548106","0.2","0.6","0.4","0.8","0.2791823827","0.1040447627","0.1285548106","0.3148404956","","","","","","","","","","","","","","75","K","2","","","103","main_expt",""
"","bandit","183","625171","0.0-145.0-0.0","37236138","wem/bandit_party_1","A2VX8B1CJXRN2","either","8","447","","","","","","","0","0","1","0.1143547335","","0.2","0.6","0.4","0.8","","","","","0.3382769334","0.1143547335","0.1555523735","0.3286912191","","","","","","","","","","74","J","1","","","104","main_expt",""
"","bandit","184","626869","0.0-146.0-0.0","37236138","wem/bandit_party_1","A2VX8B1CJXRN2","either","8","148","","","","","","","0","0","1","0.1487676438","","0.2","0.6","0.4","0.8","","","","","0.3339697125","0.1487676438","0.1775592141","0.298340497","","","","","","","","","","74","J","1","","","105","main_expt",""
"","bandit","185","629023","0.0-147.0-0.0","37236138","wem/bandit_party_1","A2VX8B1CJXRN2","either","8","587","","","","","","","0","0","1","","0.152088545","0.2","0.6","0.4","0.8","0.3124129253","0.152088545","0.2263451353","0.3504464386","","","","","","","","","","","","","","74","J","1","","","106","main_expt",""
"","bandit","186","631075","0.0-148.0-0.0","37236138","wem/bandit_party_1","A2VX8B1CJXRN2","either","8","447","","","","","","","0","0","1","0.2406734145","","0.2","0.6","0.4","0.8","","","","","0.3400683723","0.2406734145","0.1679769802","0.3510410077","","","","","","","","","","74","J","1","","","107","main_expt",""
"","bandit","187","633141","0.0-149.0-0.0","37236138","wem/bandit_party_1","A2VX8B1CJXRN2","either","8","512","","","","","","","0","1","0","","0.3048040024","0.2","0.6","0.4","0.8","0.3557340834","0.3048040024","0.1999870147","0.3282766846","","","","","","","","","","","","","","74","J","1","","","108","main_expt",""
"","bandit","188","635241","0.0-150.0-0.0","37236138","wem/bandit_party_1","A2VX8B1CJXRN2","either","8","543","","","","","","","1","0","0","0.3418503096","","0.2","0.6","0.4","0.8","","","","","0.3846418901","0.3418503096","0.208992856","0.3561186451","","","","","","","","","","74","J","1","","","109","main_expt",""
"","bandit","189","637193","0.0-151.0-0.0","37236138","wem/bandit_party_1","A2VX8B1CJXRN2","either","8","386","","","","","","","0","0","1","","0.3198501315","0.2","0.6","0.4","0.8","0.4057962062","0.3198501315","0.1716040471","0.3576445865","","","","","","","","","","","","","","74","J","1","","","110","main_expt",""
"","bandit","190","639126","0.0-152.0-0.0","37236138","wem/bandit_party_1","A2VX8B1CJXRN2","either","8","385","","","","","","","0","1","0","","0.3681534847","0.2","0.6","0.4","0.8","0.3692451483","0.3681534847","0.08984071331","0.3377543854","","","","","","","","","","","","","","74","J","1","","","111","main_expt",""
"","bandit","191","640860","0.0-153.0-0.0","37236138","wem/bandit_party_1","A2VX8B1CJXRN2","either","8","154","","","","","","","0","0","1","0.3757830796","","0.2","0.6","0.4","0.8","","","","","0.3577317973","0.3757830796","0.1243463141","0.286234052","","","","","","","","","","74","J","1","","","112","main_expt",""
"","bandit","192","642746","0.0-154.0-0.0","37236138","wem/bandit_party_1","A2VX8B1CJXRN2","either","8","313","","","","","","","0","0","1","","0.3838999828","0.2","0.6","0.4","0.8","0.3328808086","0.3838999828","0.1433440675","0.1932674395","","","","","","","","","","","","","","74","J","1","","","113","main_expt",""
"","bandit","193","644384","0.0-155.0-0.0","37236138","wem/bandit_party_1","A2VX8B1CJXRN2","either","8","39","","","","","","","0","0","1","","0.4157938717","0.2","0.6","0.4","0.8","0.3416979579","0.4157938717","0.1510662198","0.2403040534","","","","","","","","","","","","","","74","J","1","","","114","main_expt",""
"","bandit","194","646057","0.0-156.0-0.0","37236138","wem/bandit_party_1","A2VX8B1CJXRN2","either","8","96","","","","","","","1","0","0","0.4055870595","","0.2","0.6","0.4","0.8","","","","","0.3377137281","0.4055870595","0.09845245139","0.254937398","","","","","","","","","","74","J","1","","","115","main_expt",""
"","bandit","195","647944","0.0-157.0-0.0","37236138","wem/bandit_party_1","A2VX8B1CJXRN2","either","8","346","","","","","","","1","0","0","0.4161015278","","0.2","0.6","0.4","0.8","","","","","0.3039448029","0.4161015278","0.107393795","0.2605063941","","","","","","","","","","74","J","1","","","116","main_expt",""
"","bandit","196","649507","0.0-158.0-0.0","37236138","wem/bandit_party_1","A2VX8B1CJXRN2","either","8","9","","","","","","","0","0","1","0.414877819","","0.2","0.6","0.4","0.8","","","","","0.2974336912","0.414877819","0.07879800556","0.2161328783","","","","","","","","","","74","J","1","","","117","main_expt",""
"","bandit","197","651368","0.0-159.0-0.0","37236138","wem/bandit_party_1","A2VX8B1CJXRN2","either","8","310","","","","","","","0","0","1","0.3968259953","","0.2","0.6","0.4","0.8","","","","","0.2651867246","0.3968259953","0.08383735875","0.1931197841","","","","","","","","","","74","J","1","","","118","main_expt",""
"","bandit","198","652997","0.0-160.0-0.0","37236138","wem/bandit_party_1","A2VX8B1CJXRN2","either","8","65","","","","","","","1","0","0","0.4198241006","","0.2","0.6","0.4","0.8","","","","","0.3131666206","0.4198241006","0.1392474383","0.1638183597","","","","","","","","","","74","J","1","","","119","main_expt",""
"","bandit","199","654686","0.0-161.0-0.0","37236138","wem/bandit_party_1","A2VX8B1CJXRN2","either","8","123","","","","","","","0","0","1","0.4286088018","","0.2","0.6","0.4","0.8","","","","","0.358829095","0.4286088018","0.1649404926","0.1893282748","","","","","","","","","","74","J","1","","","120","main_expt",""
"","bandit","200","656478","0.0-162.0-0.0","37236138","wem/bandit_party_1","A2VX8B1CJXRN2","either","8","219","","","","","","","0","1","0","","0.4253829576","0.2","0.6","0.4","0.8","0.3189860171","0.4253829576","0.1764152442","0.2290368179","","","","","","","","","","","","","","74","J","1","","","121","main_expt",""
"","bandit","201","658477","0.0-163.0-0.0","37236138","wem/bandit_party_1","A2VX8B1CJXRN2","either","8","397","","","","","","","0","1","0","","0.4235175979","0.2","0.6","0.4","0.8","0.3011672979","0.4235175979","0.2092397698","0.2445441383","","","","","","","","","","","","","","74","J","1","","","122","main_expt",""
"","bandit","202","660016","0.0-164.0-0.0","37236138","wem/bandit_party_1","A2VX8B1CJXRN2","either","8","1","","","","","","","0","0","1","","0.4182090072","0.2","0.6","0.4","0.8","0.3037948063","0.4182090072","0.1884058447","0.2091075756","","","","","","","","","","","","","","74","J","1","","","123","main_expt",""
"","bandit","203","661576","0.0-165.0-0.0","37236138","wem/bandit_party_1","A2VX8B1CJXRN2","either","8","29","","","","","","","1","0","0","0.4356016004","","0.2","0.6","0.4","0.8","","","","","0.2446200253","0.4356016004","0.1876417206","0.2216111921","","","","","","","","","","74","J","1","","","124","main_expt",""
"","bandit","204","663161","0.0-166.0-0.0","37236138","wem/bandit_party_1","A2VX8B1CJXRN2","either","8","1","","","","","","","0","1","0","","0.403953628","0.2","0.6","0.4","0.8","0.2464628806","0.403953628","0.1890564589","0.1622020501","","","","","","","","","","","","","","74","J","1","","","125","main_expt",""
"","bandit","205","665149","0.0-167.0-0.0","37236138","wem/bandit_party_1","A2VX8B1CJXRN2","either","8","399","","","","","","","0","0","1","0.4020675328","","0.2","0.6","0.4","0.8","","","","","0.281169445","0.4020675328","0.1659850756","0.173533554","","","","","","","","","","74","J","1","","","126","main_expt",""
"","bandit","206","667258","0.0-168.0-0.0","37236138","wem/bandit_party_1","A2VX8B1CJXRN2","either","8","556","","","","","","","0","0","1","0.338443572","","0.2","0.6","0.4","0.8","","","","","0.290080064","0.338443572","0.2006343121","0.189829559","","","","","","","","","","74","J","1","","","127","main_expt",""
"","bandit","207","669282","0.0-169.0-0.0","37236138","wem/bandit_party_1","A2VX8B1CJXRN2","either","8","463","","","","","","","0","0","1","0.323123489","","0.2","0.6","0.4","0.8","","","","","0.3280989756","0.323123489","0.2637444583","0.1764696366","","","","","","","","","","74","J","1","","","128","main_expt",""
"","bandit","208","671155","0.0-170.0-0.0","37236138","wem/bandit_party_1","A2VX8B1CJXRN2","either","8","320","","","","","","","0","0","1","","0.3615310162","0.2","0.6","0.4","0.8","0.3052704822","0.3615310162","0.2783394686","0.172709194","","","","","","","","","","","","","","74","J","1","","","129","main_expt",""
"","bandit","209","672803","0.0-171.0-0.0","37236138","wem/bandit_party_1","A2VX8B1CJXRN2","either","8","67","","","","","","","0","1","0","","0.3667448715","0.2","0.6","0.4","0.8","0.314718742","0.3667448715","0.2674474002","0.1407460215","","","","","","","","","","","","","","74","J","1","","","130","main_expt",""
"","bandit","210","674406","0.0-172.0-0.0","37236138","wem/bandit_party_1","A2VX8B1CJXRN2","either","8","50","","","","","","","0","0","1","0.341745941","","0.2","0.6","0.4","0.8","","","","","0.2492347367","0.341745941","0.2122920843","0.143826562","","","","","","","","","","74","J","1","","","131","main_expt",""
"","bandit","211","676050","0.0-173.0-0.0","37236138","wem/bandit_party_1","A2VX8B1CJXRN2","either","8","72","","","","","","","0","0","1","","0.2615325727","0.2","0.6","0.4","0.8","0.2495736985","0.2615325727","0.1969346152","0.1862992663","","","","","","","","","","","","","","74","J","1","","","132","main_expt",""
"","bandit","212","678032","0.0-174.0-0.0","37236138","wem/bandit_party_1","A2VX8B1CJXRN2","either","8","422","","","","","","","0","1","0","","0.27905624","0.2","0.6","0.4","0.8","0.2487120015","0.27905624","0.1390835973","0.185648564","","","","","","","","","","","","","","74","J","1","","","133","main_expt",""
"","bandit","213","680017","0.0-175.0-0.0","37236138","wem/bandit_party_1","A2VX8B1CJXRN2","either","8","430","","","","","","","0","0","1","","0.2751163123","0.2","0.6","0.4","0.8","0.3239420422","0.2751163123","0.1437640715","0.2002276213","","","","","","","","","","","","","","74","J","1","","","134","main_expt",""
"","bandit","214","681632","0.0-176.0-0.0","37236138","wem/bandit_party_1","A2VX8B1CJXRN2","either","8","51","","","","","","","0","0","1","","0.2586507773","0.2","0.6","0.4","0.8","0.3903525049","0.2586507773","0.1175999949","0.2474552851","","","","","","","","","","","","","","74","J","1","","","135","main_expt",""
"","bandit","215","683371","0.0-177.0-0.0","37236138","wem/bandit_party_1","A2VX8B1CJXRN2","either","8","178","","","","","","","1","0","0","0.2385277364","","0.2","0.6","0.4","0.8","","","","","0.3703049055","0.2385277364","0.1108499649","0.2454982057","","","","","","","","","","74","J","1","","","136","main_expt",""
"","bandit","216","685110","0.0-178.0-0.0","37236138","wem/bandit_party_1","A2VX8B1CJXRN2","either","8","172","","","","","","","0","0","1","","0.1935782534","0.2","0.6","0.4","0.8","0.3657944308","0.1935782534","0.1208727618","0.2708690816","","","","","","","","","","","","","","74","J","1","","","137","main_expt",""
"","bandit","217","686648","0.0-179.0-0.0","37236138","wem/bandit_party_1","A2VX8B1CJXRN2","either","8","0","","","","","","","0","0","1","0.14087624","","0.2","0.6","0.4","0.8","","","","","0.3452946514","0.14087624","0.1098805161","0.2219039101","","","","","","","","","","74","J","1","","","138","main_expt",""
"","bandit","218","688405","0.0-180.0-0.0","37236138","wem/bandit_party_1","A2VX8B1CJXRN2","either","8","200","","","","","","","0","0","1","","0.1340930794","0.2","0.6","0.4","0.8","0.3225052804","0.1340930794","0.1359731218","0.2485571535","","","","","","","","","","","","","","74","J","1","","","139","main_expt",""
"","bandit","219","690127","0.0-181.0-0.0","37236138","wem/bandit_party_1","A2VX8B1CJXRN2","either","8","169","","","","","","","0","0","1","","0.1170750994","0.2","0.6","0.4","0.8","0.2997250911","0.1170750994","0.1419248406","0.2605640439","","","","","","","","","","","","","","74","J","1","","","140","main_expt",""
"","bandit","220","691907","0.0-182.0-0.0","37236138","wem/bandit_party_1","A2VX8B1CJXRN2","either","8","191","","","","","","","0","0","1","","0.1316830279","0.2","0.6","0.4","0.8","0.311933389","0.1316830279","0.1269577117","0.2260680923","","","","","","","","","","","","","","74","J","1","","","141","main_expt",""
"","bandit","221","693609","0.0-183.0-0.0","37236138","wem/bandit_party_1","A2VX8B1CJXRN2","either","8","117","","","","","","","0","0","1","0.09490366034","","0.2","0.6","0.4","0.8","","","","","0.3442568425","0.09490366034","0.1073819056","0.2354846983","","","","","","","","","","74","J","1","","","142","main_expt",""
"","bandit","222","695236","0.0-184.0-0.0","37236138","wem/bandit_party_1","A2VX8B1CJXRN2","either","8","60","","","","","","","0","0","1","0.1246024154","","0.2","0.6","0.4","0.8","","","","","0.3117203045","0.1246024154","0.1152767294","0.2089358464","","","","","","","","","","74","J","1","","","143","main_expt",""
"","bandit","223","696806","0.0-185.0-0.0","37236138","wem/bandit_party_1","A2VX8B1CJXRN2","either","8","1","","","","","","","0","0","1","0.1179874238","","0.2","0.6","0.4","0.8","","","","","0.3080771123","0.1179874238","0.1317444946","0.1844607625","","","","","","","","","","74","J","1","","","144","main_expt",""
"","bandit","224","698482","0.0-186.0-0.0","37236138","wem/bandit_party_1","A2VX8B1CJXRN2","either","8","94","","","","","","","0","0","1","","0.1211842963","0.2","0.6","0.4","0.8","0.3146876691","0.1211842963","0.1058600218","0.1940384654","","","","","","","","","","","","","","74","J","1","","","145","main_expt",""
"","bandit","225","700050","0.0-187.0-0.0","37236138","wem/bandit_party_1","A2VX8B1CJXRN2","either","8","1","","","","","","","0","0","1","0.06212451067","","0.2","0.6","0.4","0.8","","","","","0.3526806189","0.06212451067","0.1862633901","0.2532022814","","","","","","","","","","74","J","1","","","146","main_expt",""
"","bandit","226","701672","0.0-188.0-0.0","37236138","wem/bandit_party_1","A2VX8B1CJXRN2","either","8","47","","","","","","","0","0","1","0.1944793183","","0.2","0.6","0.4","0.8","","","","","0.3859334927","0.05826033827","0.1944793183","0.272856749","","","","","","","","","","75","K","2","","","147","main_expt",""
"","bandit","227","703678","0.0-189.0-0.0","37236138","wem/bandit_party_1","A2VX8B1CJXRN2","either","8","441","","","","","","","0","0","1","","0.1572605535","0.2","0.6","0.4","0.8","0.4089873985","0.04847575149","0.1572605535","0.2441255329","","","","","","","","","","","","","","75","K","2","","","148","main_expt",""
"","bandit","228","705592","0.0-190.0-0.0","37236138","wem/bandit_party_1","A2VX8B1CJXRN2","either","8","363","","","","","","","0","0","1","0.1632070519","","0.2","0.6","0.4","0.8","","","","","0.3317076441","0.07397138717","0.1632070519","0.2304797635","","","","","","","","","","75","K","2","","","149","main_expt",""
"","bandit","229","707446","0.0-191.0-0.0","37236138","wem/bandit_party_1","A2VX8B1CJXRN2","either","8","283","","","","","","","1","0","0","0.2162169298","","0.2","0.6","0.4","0.8","","","","","0.2514439341","0.1178437277","0.2162169298","0.2645424191","","","","","","","","","","75","K","2","","","150","main_expt",""
"","bandit","230","709162","0.0-192.0-0.0","37236138","wem/bandit_party_1","A2VX8B1CJXRN2","either","8","144","","","","","","","0","0","1","","0.2806681102","0.2","0.6","0.4","0.8","0.2209696772","0.1116740648","0.2806681102","0.2919476008","","","","","","","","","","","","","","75","K","2","","","151","main_expt",""
"","bandit","231","710859","0.0-193.0-0.0","37236138","wem/bandit_party_1","A2VX8B1CJXRN2","either","8","122","","","","","","","0","0","1","","0.25223767","0.2","0.6","0.4","0.8","0.2004300668","0.09681320826","0.25223767","0.3004198658","","","","","","","","","","","","","","75","K","2","","","152","main_expt",""
"","bandit","232","712739","0.0-194.0-0.0","37236138","wem/bandit_party_1","A2VX8B1CJXRN2","either","8","293","","","","","","","0","0","1","0.2259503681","","0.2","0.6","0.4","0.8","","","","","0.1803159607","0.1162344283","0.2259503681","0.2910243242","","","","","","","","","","75","K","2","","","153","main_expt",""
"","bandit","233","714299","0.0-195.0-0.0","37236138","wem/bandit_party_1","A2VX8B1CJXRN2","either","8","2","","","","","","","0","0","1","0.2520515582","","0.2","0.6","0.4","0.8","","","","","0.1793353988","0.1441765144","0.2520515582","0.2858680692","","","","","","","","","","75","K","2","","","154","main_expt",""
"","bandit","234","715948","0.0-196.0-0.0","37236138","wem/bandit_party_1","A2VX8B1CJXRN2","either","8","90","","","","","","","0","0","1","","0.246895917","0.2","0.6","0.4","0.8","0.175125938","0.1506434262","0.246895917","0.276906037","","","","","","","","","","","","","","75","K","2","","","155","main_expt",""
"","bandit","235","717840","0.0-197.0-0.0","37236138","wem/bandit_party_1","A2VX8B1CJXRN2","either","8","322","","","","","","","0","0","1","","0.2067462234","0.2","0.6","0.4","0.8","0.19004546","0.1691825384","0.2067462234","0.3087514371","","","","","","","","","","","","","","75","K","2","","","156","main_expt",""
"","bandit","236","719636","0.0-198.0-0.0","37236138","wem/bandit_party_1","A2VX8B1CJXRN2","either","8","238","","","","","","","0","1","0","","0.1736677602","0.2","0.6","0.4","0.8","0.1538528063","0.1465267651","0.1736677602","0.3400763937","","","","","","","","","","","","","","75","K","2","","","157","main_expt",""
"","bandit","237","721295","0.0-199.0-0.0","37236138","wem/bandit_party_1","A2VX8B1CJXRN2","either","8","86","","","","","","","0","0","1","0.2437422656","","0.2","0.6","0.4","0.8","","","","","0.1624419901","0.1517260174","0.2437422656","0.3388441277","","","","","","","","","","75","K","2","","","158","main_expt",""
"","bandit","238","722860","0.0-200.0-0.0","37236138","wem/bandit_party_1","A2VX8B1CJXRN2","either","8","2","","","","","","","0","0","1","","0.2627628197","0.2","0.6","0.4","0.8","0.1749682205","0.143579764","0.2627628197","0.3496437485","","","","","","","","","","","","","","75","K","2","","","159","main_expt",""
"","bandit","239","724461","0.0-201.0-0.0","37236138","wem/bandit_party_1","A2VX8B1CJXRN2","either","8","36","","","","","","","0","1","0","","0.2532756584","0.2","0.6","0.4","0.8","0.2227833177","0.1701049762","0.2532756584","0.3347491532","","","","","","","","","","","","","","75","K","2","","","160","main_expt",""
"","bandit","240","726272","0.0-202.0-0.0","37236138","wem/bandit_party_1","A2VX8B1CJXRN2","either","8","221","","","","","","","0","0","1","0.1596038406","","0.2","0.6","0.4","0.8","","","","","0.1616195486","0.1596038406","0.2846030245","0.3036625801","","","","","","","","","","74","J","1","","","161","main_expt",""
"","bandit","241","727866","0.0-203.0-0.0","37236138","wem/bandit_party_1","A2VX8B1CJXRN2","either","8","32","","","","","","","0","0","1","","0.1186271452","0.2","0.6","0.4","0.8","0.1440802068","0.1186271452","0.2480450928","0.2735804545","","","","","","","","","","","","","","74","J","1","","","162","main_expt",""
"","bandit","242","729693","0.0-204.0-0.0","37236138","wem/bandit_party_1","A2VX8B1CJXRN2","either","8","288","","","","","","","0","0","1","","0.1460830151","0.2","0.6","0.4","0.8","0.1349250059","0.1460830151","0.3217860246","0.2219233964","","","","","","","","","","","","","","74","J","1","","","163","main_expt",""
"","bandit","243","731594","0.0-205.0-0.0","37236138","wem/bandit_party_1","A2VX8B1CJXRN2","either","8","323","","","","","","","0","0","1","0.1924179555","","0.2","0.6","0.4","0.8","","","","","0.1482528248","0.1924179555","0.3528623486","0.2489701673","","","","","","","","","","74","J","1","","","164","main_expt",""
"","bandit","244","733472","0.0-206.0-0.0","37236138","wem/bandit_party_1","A2VX8B1CJXRN2","either","8","324","","","","","","","1","0","0","0.1909643941","","0.2","0.6","0.4","0.8","","","","","0.1444116863","0.1909643941","0.3113737792","0.2424219606","","","","","","","","","","74","J","1","","","165","main_expt",""
"","bandit","245","735183","0.0-207.0-0.0","37236138","wem/bandit_party_1","A2VX8B1CJXRN2","either","8","139","","","","","","","0","0","1","0.1917506842","","0.2","0.6","0.4","0.8","","","","","0.1621449425","0.1917506842","0.2820045276","0.1899742571","","","","","","","","","","74","J","1","","","166","main_expt",""
"","bandit","246","736828","0.0-208.0-0.0","37236138","wem/bandit_party_1","A2VX8B1CJXRN2","either","8","82","","","","","","","0","0","1","","0.2238056512","0.2","0.6","0.4","0.8","0.1695256229","0.2238056512","0.2539690707","0.2298880826","","","","","","","","","","","","","","74","J","1","","","167","main_expt",""
"","bandit","247","738608","0.0-209.0-0.0","37236138","wem/bandit_party_1","A2VX8B1CJXRN2","either","8","206","","","","","","","0","0","1","0.2132240521","","0.2","0.6","0.4","0.8","","","","","0.1712445676","0.2132240521","0.2177565821","0.241220494","","","","","","","","","","74","J","1","","","168","main_expt",""
"","bandit","248","740190","0.0-210.0-0.0","37236138","wem/bandit_party_1","A2VX8B1CJXRN2","either","8","1","","","","","","","0","0","1","","0.1363713625","0.2","0.6","0.4","0.8","0.191079104","0.1363713625","0.183214586","0.2113351254","","","","","","","","","","","","","","74","J","1","","","169","main_expt",""
"","bandit","249","741860","0.0-211.0-0.0","37236138","wem/bandit_party_1","A2VX8B1CJXRN2","either","8","108","","","","","","","0","0","1","0.2007690262","","0.2","0.6","0.4","0.8","","","","","0.2227666825","0.2007690262","0.1757282231","0.2224744884","","","","","","","","","","74","J","1","","","170","main_expt",""
"","bandit","250","743533","0.0-212.0-0.0","37236138","wem/bandit_party_1","A2VX8B1CJXRN2","either","8","119","","","","","","","0","0","1","0.1238998316","","0.2","0.6","0.4","0.8","","","","","0.2719914804","0.1238998316","0.1679331046","0.262177911","","","","","","","","","","74","J","1","","","171","main_expt",""
"","bandit","251","745195","0.0-213.0-0.0","37236138","wem/bandit_party_1","A2VX8B1CJXRN2","either","8","97","","","","","","","0","0","1","0.09746419185","","0.2","0.6","0.4","0.8","","","","","0.2330128459","0.09746419185","0.14560319","0.2822992514","","","","","","","","","","74","J","1","","","172","main_expt",""
"","bandit","252","746897","0.0-214.0-0.0","37236138","wem/bandit_party_1","A2VX8B1CJXRN2","either","8","139","","","","","","","0","0","1","0.1018164217","","0.2","0.6","0.4","0.8","","","","","0.2840251313","0.1018164217","0.1341549344","0.2545762091","","","","","","","","","","74","J","1","","","173","main_expt",""
"","bandit","253","748486","0.0-215.0-0.0","37236138","wem/bandit_party_1","A2VX8B1CJXRN2","either","8","41","","","","","","","0","0","1","0.1401689619","","0.2","0.6","0.4","0.8","","","","","0.2739042306","0.1401689619","0.1471305278","0.2838184637","","","","","","","","","","74","J","1","","","174","main_expt",""
"","bandit","254","750251","0.0-216.0-0.0","37236138","wem/bandit_party_1","A2VX8B1CJXRN2","either","8","197","","","","","","","0","0","1","","0.1697524679","0.2","0.6","0.4","0.8","0.3444735506","0.1697524679","0.173963405","0.3002790513","","","","","","","","","","","","","","74","J","1","","","175","main_expt",""
"","bandit","255","752003","0.0-217.0-0.0","37236138","wem/bandit_party_1","A2VX8B1CJXRN2","either","8","157","","","","","","","0","0","1","","0.1896898672","0.2","0.6","0.4","0.8","0.3223017316","0.1896898672","0.1821857965","0.3771690292","","","","","","","","","","","","","","74","J","1","","","176","main_expt",""
"","bandit","256","754817","0.0-218.0-0.0","37236138","wem/bandit_party_1","A2VX8B1CJXRN2","either","8","1237","","","","","","","0","0","1","","0.1444884472","0.2","0.6","0.4","0.8","0.2964924158","0.2441254625","0.1444884472","0.4047809956","","","","","","","","","","","","","","75","K","2","","","177","main_expt",""
"","bandit","257","756411","0.0-219.0-0.0","37236138","wem/bandit_party_1","A2VX8B1CJXRN2","either","8","36","","","","","","","0","0","1","0.1207783293","","0.2","0.6","0.4","0.8","","","","","0.2780576925","0.2427722412","0.1207783293","0.4344960837","","","","","","","","","","75","K","2","","","178","main_expt",""
"","bandit","258","757999","0.0-220.0-0.0","37236138","wem/bandit_party_1","A2VX8B1CJXRN2","either","8","44","","","","","","","0","0","1","","0.111585665","0.2","0.6","0.4","0.8","0.2859751729","0.2284650367","0.111585665","0.4287912686","","","","","","","","","","","","","","75","K","2","","","179","main_expt",""
"","bandit","259","759794","0.0-221.0-0.0","37236138","wem/bandit_party_1","A2VX8B1CJXRN2","either","8","234","","","","","","","0","0","1","","0.06891525065","0.2","0.6","0.4","0.8","0.283533164","0.2694081366","0.06891525065","0.4294180747","","","","","","","","","","","","","","75","K","2","","","180","main_expt",""
"","bandit","260","761509","0.0-222.0-0.0","37236138","wem/bandit_party_1","A2VX8B1CJXRN2","either","8","158","","","","","","","0","0","1","","0.07407739619","0.2","0.6","0.4","0.8","0.2430023428","0.2471628034","0.07407739619","0.3887332701","","","","","","","","","","","","","","75","K","2","","","181","main_expt",""
"","bandit","261","763968","0.0-223.0-0.0","37236138","wem/bandit_party_1","A2VX8B1CJXRN2","either","8","886","","","","","","","0","0","1","","0.275372354","0.2","0.6","0.4","0.8","0.223254837","0.275372354","0.07501704201","0.3910635387","","","","","","","","","","","","","","74","J","1","","","182","main_expt",""
"","bandit","262","765776","0.0-224.0-0.0","37236138","wem/bandit_party_1","A2VX8B1CJXRN2","either","8","227","","","","","","","0","0","1","","0.2378950907","0.2","0.6","0.4","0.8","0.2274286797","0.2378950907","0.09354103142","0.3957792538","","","","","","","","","","","","","","74","J","1","","","183","main_expt",""
"","bandit","263","767562","0.0-225.0-0.0","37236138","wem/bandit_party_1","A2VX8B1CJXRN2","either","8","197","","","","","","","0","0","1","0.2611999536","","0.2","0.6","0.4","0.8","","","","","0.2485964068","0.2611999536","0.06673830493","0.3777829694","","","","","","","","","","74","J","1","","","184","main_expt",""
"","bandit","264","769279","0.0-226.0-0.0","37236138","wem/bandit_party_1","A2VX8B1CJXRN2","either","8","135","","","","","","","0","0","1","","0.2799245071","0.2","0.6","0.4","0.8","0.2080173303","0.2799245071","0.08617836821","0.4130939835","","","","","","","","","","","","","","74","J","1","","","185","main_expt",""
"","bandit","265","770833","0.0-227.0-0.0","37236138","wem/bandit_party_1","A2VX8B1CJXRN2","either","8","1","","","","","","","0","1","0","","0.2275386122","0.2","0.6","0.4","0.8","0.2538883687","0.2275386122","0.05054014018","0.376930599","","","","","","","","","","","","","","74","J","1","","","186","main_expt",""
"","bandit","266","772633","0.0-228.0-0.0","37236138","wem/bandit_party_1","A2VX8B1CJXRN2","either","8","198","","","","","","","1","0","0","0.2558518805","","0.2","0.6","0.4","0.8","","","","","0.2267652077","0.2558518805","0.1101456656","0.3934592684","","","","","","","","","","74","J","1","","","187","main_expt",""
"","bandit","267","774250","0.0-229.0-0.0","37236138","wem/bandit_party_1","A2VX8B1CJXRN2","either","8","1","","","","","","","0","0","1","0.2757393749","","0.2","0.6","0.4","0.8","","","","","0.2583789709","0.2757393749","0.1076418148","0.4086060551","","","","","","","","","","74","J","1","","","188","main_expt",""
"","bandit","268","775862","0.0-230.0-0.0","37236138","wem/bandit_party_1","A2VX8B1CJXRN2","either","8","42","","","","","","","0","0","1","0.3326758055","","0.2","0.6","0.4","0.8","","","","","0.2329768584","0.3326758055","0.1230456027","0.447145564","","","","","","","","","","74","J","1","","","189","main_expt",""
"","bandit","269","777580","0.0-231.0-0.0","37236138","wem/bandit_party_1","A2VX8B1CJXRN2","either","8","141","","","","","","","1","0","0","0.332927569","","0.2","0.6","0.4","0.8","","","","","0.2002510669","0.332927569","0.1872873117","0.386091063","","","","","","","","","","74","J","1","","","190","main_expt",""
"","bandit","270","779225","0.0-232.0-0.0","37236138","wem/bandit_party_1","A2VX8B1CJXRN2","either","8","81","","","","","","","0","0","1","0.3859199101","","0.2","0.6","0.4","0.8","","","","","0.2182600554","0.3859199101","0.1413073252","0.4221145333","","","","","","","","","","74","J","1","","","191","main_expt",""
"","bandit","271","780873","0.0-233.0-0.0","37236138","wem/bandit_party_1","A2VX8B1CJXRN2","either","8","78","","","","","","","0","0","1","","0.392668484","0.2","0.6","0.4","0.8","0.2681613901","0.392668484","0.1868627967","0.3913199708","","","","","","","","","","","","","","74","J","1","","","192","main_expt",""
"","bandit","272","782631","0.0-234.0-0.0","37236138","wem/bandit_party_1","A2VX8B1CJXRN2","either","8","178","","","","","","","0","1","0","","0.3789843676","0.2","0.6","0.4","0.8","0.3035027483","0.3789843676","0.2312719224","0.4013624592","","","","","","","","","","","","","","74","J","1","","","193","main_expt",""
"","bandit","273","784287","0.0-235.0-0.0","37236138","wem/bandit_party_1","A2VX8B1CJXRN2","either","8","84","","","","","","","0","0","1","0.3689216281","","0.2","0.6","0.4","0.8","","","","","0.275531754","0.3689216281","0.2585201677","0.3668237699","","","","","","","","","","74","J","1","","","194","main_expt",""
"","bandit","274","785977","0.0-236.0-0.0","37236138","wem/bandit_party_1","A2VX8B1CJXRN2","either","8","117","","","","","","","0","0","1","0.4136905162","","0.2","0.6","0.4","0.8","","","","","0.2716401532","0.4136905162","0.2786104129","0.3856266791","","","","","","","","","","74","J","1","","","195","main_expt",""
"","bandit","275","787540","0.0-237.0-0.0","37236138","wem/bandit_party_1","A2VX8B1CJXRN2","either","8","1","","","","","","","0","1","0","","0.4258575101","0.2","0.6","0.4","0.8","0.2814611543","0.4258575101","0.2407834285","0.3702439493","","","","","","","","","","","","","","74","J","1","","","196","main_expt",""
"","bandit","276","789119","0.0-238.0-0.0","37236138","wem/bandit_party_1","A2VX8B1CJXRN2","either","8","1","","","","","","","0","0","1","","0.3976178043","0.2","0.6","0.4","0.8","0.2588010394","0.3976178043","0.2550568011","0.3665926528","","","","","","","","","","","","","","74","J","1","","","197","main_expt",""
"","bandit","277","790784","0.0-239.0-0.0","37236138","wem/bandit_party_1","A2VX8B1CJXRN2","either","8","101","","","","","","","1","0","0","0.3802378075","","0.2","0.6","0.4","0.8","","","","","0.3094610495","0.3802378075","0.3094863904","0.3432124584","","","","","","","","","","74","J","1","","","198","main_expt",""
"","bandit","278","792563","0.0-240.0-0.0","37236138","wem/bandit_party_1","A2VX8B1CJXRN2","either","8","200","","","","","","","1","0","0","0.3926800246","","0.2","0.6","0.4","0.8","","","","","0.3139278769","0.3926800246","0.3012985694","0.4096574544","","","","","","","","","","74","J","1","","","199","main_expt",""
"","bandit","279","794243","0.0-241.0-0.0","37236138","wem/bandit_party_1","A2VX8B1CJXRN2","either","8","100","","","","","","","0","0","1","","0.3814844917","0.2","0.6","0.4","0.8","0.3459706187","0.3814844917","0.3149132519","0.3799023259","","","","","","","","","","","","","","74","J","1","","","200","main_expt",""
"","bandit","280","795900","0.0-242.0-0.0","37236138","wem/bandit_party_1","A2VX8B1CJXRN2","either","8","72","","","","","","","1","0","0","0.3831630738","","0.2","0.6","0.4","0.8","","","","","0.3038365479","0.3831630738","0.3236307962","0.3513783521","","","","","","","","","","74","J","1","","","201","main_expt",""
"","bandit","281","797478","0.0-243.0-0.0","37236138","wem/bandit_party_1","A2VX8B1CJXRN2","either","8","14","","","","","","","0","0","1","","0.3957430938","0.2","0.6","0.4","0.8","0.2964599608","0.3957430938","0.3163717903","0.3439351057","","","","","","","","","","","","","","74","J","1","","","202","main_expt",""
"","bandit","282","799112","0.0-244.0-0.0","37236138","wem/bandit_party_1","A2VX8B1CJXRN2","either","8","80","","","","","","","0","0","1","","0.4175506619","0.2","0.6","0.4","0.8","0.280336616","0.4175506619","0.3165936227","0.2615327891","","","","","","","","","","","","","","74","J","1","","","203","main_expt",""
"","bandit","283","800688","0.0-245.0-0.0","37236138","wem/bandit_party_1","A2VX8B1CJXRN2","either","8","1","","","","","","","1","0","0","0.4356800279","","0.2","0.6","0.4","0.8","","","","","0.262900641","0.4356800279","0.3166231072","0.2211517471","","","","","","","","","","74","J","1","","","204","main_expt",""
"","bandit","284","802264","0.0-246.0-0.0","37236138","wem/bandit_party_1","A2VX8B1CJXRN2","either","8","19","","","","","","","0","0","1","0.4342993254","","0.2","0.6","0.4","0.8","","","","","0.3403150927","0.4342993254","0.2983153058","0.1955747294","","","","","","","","","","74","J","1","","","205","main_expt",""
"","bandit","285","803843","0.0-247.0-0.0","37236138","wem/bandit_party_1","A2VX8B1CJXRN2","either","8","51","","","","","","","0","0","1","0.4515967499","","0.2","0.6","0.4","0.8","","","","","0.3407188883","0.4515967499","0.255573156","0.3137251184","","","","","","","","","","74","J","1","","","206","main_expt",""
"","bandit","286","805490","0.0-248.0-0.0","37236138","wem/bandit_party_1","A2VX8B1CJXRN2","either","8","105","","","","","","","0","0","1","0.4559700358","","0.2","0.6","0.4","0.8","","","","","0.2955601217","0.4559700358","0.2816724171","0.2982459604","","","","","","","","","","74","J","1","","","207","main_expt",""
"","bandit","287","807112","0.0-249.0-0.0","37236138","wem/bandit_party_1","A2VX8B1CJXRN2","either","8","96","","","","","","","0","1","0","","0.4711787588","0.2","0.6","0.4","0.8","0.2832193826","0.4711787588","0.2462622089","0.2359404152","","","","","","","","","","","","","","74","J","1","","","208","main_expt",""
"","bandit","288","808719","0.0-250.0-0.0","37236138","wem/bandit_party_1","A2VX8B1CJXRN2","either","8","55","","","","","","","1","0","0","0.4859779177","","0.2","0.6","0.4","0.8","","","","","0.25637755","0.4859779177","0.2608633631","0.2396635106","","","","","","","","","","74","J","1","","","209","main_expt",""
"","bandit","289","810295","0.0-251.0-0.0","37236138","wem/bandit_party_1","A2VX8B1CJXRN2","either","8","5","","","","","","","0","0","1","0.4798195452","","0.2","0.6","0.4","0.8","","","","","0.2500912527","0.4798195452","0.2649708152","0.2320506775","","","","","","","","","","74","J","1","","","210","main_expt",""
"","bandit","290","811901","0.0-252.0-0.0","37236138","wem/bandit_party_1","A2VX8B1CJXRN2","either","8","48","","","","","","","1","0","0","0.4754072522","","0.2","0.6","0.4","0.8","","","","","0.2481129288","0.4754072522","0.2658594566","0.1894847828","","","","","","","","","","74","J","1","","","211","main_expt",""
"","bandit","291","813520","0.0-253.0-0.0","37236138","wem/bandit_party_1","A2VX8B1CJXRN2","either","8","15","","","","","","","0","0","1","0.4780703898","","0.2","0.6","0.4","0.8","","","","","0.3192168596","0.4780703898","0.2648449814","0.2330804604","","","","","","","","","","74","J","1","","","212","main_expt",""
"","bandit","292","815157","0.0-254.0-0.0","37236138","wem/bandit_party_1","A2VX8B1CJXRN2","either","8","54","","","","","","","0","0","1","","0.4883488692","0.2","0.6","0.4","0.8","0.2361953268","0.4883488692","0.286492297","0.2484053244","","","","","","","","","","","","","","74","J","1","","","213","main_expt",""
"","bandit","293","816718","0.0-255.0-0.0","37236138","wem/bandit_party_1","A2VX8B1CJXRN2","either","8","6","","","","","","","0","1","0","","0.4872562331","0.2","0.6","0.4","0.8","0.2308921763","0.4872562331","0.2540339129","0.2182548364","","","","","","","","","","","","","","74","J","1","","","214","main_expt",""
"","bandit","294","818288","0.0-256.0-0.0","37236138","wem/bandit_party_1","A2VX8B1CJXRN2","either","8","13","","","","","","","0","0","1","0.4749609167","","0.2","0.6","0.4","0.8","","","","","0.2161033537","0.4749609167","0.254651127","0.1824073789","","","","","","","","","","74","J","1","","","215","main_expt",""
"","bandit","295","819868","0.0-257.0-0.0","37236138","wem/bandit_party_1","A2VX8B1CJXRN2","either","8","8","","","","","","","0","0","1","0.4798413464","","0.2","0.6","0.4","0.8","","","","","0.1896756427","0.4798413464","0.3140517816","0.1923730387","","","","","","","","","","74","J","1","","","216","main_expt",""
"","bandit","296","821431","0.0-258.0-0.0","37236138","wem/bandit_party_1","A2VX8B1CJXRN2","either","8","2","","","","","","","0","0","1","","0.4865144435","0.2","0.6","0.4","0.8","0.1724286307","0.4865144435","0.3338676317","0.2266612446","","","","","","","","","","","","","","74","J","1","","","217","main_expt",""
"","bandit","297","823176","0.0-259.0-0.0","37236138","wem/bandit_party_1","A2VX8B1CJXRN2","either","8","188","","","","","","","0","1","0","","0.4789145001","0.2","0.6","0.4","0.8","0.161168334","0.4789145001","0.3397001125","0.1702705737","","","","","","","","","","","","","","74","J","1","","","218","main_expt",""
"","bandit","298","824915","0.0-260.0-0.0","37236138","wem/bandit_party_1","A2VX8B1CJXRN2","either","8","177","","","","","","","0","1","0","","0.4834748692","0.2","0.6","0.4","0.8","0.2021763003","0.4834748692","0.2982528089","0.1159766116","","","","","","","","","","","","","","74","J","1","","","219","main_expt",""
"","bandit","299","826499","0.0-261.0-0.0","37236138","wem/bandit_party_1","A2VX8B1CJXRN2","either","8","1","","","","","","","0","0","1","","0.4722371777","0.2","0.6","0.4","0.8","0.2142164272","0.4722371777","0.2770934022","0.09529473055","","","","","","","","","","","","","","74","J","1","","","220","main_expt",""
"","bandit","300","828218","0.0-262.0-0.0","37236138","wem/bandit_party_1","A2VX8B1CJXRN2","either","8","130","","","","","","","0","1","0","","0.4654689219","0.2","0.6","0.4","0.8","0.189068297","0.4654689219","0.2696770889","0.09060922323","","","","","","","","","","","","","","74","J","1","","","221","main_expt",""
"","bandit","301","829805","0.0-263.0-0.0","37236138","wem/bandit_party_1","A2VX8B1CJXRN2","either","8","1","","","","","","","0","0","1","0.4533789701","","0.2","0.6","0.4","0.8","","","","","0.2120997892","0.4533789701","0.3103502417","0.1250772464","","","","","","","","","","74","J","1","","","222","main_expt",""
"","bandit","302","831405","0.0-264.0-0.0","37236138","wem/bandit_party_1","A2VX8B1CJXRN2","either","8","12","","","","","","","1","0","0","0.4473019993","","0.2","0.6","0.4","0.8","","","","","0.1937664477","0.4473019993","0.3477728299","0.1177235221","","","","","","","","","","74","J","1","","","223","main_expt",""
"","bandit","303","832979","0.0-265.0-0.0","37236138","wem/bandit_party_1","A2VX8B1CJXRN2","either","8","23","","","","","","","1","0","0","0.4651086175","","0.2","0.6","0.4","0.8","","","","","0.2195846313","0.4651086175","0.3230244909","0.1589673504","","","","","","","","","","74","J","1","","","224","main_expt",""
"","bandit","304","834533","0.0-266.0-0.0","37236138","wem/bandit_party_1","A2VX8B1CJXRN2","either","8","5","","","","","","","0","1","0","","0.4704934375","0.2","0.6","0.4","0.8","0.1973587738","0.4704934375","0.3641913847","0.1582937281","","","","","","","","","","","","","","74","J","1","","","225","main_expt",""
"","bandit","305","836112","0.0-267.0-0.0","37236138","wem/bandit_party_1","A2VX8B1CJXRN2","either","8","7","","","","","","","0","0","1","","0.4545632724","0.2","0.6","0.4","0.8","0.2029059012","0.4545632724","0.3211822138","0.1585786296","","","","","","","","","","","","","","74","J","1","","","226","main_expt",""
"","bandit","306","837689","0.0-268.0-0.0","37236138","wem/bandit_party_1","A2VX8B1CJXRN2","either","8","1","","","","","","","0","0","1","0.4313330006","","0.2","0.6","0.4","0.8","","","","","0.1677618241","0.4313330006","0.3318596792","0.1614007709","","","","","","","","","","74","J","1","","","227","main_expt",""
"","bandit","307","839381","0.0-269.0-0.0","37236138","wem/bandit_party_1","A2VX8B1CJXRN2","either","8","144","","","","","","","0","0","1","0.4253897179","","0.2","0.6","0.4","0.8","","","","","0.2079318551","0.4253897179","0.3715738924","0.1160982884","","","","","","","","","","74","J","1","","","228","main_expt",""
"","bandit","308","840928","0.0-270.0-0.0","37236138","wem/bandit_party_1","A2VX8B1CJXRN2","either","8","7","","","","","","","0","0","1","","0.4416009531","0.2","0.6","0.4","0.8","0.1860779256","0.4416009531","0.3571583743","0.1327168588","","","","","","","","","","","","","","74","J","1","","","229","main_expt",""
"","bandit","309","842774","0.0-271.0-0.0","37236138","wem/bandit_party_1","A2VX8B1CJXRN2","either","8","275","","","","","","","0","0","1","","0.3455313741","0.2","0.6","0.4","0.8","0.1294985144","0.4612445757","0.3455313741","0.1751239199","","","","","","","","","","","","","","75","K","2","","","230","main_expt",""
"","bandit","310","844330","0.0-272.0-0.0","37236138","wem/bandit_party_1","A2VX8B1CJXRN2","either","8","1","","","","","","","0","0","1","","0.3114256563","0.2","0.6","0.4","0.8","0.1424139305","0.4455927364","0.3114256563","0.2080149414","","","","","","","","","","","","","","75","K","2","","","231","main_expt",""
"","bandit","311","845916","0.0-273.0-0.0","37236138","wem/bandit_party_1","A2VX8B1CJXRN2","either","8","1","","","","","","","0","1","0","","0.3127001645","0.2","0.6","0.4","0.8","0.1777617008","0.4449483857","0.3127001645","0.2305008548","","","","","","","","","","","","","","75","K","2","","","232","main_expt",""
"","bandit","312","847636","0.0-274.0-0.0","37236138","wem/bandit_party_1","A2VX8B1CJXRN2","either","8","129","","","","","","","0","0","1","0.2953609795","","0.2","0.6","0.4","0.8","","","","","0.1408291819","0.4570404202","0.2953609795","0.2331895239","","","","","","","","","","75","K","2","","","233","main_expt",""
"","bandit","313","849209","0.0-275.0-0.0","37236138","wem/bandit_party_1","A2VX8B1CJXRN2","either","8","1","","","","","","","1","0","0","0.2743769666","","0.2","0.6","0.4","0.8","","","","","0.09563300426","0.4785018613","0.2743769666","0.2007149185","","","","","","","","","","75","K","2","","","234","main_expt",""
"","bandit","314","850792","0.0-276.0-0.0","37236138","wem/bandit_party_1","A2VX8B1CJXRN2","either","8","3","","","","","","","0","1","0","","0.2842570603","0.2","0.6","0.4","0.8","0.06508254785","0.4708517218","0.2842570603","0.1428876463","","","","","","","","","","","","","","75","K","2","","","235","main_expt",""
"","bandit","315","852375","0.0-277.0-0.0","37236138","wem/bandit_party_1","A2VX8B1CJXRN2","either","8","3","","","","","","","0","0","1","","0.3536106974","0.2","0.6","0.4","0.8","0.05272484418","0.4721911582","0.3536106974","0.1327756685","","","","","","","","","","","","","","75","K","2","","","236","main_expt",""
"","bandit","316","854140","0.0-278.0-0.0","37236138","wem/bandit_party_1","A2VX8B1CJXRN2","either","8","183","","","","","","","0","0","1","0.3777879982","","0.2","0.6","0.4","0.8","","","","","0.05000735717","0.4567984566","0.3777879982","0.1969646424","","","","","","","","","","75","K","2","","","237","main_expt",""
"","bandit","317","855716","0.0-279.0-0.0","37236138","wem/bandit_party_1","A2VX8B1CJXRN2","either","8","2","","","","","","","0","1","0","","0.3819628943","0.2","0.6","0.4","0.8","0.03409798278","0.4601910044","0.3819628943","0.2040955009","","","","","","","","","","","","","","75","K","2","","","238","main_expt",""
"","bandit","318","857305","0.0-280.0-0.0","37236138","wem/bandit_party_1","A2VX8B1CJXRN2","either","8","2","","","","","","","0","0","1","0.3590612953","","0.2","0.6","0.4","0.8","","","","","0.03555143528","0.4663275819","0.3590612953","0.1885012088","","","","","","","","","","75","K","2","","","239","main_expt",""
"","bandit","319","858884","0.0-281.0-0.0","37236138","wem/bandit_party_1","A2VX8B1CJXRN2","either","8","20","","","","","","","1","0","0","0.3943681209","","0.2","0.6","0.4","0.8","","","","","0.06633834621","0.4781926851","0.3943681209","0.1779850251","","","","","","","","","","75","K","2","","","240","main_expt",""
"","bandit","320","860497","0.0-282.0-0.0","37236138","wem/bandit_party_1","A2VX8B1CJXRN2","either","8","43","","","","","","","0","1","0","","0.4178476804","0.2","0.6","0.4","0.8","0.0332650027","0.4813407325","0.4178476804","0.2132761508","","","","","","","","","","","","","","75","K","2","","","241","main_expt",""
