"consent","trial_type","trial_index","time_elapsed","internal_node_id","subjID","study","MID","cond","drift","rt","responses","button_pressed","key_press","like","value","connected","gems","bombs","no_reward","GemPrChosen","BombPrChosen","GainOverPainPr_0","GainOverPainPr_1","GainOverPainPr_2","GainOverPainPr_3","LosePr_0","LosePr_1","LosePr_2","LosePr_3","WinPr_0","WinPr_1","WinPr_2","WinPr_3","Q0","Q1","Q2","gender","age","ethnicity","label","expt_phase","target","respCharCode","respKey","respChoiceNum","respChoice","practice","trial_counter","trial_label","Q0_index"
"GDM/GDM_behavioral_consent_30min_online.html","consent","0","8517","0.0-0.0","37287774","wem/bandit_party_1","A35RTGQZ631EPC","either","6","","","","","","","","","","","","","","","","","","","","","","","","","","","","","","","","","","","","","","","","",""
"","survey-text","1","17157","0.0-1.0","37287774","wem/bandit_party_1","A35RTGQZ631EPC","either","6","7637","{""Q0"":""A35RTGQZ631EPC""}","","","","","","","","","","","","","","","","","","","","","","","","","","","","","","","","","","","","","","",""
"","button-response","2","21319","0.0-2.0","37287774","wem/bandit_party_1","A35RTGQZ631EPC","either","6","3159","","2","","","","","","","","","","","","","","","","","","","","","","","","","","","","","","","","","","","","","",""
"","text-replacement","3","33904","0.0-3.0","37287774","wem/bandit_party_1","A35RTGQZ631EPC","either","6","11583","","","32","","","","","","","","","","","","","","","","","","","","","","","","","","","","","","","","","","","","",""
"","text-replacement","4","42968","0.0-4.0","37287774","wem/bandit_party_1","A35RTGQZ631EPC","either","6","9062","","","32","","","","","","","","","","","","","","","","","","","","","","","","","","","","","","","","","","","","",""
"","text-replacement","5","56823","0.0-5.0-0.0","37287774","wem/bandit_party_1","A35RTGQZ631EPC","either","6","13855","","","32","","","","","","","","","","","","","","","","","","","","","","","","","","","","","","","","","","","","",""
"","identification","6","73161","0.0-6.0-0.0","37287774","wem/bandit_party_1","A35RTGQZ631EPC","either","6","16332","","","","2","2","2","","","","","","","","","","","","","","","","","","","","","","","","pre","identification_pre","the Republican party","","","","","","","",""
"","identification","7","78494","0.0-6.0-1.0","37287774","wem/bandit_party_1","A35RTGQZ631EPC","either","6","4328","","","","4","4","4","","","","","","","","","","","","","","","","","","","","","","","","pre","identification_pre","the Democratic Party","","","","","","","",""
"","text-replacement","8","86224","0.0-7.0","37287774","wem/bandit_party_1","A35RTGQZ631EPC","either","6","6728","","","32","","","","","","","","","","","","","","","","","","","","","","","","","","","","","","","","","","","","",""
"","text-replacement","9","93119","0.0-8.0","37287774","wem/bandit_party_1","A35RTGQZ631EPC","either","6","6895","","","32","","","","","","","","","","","","","","","","","","","","","","","","","","","","","","","","","","","","",""
"","text-replacement","10","105512","0.0-9.0","37287774","wem/bandit_party_1","A35RTGQZ631EPC","either","6","12391","","","32","","","","","","","","","","","","","","","","","","","","","","","","","","","","","","","","","","","","",""
"","text-replacement","11","109919","0.0-10.0","37287774","wem/bandit_party_1","A35RTGQZ631EPC","either","6","4407","","","32","","","","","","","","","","","","","","","","","","","","","","","","","","","","","","","","","","","","",""
"","text-replacement","12","117495","0.0-11.0","37287774","wem/bandit_party_1","A35RTGQZ631EPC","either","6","7575","","","32","","","","","","","","","","","","","","","","","","","","","","","","","","","","","","","","","","","","",""
"","bandit","13","121854","0.0-12.0-0.0","37287774","wem/bandit_party_1","A35RTGQZ631EPC","either","6","2854","","","","","","","0","0","1","0","0","","","","","0","","","","0","","","","","","","","","","","","","74","J","0","img/none_selected_demo.jpg","true","0","",""
"","bandit","14","124150","0.0-13.0-0.0","37287774","wem/bandit_party_1","A35RTGQZ631EPC","either","6","793","","","","","","","0","0","1","0","0","","","","","0","","","","0","","","","","","","","","","","","","75","K","0","img/none_selected_demo.jpg","true","0","",""
"","text-replacement","15","131983","0.0-14.0","37287774","wem/bandit_party_1","A35RTGQZ631EPC","either","6","7832","","","32","","","","","","","","","","","","","","","","","","","","","","","","","","","","","","","","","","","","",""
"","text-replacement","16","137384","0.0-15.0","37287774","wem/bandit_party_1","A35RTGQZ631EPC","either","6","5399","","","32","","","","","","","","","","","","","","","","","","","","","","","","","","","","","","","","","","","","",""
"","text-replacement","17","142775","0.0-16.0","37287774","wem/bandit_party_1","A35RTGQZ631EPC","either","6","5391","","","32","","","","","","","","","","","","","","","","","","","","","","","","","","","","","","","","","","","","",""
"","text-replacement","18","148937","0.0-17.0","37287774","wem/bandit_party_1","A35RTGQZ631EPC","either","6","6161","","","32","","","","","","","","","","","","","","","","","","","","","","","","","","","","","","","","","","","","",""
"","bandit","19","151606","0.0-18.0-0.0","37287774","wem/bandit_party_1","A35RTGQZ631EPC","either","6","1165","","","","","","","0","1","0","","0.8","0.5","0.5","","","0.8","0.2","","","","","","","","","","","","","","","","74","J","0","img/none_selected_demo.jpg","true","0","80_20_practice",""
"","bandit","20","154789","0.0-18.0-1.0","37287774","wem/bandit_party_1","A35RTGQZ631EPC","either","6","1680","","","","","","","1","0","0","0.8","","0.5","0.5","","","","","","","0.8","0.2","","","","","","","","","","","","74","J","0","img/none_selected_demo.jpg","true","0","80_20_practice",""
"","bandit","21","158437","0.0-18.0-2.0","37287774","wem/bandit_party_1","A35RTGQZ631EPC","either","6","2145","","","","","","","0","0","1","0.8","","0.5","0.5","","","","","","","0.8","0.2","","","","","","","","","","","","74","J","0","img/none_selected_demo.jpg","true","0","80_20_practice",""
"","bandit","22","161838","0.0-18.0-3.0","37287774","wem/bandit_party_1","A35RTGQZ631EPC","either","6","1897","","","","","","","1","0","0","0.8","","0.5","0.5","","","","","","","0.8","0.2","","","","","","","","","","","","74","J","0","img/none_selected_demo.jpg","true","0","80_20_practice",""
"","bandit","23","163927","0.0-18.0-4.0","37287774","wem/bandit_party_1","A35RTGQZ631EPC","either","6","584","","","","","","","1","0","0","0.8","","0.5","0.5","","","","","","","0.8","0.2","","","","","","","","","","","","74","J","0","img/none_selected_demo.jpg","true","0","80_20_practice",""
"","bandit","24","166302","0.0-18.0-5.0","37287774","wem/bandit_party_1","A35RTGQZ631EPC","either","6","871","","","","","","","0","1","0","","0.8","0.5","0.5","","","0.8","0.2","","","","","","","","","","","","","","","","74","J","0","img/none_selected_demo.jpg","true","0","80_20_practice",""
"","bandit","25","168269","0.0-18.0-6.0","37287774","wem/bandit_party_1","A35RTGQZ631EPC","either","6","464","","","","","","","1","0","0","0.8","","0.5","0.5","","","","","","","0.8","0.2","","","","","","","","","","","","74","J","0","img/none_selected_demo.jpg","true","0","80_20_practice",""
"","bandit","26","170262","0.0-18.0-7.0","37287774","wem/bandit_party_1","A35RTGQZ631EPC","either","6","489","","","","","","","0","1","0","","0.8","0.5","0.5","","","0.8","0.2","","","","","","","","","","","","","","","","74","J","0","img/none_selected_demo.jpg","true","0","80_20_practice",""
"","bandit","27","172358","0.0-18.0-8.0","37287774","wem/bandit_party_1","A35RTGQZ631EPC","either","6","592","","","","","","","1","0","0","0.8","","0.5","0.5","","","","","","","0.8","0.2","","","","","","","","","","","","74","J","0","img/none_selected_demo.jpg","true","0","80_20_practice",""
"","bandit","28","174230","0.0-18.0-9.0","37287774","wem/bandit_party_1","A35RTGQZ631EPC","either","6","368","","","","","","","0","0","1","","0.8","0.5","0.5","","","0.8","0.2","","","","","","","","","","","","","","","","74","J","0","img/none_selected_demo.jpg","true","0","80_20_practice",""
"","bandit","29","176285","0.0-18.0-10.0","37287774","wem/bandit_party_1","A35RTGQZ631EPC","either","6","553","","","","","","","0","1","0","","0.8","0.5","0.5","","","0.8","0.2","","","","","","","","","","","","","","","","74","J","0","img/none_selected_demo.jpg","true","0","80_20_practice",""
"","bandit","30","179709","0.0-18.0-11.0","37287774","wem/bandit_party_1","A35RTGQZ631EPC","either","6","1921","","","","","","","0","0","1","0.8","","0.5","0.5","","","","","","","0.8","0.2","","","","","","","","","","","","74","J","0","img/none_selected_demo.jpg","true","0","80_20_practice",""
"","bandit","31","182222","0.0-18.0-12.0","37287774","wem/bandit_party_1","A35RTGQZ631EPC","either","6","1009","","","","","","","0","0","1","0.8","","0.5","0.5","","","","","","","0.8","0.2","","","","","","","","","","","","74","J","0","img/none_selected_demo.jpg","true","0","80_20_practice",""
"","bandit","32","184342","0.0-18.0-13.0","37287774","wem/bandit_party_1","A35RTGQZ631EPC","either","6","616","","","","","","","1","0","0","0.8","","0.5","0.5","","","","","","","0.8","0.2","","","","","","","","","","","","74","J","0","img/none_selected_demo.jpg","true","0","80_20_practice",""
"","bandit","33","186301","0.0-18.0-14.0","37287774","wem/bandit_party_1","A35RTGQZ631EPC","either","6","456","","","","","","","0","0","1","","0.8","0.5","0.5","","","0.8","0.2","","","","","","","","","","","","","","","","74","J","0","img/none_selected_demo.jpg","true","0","80_20_practice",""
"","bandit","34","188430","0.0-18.0-15.0","37287774","wem/bandit_party_1","A35RTGQZ631EPC","either","6","625","","","","","","","0","1","0","","0.8","0.5","0.5","","","0.8","0.2","","","","","","","","","","","","","","","","74","J","0","img/none_selected_demo.jpg","true","0","80_20_practice",""
"","bandit","35","190334","0.0-18.0-16.0","37287774","wem/bandit_party_1","A35RTGQZ631EPC","either","6","400","","","","","","","1","0","0","0.8","","0.5","0.5","","","","","","","0.8","0.2","","","","","","","","","","","","74","J","0","img/none_selected_demo.jpg","true","0","80_20_practice",""
"","bandit","36","192326","0.0-18.0-17.0","37287774","wem/bandit_party_1","A35RTGQZ631EPC","either","6","488","","","","","","","0","0","1","0.8","","0.5","0.5","","","","","","","0.8","0.2","","","","","","","","","","","","74","J","0","img/none_selected_demo.jpg","true","0","80_20_practice",""
"","bandit","37","194294","0.0-18.0-18.0","37287774","wem/bandit_party_1","A35RTGQZ631EPC","either","6","465","","","","","","","0","1","0","","0.8","0.5","0.5","","","0.8","0.2","","","","","","","","","","","","","","","","74","J","0","img/none_selected_demo.jpg","true","0","80_20_practice",""
"","bandit","38","196316","0.0-18.0-19.0","37287774","wem/bandit_party_1","A35RTGQZ631EPC","either","6","520","","","","","","","1","0","0","0.8","","0.5","0.5","","","","","","","0.8","0.2","","","","","","","","","","","","74","J","0","img/none_selected_demo.jpg","true","0","80_20_practice",""
"","text-replacement","39","202519","0.0-19.0","37287774","wem/bandit_party_1","A35RTGQZ631EPC","either","6","6202","","","32","","","","","","","","","","","","","","","","","","","","","","","","","","","","","","","","","","","","",""
"","bandit","40","205637","0.0-20.0-0.0","37287774","wem/bandit_party_1","A35RTGQZ631EPC","either","6","1615","","","","","","","1","0","0","1","0","","","","","0","1","","","1","0","","","","","","","","","","","","74","J","0","img/none_selected_demo.jpg","true","0","",""
"","text-replacement","41","213151","0.0-21.0","37287774","wem/bandit_party_1","A35RTGQZ631EPC","either","6","7513","","","32","","","","","","","","","","","","","","","","","","","","","","","","","","","","","","","","","","","","",""
"","text-replacement","42","217207","0.0-22.0","37287774","wem/bandit_party_1","A35RTGQZ631EPC","either","6","4056","","","32","","","","","","","","","","","","","","","","","","","","","","","","","","","","","","","","","","","","",""
"","text-replacement","43","219671","0.0-23.0","37287774","wem/bandit_party_1","A35RTGQZ631EPC","either","6","2464","","","32","","","","","","","","","","","","","","","","","","","","","","","","","","","","","","","","","","","","",""
"","text-replacement","44","222599","0.0-24.0","37287774","wem/bandit_party_1","A35RTGQZ631EPC","either","6","2926","","","32","","","","","","","","","","","","","","","","","","","","","","","","","","","","","","","","","","","","",""
"","text-replacement","45","230455","0.0-25.0","37287774","wem/bandit_party_1","A35RTGQZ631EPC","either","6","7855","","","32","","","","","","","","","","","","","","","","","","","","","","","","","","","","","","","","","","","","",""
"","text-replacement","46","233791","0.0-26.0","37287774","wem/bandit_party_1","A35RTGQZ631EPC","either","6","3335","","","32","","","","","","","","","","","","","","","","","","","","","","","","","","","","","","","","","","","","",""
"","text-replacement","47","238047","0.0-27.0","37287774","wem/bandit_party_1","A35RTGQZ631EPC","either","6","4255","","","32","","","","","","","","","","","","","","","","","","","","","","","","","","","","","","","","","","","","",""
"","text-replacement","48","242311","0.0-28.0","37287774","wem/bandit_party_1","A35RTGQZ631EPC","either","6","4264","","","32","","","","","","","","","","","","","","","","","","","","","","","","","","","","","","","","","","","","",""
"","text-replacement","49","245959","0.0-29.0","37287774","wem/bandit_party_1","A35RTGQZ631EPC","either","6","3648","","","32","","","","","","","","","","","","","","","","","","","","","","","","","","","","","","","","","","","","",""
"","text-replacement","50","248031","0.0-30.0","37287774","wem/bandit_party_1","A35RTGQZ631EPC","either","6","2071","","","32","","","","","","","","","","","","","","","","","","","","","","","","","","","","","","","","","","","","",""
"","text-replacement","51","252504","0.0-31.0","37287774","wem/bandit_party_1","A35RTGQZ631EPC","either","6","4471","","","32","","","","","","","","","","","","","","","","","","","","","","","","","","","","","","","","","","","","",""
"","bandit","52","254701","0.0-32.0-0.0","37287774","wem/bandit_party_1","A35RTGQZ631EPC","either","6","694","","","","","","","0","1","0","","0.6","0.5","0.5","0.5","0.5","0.8","0.2","0.6","0.2","","","","","","","","","","","","","","75","K","2","","true","0","full_practice",""
"","bandit","53","256661","0.0-32.0-1.0","37287774","wem/bandit_party_1","A35RTGQZ631EPC","either","6","456","","","","","","","0","1","0","","0.6","0.5","0.5","0.5","0.5","0.8","0.2","0.6","0.2","","","","","","","","","","","","","","75","K","2","","true","0","full_practice",""
"","bandit","54","258532","0.0-32.0-2.0","37287774","wem/bandit_party_1","A35RTGQZ631EPC","either","6","369","","","","","","","0","1","0","","0.6","0.5","0.5","0.5","0.5","0.8","0.2","0.6","0.2","","","","","","","","","","","","","","75","K","2","","true","0","full_practice",""
"","bandit","55","260533","0.0-32.0-3.0","37287774","wem/bandit_party_1","A35RTGQZ631EPC","either","6","497","","","","","","","0","1","0","","0.6","0.5","0.5","0.5","0.5","0.8","0.2","0.6","0.2","","","","","","","","","","","","","","75","K","2","","true","0","full_practice",""
"","bandit","56","262429","0.0-32.0-4.0","37287774","wem/bandit_party_1","A35RTGQZ631EPC","either","6","392","","","","","","","1","0","0","0.6","","0.5","0.5","0.5","0.5","","","","","0.8","0.2","0.6","0.2","","","","","","","","","","75","K","2","","true","0","full_practice",""
"","bandit","57","264181","0.0-32.0-5.0","37287774","wem/bandit_party_1","A35RTGQZ631EPC","either","6","248","","","","","","","0","0","1","0.6","","0.5","0.5","0.5","0.5","","","","","0.8","0.2","0.6","0.2","","","","","","","","","","75","K","2","","true","0","full_practice",""
"","bandit","58","266111","0.0-32.0-6.0","37287774","wem/bandit_party_1","A35RTGQZ631EPC","either","6","427","","","","","","","0","1","0","","0.6","0.5","0.5","0.5","0.5","0.8","0.2","0.6","0.2","","","","","","","","","","","","","","75","K","2","","true","0","full_practice",""
"","bandit","59","267965","0.0-32.0-7.0","37287774","wem/bandit_party_1","A35RTGQZ631EPC","either","6","350","","","","","","","0","0","1","0.6","","0.5","0.5","0.5","0.5","","","","","0.8","0.2","0.6","0.2","","","","","","","","","","75","K","2","","true","0","full_practice",""
"","bandit","60","269837","0.0-32.0-8.0","37287774","wem/bandit_party_1","A35RTGQZ631EPC","either","6","368","","","","","","","1","0","0","0.6","","0.5","0.5","0.5","0.5","","","","","0.8","0.2","0.6","0.2","","","","","","","","","","75","K","2","","true","0","full_practice",""
"","bandit","61","271637","0.0-32.0-9.0","37287774","wem/bandit_party_1","A35RTGQZ631EPC","either","6","296","","","","","","","1","0","0","0.6","","0.5","0.5","0.5","0.5","","","","","0.8","0.2","0.6","0.2","","","","","","","","","","75","K","2","","true","0","full_practice",""
"","bandit","62","273477","0.0-32.0-10.0","37287774","wem/bandit_party_1","A35RTGQZ631EPC","either","6","336","","","","","","","0","0","1","","0.6","0.5","0.5","0.5","0.5","0.8","0.2","0.6","0.2","","","","","","","","","","","","","","75","K","2","","true","0","full_practice",""
"","bandit","63","275348","0.0-32.0-11.0","37287774","wem/bandit_party_1","A35RTGQZ631EPC","either","6","368","","","","","","","1","0","0","0.6","","0.5","0.5","0.5","0.5","","","","","0.8","0.2","0.6","0.2","","","","","","","","","","75","K","2","","true","0","full_practice",""
"","bandit","64","277183","0.0-32.0-12.0","37287774","wem/bandit_party_1","A35RTGQZ631EPC","either","6","329","","","","","","","0","1","0","","0.6","0.5","0.5","0.5","0.5","0.8","0.2","0.6","0.2","","","","","","","","","","","","","","75","K","2","","true","0","full_practice",""
"","bandit","65","278998","0.0-32.0-13.0","37287774","wem/bandit_party_1","A35RTGQZ631EPC","either","6","310","","","","","","","1","0","0","0.6","","0.5","0.5","0.5","0.5","","","","","0.8","0.2","0.6","0.2","","","","","","","","","","75","K","2","","true","0","full_practice",""
"","bandit","66","280948","0.0-32.0-14.0","37287774","wem/bandit_party_1","A35RTGQZ631EPC","either","6","448","","","","","","","0","1","0","","0.6","0.5","0.5","0.5","0.5","0.8","0.2","0.6","0.2","","","","","","","","","","","","","","75","K","2","","true","0","full_practice",""
"","bandit","67","282828","0.0-32.0-15.0","37287774","wem/bandit_party_1","A35RTGQZ631EPC","either","6","377","","","","","","","0","0","1","0.6","","0.5","0.5","0.5","0.5","","","","","0.8","0.2","0.6","0.2","","","","","","","","","","75","K","2","","true","0","full_practice",""
"","bandit","68","284748","0.0-32.0-16.0","37287774","wem/bandit_party_1","A35RTGQZ631EPC","either","6","417","","","","","","","1","0","0","0.6","","0.5","0.5","0.5","0.5","","","","","0.8","0.2","0.6","0.2","","","","","","","","","","75","K","2","","true","0","full_practice",""
"","bandit","69","286518","0.0-32.0-17.0","37287774","wem/bandit_party_1","A35RTGQZ631EPC","either","6","266","","","","","","","1","0","0","0.6","","0.5","0.5","0.5","0.5","","","","","0.8","0.2","0.6","0.2","","","","","","","","","","75","K","2","","true","0","full_practice",""
"","bandit","70","288413","0.0-32.0-18.0","37287774","wem/bandit_party_1","A35RTGQZ631EPC","either","6","392","","","","","","","0","0","1","","0.6","0.5","0.5","0.5","0.5","0.8","0.2","0.6","0.2","","","","","","","","","","","","","","75","K","2","","true","0","full_practice",""
"","bandit","71","290302","0.0-32.0-19.0","37287774","wem/bandit_party_1","A35RTGQZ631EPC","either","6","384","","","","","","","0","0","1","0.6","","0.5","0.5","0.5","0.5","","","","","0.8","0.2","0.6","0.2","","","","","","","","","","75","K","2","","true","0","full_practice",""
"","text","72","294454","0.0-33.0","37287774","wem/bandit_party_1","A35RTGQZ631EPC","either","6","4151","","","32","","","","","","","","","","","","","","","","","","","","","","","","","","","","","","","","","","","","",""
"","text-replacement","73","316974","0.0-34.0","37287774","wem/bandit_party_1","A35RTGQZ631EPC","either","6","21518","","","32","","","","","","","","","","","","","","","","","","","","","","","","","","","","","","","","","","","","",""
"","text-replacement","74","326536","0.0-35.0","37287774","wem/bandit_party_1","A35RTGQZ631EPC","either","6","9559","","","32","","","","","","","","","","","","","","","","","","","","","","","","","","","","","","","","","","","","",""
"","text-replacement","75","329614","0.0-36.0","37287774","wem/bandit_party_1","A35RTGQZ631EPC","either","6","3078","","","32","","","","","","","","","","","","","","","","","","","","","","","","","","","","","","","","","","","","",""
"","text-replacement","76","333534","0.0-37.0","37287774","wem/bandit_party_1","A35RTGQZ631EPC","either","6","3919","","","32","","","","","","","","","","","","","","","","","","","","","","","","","","","","","","","","","","","","",""
"","text-replacement","77","337790","0.0-38.0","37287774","wem/bandit_party_1","A35RTGQZ631EPC","either","6","4255","","","32","","","","","","","","","","","","","","","","","","","","","","","","","","","","","","","","","","","","",""
"","survey-multi-choice-replacement","78","344507","0.0-39.0-0.0","37287774","wem/bandit_party_1","A35RTGQZ631EPC","either","6","6714","","","","","","","","","","","","","","","","","","","","","","","","Money will be added to the pool for <span style='color:blue;'>DEMOCRATS</span>","","","","","","","attn_check","","","","","","","","","0"
"","survey-multi-choice-replacement","79","351113","0.0-40.0-0.0","37287774","wem/bandit_party_1","A35RTGQZ631EPC","either","6","5601","","","","","","","","","","","","","","","","","","","","","","","","Equal amounts of money will be added to the pool for <span style='color:blue;'>DEMOCRATS</span> and subtracted from the pool for <span style='color:red;'>REPUBLICANS</span>","","","","","","","attn_check","","","","","","","","","2"
"","survey-multi-choice-replacement","80","354272","0.0-41.0-0.0","37287774","wem/bandit_party_1","A35RTGQZ631EPC","either","6","2155","","","","","","","","","","","","","","","","","","","","","","","","No money will be added to either pool","","","","","","","attn_check","","","","","","","","","3"
"","bandit","81","359093","0.0-42.0-0.0","37287774","wem/bandit_party_1","A35RTGQZ631EPC","either","6","2315","","","","","","","0","0","1","0.1720655487","","0.6","0.4","0.2","0.8","","","","","0.1720655487","0.1734470434","0.4656478179","0.06094066238","","","","","","","","","","72","H","0","img/none_selected.jpg","","1","main_expt",""
"","bandit","82","361125","0.0-43.0-0.0","37287774","wem/bandit_party_1","A35RTGQZ631EPC","either","6","528","","","","","","","0","0","1","","0.1607886358","0.6","0.4","0.2","0.8","0.1607886358","0.1582158198","0.4661883906","0.04941180107","","","","","","","","","","","","","","72","H","0","img/none_selected.jpg","","2","main_expt",""
"","bandit","83","363340","0.0-44.0-0.0","37287774","wem/bandit_party_1","A35RTGQZ631EPC","either","6","712","","","","","","","0","0","1","0.4608397999","","0.6","0.4","0.2","0.8","","","","","0.1825924006","0.1264016625","0.4608397999","0.09066711981","","","","","","","","","","75","K","2","","","3","main_expt",""
"","bandit","84","365228","0.0-45.0-0.0","37287774","wem/bandit_party_1","A35RTGQZ631EPC","either","6","385","","","","","","","0","0","1","","0.4568511376","0.6","0.4","0.2","0.8","0.1572982515","0.1212924903","0.4568511376","0.07815644495","","","","","","","","","","","","","","75","K","2","","","4","main_expt",""
"","bandit","85","367277","0.0-46.0-0.0","37287774","wem/bandit_party_1","A35RTGQZ631EPC","either","6","545","","","","","","","0","0","1","0.1603104869","","0.6","0.4","0.2","0.8","","","","","0.1873501432","0.1603104869","0.4576747282","0.06547040057","","","","","","","","","","74","J","1","","","5","main_expt",""
"","bandit","86","369236","0.0-47.0-0.0","37287774","wem/bandit_party_1","A35RTGQZ631EPC","either","6","456","","","","","","","0","0","1","","0.1916070739","0.6","0.4","0.2","0.8","0.1484719509","0.1916070739","0.4673201091","0.09500806419","","","","","","","","","","","","","","74","J","1","","","6","main_expt",""
"","bandit","87","371125","0.0-48.0-0.0","37287774","wem/bandit_party_1","A35RTGQZ631EPC","either","6","385","","","","","","","0","0","1","0.1156714339","","0.6","0.4","0.2","0.8","","","","","0.1368680622","0.1624213819","0.4671816856","0.1156714339","","","","","","","","","","76","L","3","","","7","main_expt",""
"","bandit","88","373166","0.0-49.0-0.0","37287774","wem/bandit_party_1","A35RTGQZ631EPC","either","6","537","","","","","","","0","0","1","0.08939878806","","0.6","0.4","0.2","0.8","","","","","0.1412197478","0.1529627983","0.4577650209","0.08939878806","","","","","","","","","","76","L","3","","","8","main_expt",""
"","bandit","89","375828","0.0-50.0-0.0","37287774","wem/bandit_party_1","A35RTGQZ631EPC","either","6","1159","","","","","","","0","0","1","0.1285241668","","0.6","0.4","0.2","0.8","","","","","0.1285241668","0.1638779","0.4538037209","0.1379609943","","","","","","","","","","72","H","0","img/none_selected.jpg","","9","main_expt",""
"","bandit","90","378412","0.0-51.0-0.0","37287774","wem/bandit_party_1","A35RTGQZ631EPC","either","6","1082","","","","","","","0","0","1","","0.1682184418","0.6","0.4","0.2","0.8","0.1137500729","0.1682184418","0.4567906288","0.08892925829","","","","","","","","","","","","","","74","J","1","","","10","main_expt",""
"","bandit","91","380339","0.0-52.0-0.0","37287774","wem/bandit_party_1","A35RTGQZ631EPC","either","6","425","","","","","","","0","0","1","0.4707556997","","0.6","0.4","0.2","0.8","","","","","0.1134058804","0.1511948373","0.4707556997","0.1053961985","","","","","","","","","","75","K","2","","","11","main_expt",""
"","bandit","92","382773","0.0-53.0-0.0","37287774","wem/bandit_party_1","A35RTGQZ631EPC","either","6","930","","","","","","","0","0","1","","0.1267534428","0.6","0.4","0.2","0.8","0.1358134986","0.2144966391","0.4534589675","0.1267534428","","","","","","","","","","","","","","76","L","3","","","12","main_expt",""
"","bandit","93","386379","0.0-54.0-0.0","37287774","wem/bandit_party_1","A35RTGQZ631EPC","either","6","2103","","","","","","","0","0","1","","0.4474824422","0.6","0.4","0.2","0.8","0.1105925571","0.1443049275","0.4474824422","0.1179877152","","","","","","","","","","","","","","75","K","2","","","13","main_expt",""
"","bandit","94","389077","0.0-55.0-0.0","37287774","wem/bandit_party_1","A35RTGQZ631EPC","either","6","1194","","","","","","","0","0","1","0.149160688","","0.6","0.4","0.2","0.8","","","","","0.09057326494","0.149160688","0.4125602811","0.1300626215","","","","","","","","","","74","J","1","","","14","main_expt",""
"","bandit","95","391845","0.0-56.0-0.0","37287774","wem/bandit_party_1","A35RTGQZ631EPC","either","6","1265","","","","","","","0","0","1","0.05963436345","","0.6","0.4","0.2","0.8","","","","","0.05963436345","0.1525333278","0.3715785473","0.1129073675","","","","","","","","","","72","H","0","img/none_selected.jpg","","15","main_expt",""
"","bandit","96","394109","0.0-57.0-0.0","37287774","wem/bandit_party_1","A35RTGQZ631EPC","either","6","760","","","","","","","0","0","1","0.1132840383","","0.6","0.4","0.2","0.8","","","","","0.03970917029","0.1437253933","0.3670357029","0.1132840383","","","","","","","","","","76","L","3","","","16","main_expt",""
"","bandit","97","396323","0.0-58.0-0.0","37287774","wem/bandit_party_1","A35RTGQZ631EPC","either","6","711","","","","","","","0","1","0","","0.333794799","0.6","0.4","0.2","0.8","0.03301664506","0.1191274054","0.333794799","0.1530786807","","","","","","","","","","","","","","75","K","2","","","17","main_expt",""
"","bandit","98","398437","0.0-59.0-0.0","37287774","wem/bandit_party_1","A35RTGQZ631EPC","either","6","610","","","","","","","0","0","1","","0.3720862831","0.6","0.4","0.2","0.8","0.0325619","0.1231388663","0.3720862831","0.1367655081","","","","","","","","","","","","","","75","K","2","","","18","main_expt",""
"","bandit","99","401075","0.0-60.0-0.0","37287774","wem/bandit_party_1","A35RTGQZ631EPC","either","6","1136","","","","","","","0","0","1","0.3940248177","","0.6","0.4","0.2","0.8","","","","","0.05136562407","0.1014962652","0.3940248177","0.1519969922","","","","","","","","","","75","K","2","","","19","main_expt",""
"","bandit","100","402892","0.0-61.0-0.0","37287774","wem/bandit_party_1","A35RTGQZ631EPC","either","6","314","","","","","","","0","0","1","","0.1184271466","0.6","0.4","0.2","0.8","0.05620034239","0.1184271466","0.3980303587","0.2344823222","","","","","","","","","","","","","","74","J","1","","","20","main_expt",""
"","bandit","101","404973","0.0-62.0-0.0","37287774","wem/bandit_party_1","A35RTGQZ631EPC","either","6","577","","","","","","","0","0","1","0.1434190777","","0.6","0.4","0.2","0.8","","","","","0.04865895453","0.1434190777","0.405953395","0.2227593861","","","","","","","","","","74","J","1","","","21","main_expt",""
"","bandit","102","406823","0.0-63.0-0.0","37287774","wem/bandit_party_1","A35RTGQZ631EPC","either","6","344","","","","","","","0","0","1","0.05276066643","","0.6","0.4","0.2","0.8","","","","","0.05276066643","0.1323354157","0.37898799","0.1831098024","","","","","","","","","","72","H","0","img/none_selected.jpg","","22","main_expt",""
"","bandit","103","409068","0.0-64.0-0.0","37287774","wem/bandit_party_1","A35RTGQZ631EPC","either","6","742","","","","","","","0","0","1","","0.05284133488","0.6","0.4","0.2","0.8","0.05284133488","0.1384191998","0.3661255489","0.1660310818","","","","","","","","","","","","","","72","H","0","img/none_selected.jpg","","23","main_expt",""
"","bandit","104","410876","0.0-65.0-0.0","37287774","wem/bandit_party_1","A35RTGQZ631EPC","either","6","304","","","","","","","0","0","1","0.1400827643","","0.6","0.4","0.2","0.8","","","","","0.0333904923","0.1395593146","0.3576379461","0.1400827643","","","","","","","","","","76","L","3","","","24","main_expt",""
"","bandit","105","413117","0.0-66.0-0.0","37287774","wem/bandit_party_1","A35RTGQZ631EPC","either","6","737","","","","","","","0","0","1","0.2022937807","","0.6","0.4","0.2","0.8","","","","","0.04666446392","0.1696236693","0.3346121782","0.2022937807","","","","","","","","","","76","L","3","","","25","main_expt",""
"","bandit","106","414940","0.0-67.0-0.0","37287774","wem/bandit_party_1","A35RTGQZ631EPC","either","6","320","","","","","","","0","0","1","0.3790434843","","0.6","0.4","0.2","0.8","","","","","0.04067930801","0.1754084838","0.3790434843","0.1725383963","","","","","","","","","","75","K","2","","","26","main_expt",""
"","bandit","107","416901","0.0-68.0-0.0","37287774","wem/bandit_party_1","A35RTGQZ631EPC","either","6","456","","","","","","","0","1","0","","0.3744762435","0.6","0.4","0.2","0.8","0.03070036018","0.118483546","0.3744762435","0.1735642386","","","","","","","","","","","","","","75","K","2","","","27","main_expt",""
"","bandit","108","418900","0.0-69.0-0.0","37287774","wem/bandit_party_1","A35RTGQZ631EPC","either","6","496","","","","","","","0","0","1","","0.3650769418","0.6","0.4","0.2","0.8","0.02292460278","0.1259847853","0.3650769418","0.149532802","","","","","","","","","","","","","","75","K","2","","","28","main_expt",""
"","bandit","109","420685","0.0-70.0-0.0","37287774","wem/bandit_party_1","A35RTGQZ631EPC","either","6","280","","","","","","","0","1","0","","0.3299345172","0.6","0.4","0.2","0.8","0.03476379039","0.1072727049","0.3299345172","0.1597785082","","","","","","","","","","","","","","75","K","2","","","29","main_expt",""
"","bandit","110","422572","0.0-71.0-0.0","37287774","wem/bandit_party_1","A35RTGQZ631EPC","either","6","383","","","","","","","0","1","0","","0.3010095271","0.6","0.4","0.2","0.8","0.04211589453","0.07952930744","0.3010095271","0.1978771271","","","","","","","","","","","","","","75","K","2","","","30","main_expt",""
"","bandit","111","424413","0.0-72.0-0.0","37287774","wem/bandit_party_1","A35RTGQZ631EPC","either","6","337","","","","","","","0","1","0","","0.331530841","0.6","0.4","0.2","0.8","0.04495483672","0.09691030242","0.331530841","0.1928768267","","","","","","","","","","","","","","75","K","2","","","31","main_expt",""
"","bandit","112","426333","0.0-73.0-0.0","37287774","wem/bandit_party_1","A35RTGQZ631EPC","either","6","416","","","","","","","0","0","1","","0.3469043085","0.6","0.4","0.2","0.8","0.04126869591","0.1338720944","0.3469043085","0.1511047494","","","","","","","","","","","","","","75","K","2","","","32","main_expt",""
"","bandit","113","428165","0.0-74.0-0.0","37287774","wem/bandit_party_1","A35RTGQZ631EPC","either","6","328","","","","","","","0","0","1","","0.2778139242","0.6","0.4","0.2","0.8","0.02396570111","0.1428203538","0.2778139242","0.09247049486","","","","","","","","","","","","","","75","K","2","","","33","main_expt",""
"","bandit","114","429974","0.0-75.0-0.0","37287774","wem/bandit_party_1","A35RTGQZ631EPC","either","6","303","","","","","","","0","0","1","","0.236883459","0.6","0.4","0.2","0.8","0.03561151332","0.1258169527","0.236883459","0.1127946788","","","","","","","","","","","","","","75","K","2","","","34","main_expt",""
"","bandit","115","431845","0.0-76.0-0.0","37287774","wem/bandit_party_1","A35RTGQZ631EPC","either","6","366","","","","","","","0","0","1","","0.1652362889","0.6","0.4","0.2","0.8","0.04565222073","0.1652362889","0.2656196476","0.1279928094","","","","","","","","","","","","","","74","J","1","","","35","main_expt",""
"","bandit","116","433708","0.0-77.0-0.0","37287774","wem/bandit_party_1","A35RTGQZ631EPC","either","6","359","","","","","","","0","0","1","0.1472348388","","0.6","0.4","0.2","0.8","","","","","0.05036449293","0.1472348388","0.2309028503","0.09285608896","","","","","","","","","","74","J","1","","","36","main_expt",""
"","bandit","117","435524","0.0-78.0-0.0","37287774","wem/bandit_party_1","A35RTGQZ631EPC","either","6","312","","","","","","","0","0","1","0.04764774511","","0.6","0.4","0.2","0.8","","","","","0.04764774511","0.20581188","0.1961267878","0.1251507517","","","","","","","","","","72","H","0","img/none_selected.jpg","","37","main_expt",""
"","bandit","118","437404","0.0-79.0-0.0","37287774","wem/bandit_party_1","A35RTGQZ631EPC","either","6","376","","","","","","","0","0","1","0.04692466818","","0.6","0.4","0.2","0.8","","","","","0.04692466818","0.2096070571","0.2197692452","0.1248439258","","","","","","","","","","72","H","0","img/none_selected.jpg","","38","main_expt",""
"","bandit","119","439252","0.0-80.0-0.0","37287774","wem/bandit_party_1","A35RTGQZ631EPC","either","6","345","","","","","","","1","0","0","0.1192858938","","0.6","0.4","0.2","0.8","","","","","0.06150360576","0.1888903691","0.1783178102","0.1192858938","","","","","","","","","","76","L","3","","","39","main_expt",""
"","bandit","120","441147","0.0-81.0-0.0","37287774","wem/bandit_party_1","A35RTGQZ631EPC","either","6","392","","","","","","","1","0","0","0.1457630933","","0.6","0.4","0.2","0.8","","","","","0.1025324214","0.1769314034","0.1354267005","0.1457630933","","","","","","","","","","76","L","3","","","40","main_expt",""
"","bandit","121","443124","0.0-82.0-0.0","37287774","wem/bandit_party_1","A35RTGQZ631EPC","either","6","473","","","","","","","0","0","1","","0.1788887836","0.6","0.4","0.2","0.8","0.1278282258","0.1764673912","0.1307301687","0.1788887836","","","","","","","","","","","","","","76","L","3","","","41","main_expt",""
"","bandit","122","444955","0.0-83.0-0.0","37287774","wem/bandit_party_1","A35RTGQZ631EPC","either","6","328","","","","","","","0","0","1","0.1550439797","","0.6","0.4","0.2","0.8","","","","","0.1144783829","0.1164002711","0.1002459791","0.1550439797","","","","","","","","","","76","L","3","","","42","main_expt",""
"","bandit","123","446805","0.0-84.0-0.0","37287774","wem/bandit_party_1","A35RTGQZ631EPC","either","6","345","","","","","","","0","0","1","0.1624336935","","0.6","0.4","0.2","0.8","","","","","0.148274456","0.1248357276","0.06131682752","0.1624336935","","","","","","","","","","76","L","3","","","43","main_expt",""
"","bandit","124","448653","0.0-85.0-0.0","37287774","wem/bandit_party_1","A35RTGQZ631EPC","either","6","343","","","","","","","0","0","1","0.1801883524","","0.6","0.4","0.2","0.8","","","","","0.1733993608","0.1801883524","0.05757194937","0.2610419313","","","","","","","","","","74","J","1","","","44","main_expt",""
"","bandit","125","451364","0.0-86.0-0.0","37287774","wem/bandit_party_1","A35RTGQZ631EPC","either","6","1206","","","","","","","0","0","1","","0.1731137141","0.6","0.4","0.2","0.8","0.1731137141","0.1536252234","0.06317169253","0.2547096211","","","","","","","","","","","","","","72","H","0","img/none_selected.jpg","","45","main_expt",""
"","bandit","126","453124","0.0-87.0-0.0","37287774","wem/bandit_party_1","A35RTGQZ631EPC","either","6","256","","","","","","","0","0","1","","0.08604650327","0.6","0.4","0.2","0.8","0.2577534017","0.1453657368","0.08604650327","0.2690630982","","","","","","","","","","","","","","75","K","2","","","46","main_expt",""
"","bandit","127","454956","0.0-88.0-0.0","37287774","wem/bandit_party_1","A35RTGQZ631EPC","either","6","328","","","","","","","0","0","1","","0.1163474927","0.6","0.4","0.2","0.8","0.2436059896","0.1163474927","0.07503215105","0.2613787364","","","","","","","","","","","","","","74","J","1","","","47","main_expt",""
"","bandit","128","456748","0.0-89.0-0.0","37287774","wem/bandit_party_1","A35RTGQZ631EPC","either","6","288","","","","","","","0","0","1","0.261356988","","0.6","0.4","0.2","0.8","","","","","0.261356988","0.1187671899","0.09661626413","0.2764851171","","","","","","","","","","72","H","0","img/none_selected.jpg","","48","main_expt",""
"","bandit","129","458507","0.0-90.0-0.0","37287774","wem/bandit_party_1","A35RTGQZ631EPC","either","6","254","","","","","","","0","0","1","","0.141419135","0.6","0.4","0.2","0.8","0.2707362224","0.1321787199","0.141419135","0.2628846066","","","","","","","","","","","","","","75","K","2","","","49","main_expt",""
"","bandit","130","460355","0.0-91.0-0.0","37287774","wem/bandit_party_1","A35RTGQZ631EPC","either","6","344","","","","","","","0","0","1","0.3634831931","","0.6","0.4","0.2","0.8","","","","","0.2733601765","0.1310663867","0.1341637883","0.3634831931","","","","","","","","","","76","L","3","","","50","main_expt",""
"","bandit","131","462181","0.0-92.0-0.0","37287774","wem/bandit_party_1","A35RTGQZ631EPC","either","6","321","","","","","","","0","0","1","","0.3771608335","0.6","0.4","0.2","0.8","0.2590969561","0.1450472339","0.1225974466","0.3771608335","","","","","","","","","","","","","","76","L","3","","","51","main_expt",""
"","bandit","132","463948","0.0-93.0-0.0","37287774","wem/bandit_party_1","A35RTGQZ631EPC","either","6","263","","","","","","","1","0","0","0.1731775471","","0.6","0.4","0.2","0.8","","","","","0.2515646212","0.1731775471","0.1145468474","0.3093307572","","","","","","","","","","74","J","1","","","52","main_expt",""
"","bandit","133","465773","0.0-94.0-0.0","37287774","wem/bandit_party_1","A35RTGQZ631EPC","either","6","321","","","","","","","1","0","0","0.2258016315","","0.6","0.4","0.2","0.8","","","","","0.2257746054","0.2258016315","0.1059564611","0.2990929044","","","","","","","","","","74","J","1","","","53","main_expt",""
"","bandit","134","467622","0.0-95.0-0.0","37287774","wem/bandit_party_1","A35RTGQZ631EPC","either","6","343","","","","","","","0","0","1","","0.2172527187","0.6","0.4","0.2","0.8","0.2750925763","0.2172527187","0.1090017536","0.2221679908","","","","","","","","","","","","","","74","J","1","","","54","main_expt",""
"","bandit","135","469492","0.0-96.0-0.0","37287774","wem/bandit_party_1","A35RTGQZ631EPC","either","6","366","","","","","","","0","0","1","0.1652356872","","0.6","0.4","0.2","0.8","","","","","0.3608357377","0.1652356872","0.1249444004","0.1886471815","","","","","","","","","","74","J","1","","","55","main_expt",""
"","bandit","136","471221","0.0-97.0-0.0","37287774","wem/bandit_party_1","A35RTGQZ631EPC","either","6","224","","","","","","","0","0","1","0.1576418272","","0.6","0.4","0.2","0.8","","","","","0.4022545085","0.1576418272","0.09043885587","0.1973213641","","","","","","","","","","74","J","1","","","56","main_expt",""
"","bandit","137","472988","0.0-98.0-0.0","37287774","wem/bandit_party_1","A35RTGQZ631EPC","either","6","263","","","","","","","0","0","1","","0.3867568464","0.6","0.4","0.2","0.8","0.3867568464","0.180776926","0.07448640425","0.2207101474","","","","","","","","","","","","","","72","H","0","img/none_selected.jpg","","57","main_expt",""
"","bandit","138","474781","0.0-99.0-0.0","37287774","wem/bandit_party_1","A35RTGQZ631EPC","either","6","287","","","","","","","0","0","1","0.3840355114","","0.6","0.4","0.2","0.8","","","","","0.3840355114","0.1489081552","0.09808879237","0.2480089655","","","","","","","","","","72","H","0","img/none_selected.jpg","","58","main_expt",""
"","bandit","139","476645","0.0-100.0-0.0","37287774","wem/bandit_party_1","A35RTGQZ631EPC","either","6","359","","","","","","","0","0","1","","0.0721355853","0.6","0.4","0.2","0.8","0.3617876187","0.125555473","0.0721355853","0.2667579505","","","","","","","","","","","","","","75","K","2","","","59","main_expt",""
"","bandit","140","478492","0.0-101.0-0.0","37287774","wem/bandit_party_1","A35RTGQZ631EPC","either","6","343","","","","","","","0","0","1","","0.08871326978","0.6","0.4","0.2","0.8","0.3018070945","0.1228814318","0.08871326978","0.2637313595","","","","","","","","","","","","","","75","K","2","","","60","main_expt",""
"","bandit","141","480293","0.0-102.0-0.0","37287774","wem/bandit_party_1","A35RTGQZ631EPC","either","6","296","","","","","","","0","0","1","0.2400462537","","0.6","0.4","0.2","0.8","","","","","0.2687465691","0.195834737","0.1472383223","0.2400462537","","","","","","","","","","76","L","3","","","61","main_expt",""
"","bandit","142","482084","0.0-103.0-0.0","37287774","wem/bandit_party_1","A35RTGQZ631EPC","either","6","287","","","","","","","0","0","1","0.2396546157","","0.6","0.4","0.2","0.8","","","","","0.287622952","0.1952904108","0.1625866577","0.2396546157","","","","","","","","","","76","L","3","","","62","main_expt",""
"","bandit","143","483644","0.0-104.0-0.0","37287774","wem/bandit_party_1","A35RTGQZ631EPC","either","6","56","","","","","","","0","0","1","","0.187392073","0.6","0.4","0.2","0.8","0.2060093557","0.187392073","0.1196153378","0.2558687718","","","","","","","","","","","","","","74","J","1","","","63","main_expt",""
"","bandit","144","485406","0.0-105.0-0.0","37287774","wem/bandit_party_1","A35RTGQZ631EPC","either","6","256","","","","","","","0","0","1","","0.1774517964","0.6","0.4","0.2","0.8","0.1865830226","0.1774517964","0.1025290435","0.1789331692","","","","","","","","","","","","","","74","J","1","","","64","main_expt",""
"","bandit","145","487117","0.0-106.0-0.0","37287774","wem/bandit_party_1","A35RTGQZ631EPC","either","6","206","","","","","","","0","0","1","","0.2242960511","0.6","0.4","0.2","0.8","0.2242960511","0.1956590225","0.06637487434","0.2041721298","","","","","","","","","","","","","","72","H","0","img/none_selected.jpg","","65","main_expt",""
"","bandit","146","488868","0.0-107.0-0.0","37287774","wem/bandit_party_1","A35RTGQZ631EPC","either","6","247","","","","","","","0","0","1","0.213739571","","0.6","0.4","0.2","0.8","","","","","0.213739571","0.1559932489","0.09888809835","0.1083731131","","","","","","","","","","72","H","0","img/none_selected.jpg","","66","main_expt",""
"","bandit","147","490652","0.0-108.0-0.0","37287774","wem/bandit_party_1","A35RTGQZ631EPC","either","6","280","","","","","","","0","0","1","","0.08542348091","0.6","0.4","0.2","0.8","0.2463093088","0.1327283285","0.08542348091","0.08148965902","","","","","","","","","","","","","","75","K","2","","","67","main_expt",""
"","bandit","148","492485","0.0-109.0-0.0","37287774","wem/bandit_party_1","A35RTGQZ631EPC","either","6","328","","","","","","","0","0","1","","0.05648132023","0.6","0.4","0.2","0.8","0.1863602012","0.1646421129","0.05648132023","0.115871946","","","","","","","","","","","","","","75","K","2","","","68","main_expt",""
"","bandit","149","494084","0.0-110.0-0.0","37287774","wem/bandit_party_1","A35RTGQZ631EPC","either","6","94","","","","","","","0","0","1","0.1049465522","","0.6","0.4","0.2","0.8","","","","","0.1481768435","0.1879918005","0.07427448495","0.1049465522","","","","","","","","","","76","L","3","","","69","main_expt",""
"","bandit","150","495803","0.0-111.0-0.0","37287774","wem/bandit_party_1","A35RTGQZ631EPC","either","6","216","","","","","","","1","0","0","0.1224614501","","0.6","0.4","0.2","0.8","","","","","0.2062415021","0.1708527721","0.1052870039","0.1224614501","","","","","","","","","","76","L","3","","","70","main_expt",""
"","bandit","151","497595","0.0-112.0-0.0","37287774","wem/bandit_party_1","A35RTGQZ631EPC","either","6","288","","","","","","","0","0","1","0.1687358413","","0.6","0.4","0.2","0.8","","","","","0.2175562698","0.1930923514","0.1114501371","0.1687358413","","","","","","","","","","76","L","3","","","71","main_expt",""
"","bandit","152","499467","0.0-113.0-0.0","37287774","wem/bandit_party_1","A35RTGQZ631EPC","either","6","369","","","","","","","0","0","1","0.1902964731","","0.6","0.4","0.2","0.8","","","","","0.2182173038","0.2289396243","0.1282799478","0.1902964731","","","","","","","","","","76","L","3","","","72","main_expt",""
"","bandit","153","501357","0.0-114.0-0.0","37287774","wem/bandit_party_1","A35RTGQZ631EPC","either","6","385","","","","","","","0","0","1","","0.1764690901","0.6","0.4","0.2","0.8","0.1629952044","0.2223781067","0.1113050996","0.1764690901","","","","","","","","","","","","","","76","L","3","","","73","main_expt",""
"","bandit","154","505349","0.0-115.0-0.0","37287774","wem/bandit_party_1","A35RTGQZ631EPC","either","6","2487","","","","","","","0","0","1","","0.1664819569","0.6","0.4","0.2","0.8","0.2291178652","0.1664819569","0.1573287606","0.1720288853","","","","","","","","","","","","","","74","J","1","","","74","main_expt",""
"","bandit","155","507188","0.0-116.0-0.0","37287774","wem/bandit_party_1","A35RTGQZ631EPC","either","6","335","","","","","","","0","0","1","","0.1157276324","0.6","0.4","0.2","0.8","0.2087405931","0.1157276324","0.168318459","0.098780463","","","","","","","","","","","","","","74","J","1","","","75","main_expt",""
"","bandit","156","509036","0.0-117.0-0.0","37287774","wem/bandit_party_1","A35RTGQZ631EPC","either","6","344","","","","","","","0","0","1","0.1981976751","","0.6","0.4","0.2","0.8","","","","","0.1981976751","0.06912044911","0.131742089","0.08192786134","","","","","","","","","","72","H","0","img/none_selected.jpg","","76","main_expt",""
"","bandit","157","510653","0.0-118.0-0.0","37287774","wem/bandit_party_1","A35RTGQZ631EPC","either","6","112","","","","","","","0","0","1","0.2302368041","","0.6","0.4","0.2","0.8","","","","","0.2302368041","0.06151132513","0.1382621175","0.03620126105","","","","","","","","","","72","H","0","img/none_selected.jpg","","77","main_expt",""
"","bandit","158","512371","0.0-119.0-0.0","37287774","wem/bandit_party_1","A35RTGQZ631EPC","either","6","215","","","","","","","0","0","1","","0.1351161864","0.6","0.4","0.2","0.8","0.2538269909","0.08824794056","0.1351161864","0.03362754592","","","","","","","","","","","","","","75","K","2","","","78","main_expt",""
"","bandit","159","514076","0.0-120.0-0.0","37287774","wem/bandit_party_1","A35RTGQZ631EPC","either","6","201","","","","","","","0","0","1","","0.1125986002","0.6","0.4","0.2","0.8","0.221492582","0.08425003046","0.1125986002","0.03917851348","","","","","","","","","","","","","","75","K","2","","","79","main_expt",""
"","bandit","160","515955","0.0-121.0-0.0","37287774","wem/bandit_party_1","A35RTGQZ631EPC","either","6","376","","","","","","","0","0","1","","0.1059393704","0.6","0.4","0.2","0.8","0.2126184008","0.1059393704","0.1071358869","0.06916691586","","","","","","","","","","","","","","74","J","1","","","80","main_expt",""
"","bandit","161","517716","0.0-122.0-0.0","37287774","wem/bandit_party_1","A35RTGQZ631EPC","either","6","257","","","","","","","0","0","1","","0.114990546","0.6","0.4","0.2","0.8","0.1803612399","0.114990546","0.1410751298","0.1110223174","","","","","","","","","","","","","","74","J","1","","","81","main_expt",""
"","bandit","162","519556","0.0-123.0-0.0","37287774","wem/bandit_party_1","A35RTGQZ631EPC","either","6","336","","","","","","","0","0","1","","0.1883980103","0.6","0.4","0.2","0.8","0.1883980103","0.1246300745","0.1518454263","0.08899533144","","","","","","","","","","","","","","72","H","0","img/none_selected.jpg","","82","main_expt",""
"","bandit","163","521436","0.0-124.0-0.0","37287774","wem/bandit_party_1","A35RTGQZ631EPC","either","6","376","","","","","","","0","0","1","0.2099895667","","0.6","0.4","0.2","0.8","","","","","0.2099895667","0.1523433176","0.1285150734","0.1383499545","","","","","","","","","","72","H","0","img/none_selected.jpg","","83","main_expt",""
"","bandit","164","523189","0.0-125.0-0.0","37287774","wem/bandit_party_1","A35RTGQZ631EPC","either","6","247","","","","","","","0","0","1","","0.1083679187","0.6","0.4","0.2","0.8","0.1760666055","0.1230513595","0.1083679187","0.1815119679","","","","","","","","","","","","","","75","K","2","","","84","main_expt",""
"","bandit","165","524931","0.0-126.0-0.0","37287774","wem/bandit_party_1","A35RTGQZ631EPC","either","6","239","","","","","","","0","0","1","0.08985983991","","0.6","0.4","0.2","0.8","","","","","0.2077415988","0.1460595132","0.08985983991","0.2121304898","","","","","","","","","","75","K","2","","","85","main_expt",""
"","bandit","166","526675","0.0-127.0-0.0","37287774","wem/bandit_party_1","A35RTGQZ631EPC","either","6","241","","","","","","","0","0","1","0.1931166697","","0.6","0.4","0.2","0.8","","","","","0.1940704576","0.1578730034","0.08377758623","0.1931166697","","","","","","","","","","76","L","3","","","86","main_expt",""
"","bandit","167","528421","0.0-128.0-0.0","37287774","wem/bandit_party_1","A35RTGQZ631EPC","either","6","241","","","","","","","0","0","1","","0.1908876969","0.6","0.4","0.2","0.8","0.1920524506","0.1329566931","0.08340742779","0.1908876969","","","","","","","","","","","","","","76","L","3","","","87","main_expt",""
"","bandit","168","530204","0.0-129.0-0.0","37287774","wem/bandit_party_1","A35RTGQZ631EPC","either","6","279","","","","","","","0","0","1","0.1727332377","","0.6","0.4","0.2","0.8","","","","","0.2525081946","0.1156353122","0.06937011617","0.1727332377","","","","","","","","","","76","L","3","","","88","main_expt",""
"","bandit","169","532179","0.0-130.0-0.0","37287774","wem/bandit_party_1","A35RTGQZ631EPC","either","6","472","","","","","","","0","0","1","","0.08556693901","0.6","0.4","0.2","0.8","0.2476280913","0.1169245856","0.08556693901","0.1747664758","","","","","","","","","","","","","","75","K","2","","","89","main_expt",""
"","bandit","170","533972","0.0-131.0-0.0","37287774","wem/bandit_party_1","A35RTGQZ631EPC","either","6","289","","","","","","","0","0","1","","0.1013294801","0.6","0.4","0.2","0.8","0.2476417222","0.1276927611","0.1013294801","0.1302891894","","","","","","","","","","","","","","75","K","2","","","90","main_expt",""
"","bandit","171","535724","0.0-132.0-0.0","37287774","wem/bandit_party_1","A35RTGQZ631EPC","either","6","248","","","","","","","0","0","1","","0.1567130635","0.6","0.4","0.2","0.8","0.1875867431","0.1633868825","0.1567130635","0.1143331172","","","","","","","","","","","","","","75","K","2","","","91","main_expt",""
"","bandit","172","537524","0.0-133.0-0.0","37287774","wem/bandit_party_1","A35RTGQZ631EPC","either","6","295","","","","","","","0","0","1","","0.2172033847","0.6","0.4","0.2","0.8","0.1804963823","0.2172033847","0.1214255195","0.1674068059","","","","","","","","","","","","","","74","J","1","","","92","main_expt",""
"","bandit","173","539131","0.0-134.0-0.0","37287774","wem/bandit_party_1","A35RTGQZ631EPC","either","6","104","","","","","","","0","0","1","","0.2178255547","0.6","0.4","0.2","0.8","0.1468121695","0.2178255547","0.1317465968","0.1405005834","","","","","","","","","","","","","","74","J","1","","","93","main_expt",""
"","bandit","174","540748","0.0-135.0-0.0","37287774","wem/bandit_party_1","A35RTGQZ631EPC","either","6","113","","","","","","","0","0","1","","0.2058786334","0.6","0.4","0.2","0.8","0.1270151289","0.2058786334","0.1810196293","0.1338278818","","","","","","","","","","","","","","74","J","1","","","94","main_expt",""
"","bandit","175","542621","0.0-136.0-0.0","37287774","wem/bandit_party_1","A35RTGQZ631EPC","either","6","368","","","","","","","0","0","1","0.1049494322","","0.6","0.4","0.2","0.8","","","","","0.1049494322","0.2009860572","0.1537803575","0.16416917","","","","","","","","","","72","H","0","img/none_selected.jpg","","95","main_expt",""
"","bandit","176","546980","0.0-137.0-0.0","37287774","wem/bandit_party_1","A35RTGQZ631EPC","either","6","2855","","","","","","","1","0","0","0.1075549125","","0.6","0.4","0.2","0.8","","","","","0.1242023773","0.2792576191","0.2255368078","0.1075549125","","","","","","","","","","76","L","3","","","96","main_expt",""
"","bandit","177","548922","0.0-138.0-0.0","37287774","wem/bandit_party_1","A35RTGQZ631EPC","either","6","439","","","","","","","0","0","1","0.07285617598","","0.6","0.4","0.2","0.8","","","","","0.101802889","0.291042229","0.1881791955","0.07285617598","","","","","","","","","","76","L","3","","","97","main_expt",""
"","bandit","178","550732","0.0-139.0-0.0","37287774","wem/bandit_party_1","A35RTGQZ631EPC","either","6","306","","","","","","","0","0","1","0.1128802937","","0.6","0.4","0.2","0.8","","","","","0.08559904752","0.2919937097","0.1722186849","0.1128802937","","","","","","","","","","76","L","3","","","98","main_expt",""
"","bandit","179","552556","0.0-140.0-0.0","37287774","wem/bandit_party_1","A35RTGQZ631EPC","either","6","319","","","","","","","1","0","0","0.07338875894","","0.6","0.4","0.2","0.8","","","","","0.04480153982","0.338066437","0.2581810796","0.07338875894","","","","","","","","","","76","L","3","","","99","main_expt",""
"","bandit","180","554380","0.0-141.0-0.0","37287774","wem/bandit_party_1","A35RTGQZ631EPC","either","6","320","","","","","","","0","0","1","","0.06256672301","0.6","0.4","0.2","0.8","0.03694367041","0.3466775547","0.3094702251","0.06256672301","","","","","","","","","","","","","","76","L","3","","","100","main_expt",""
"","bandit","181","556228","0.0-142.0-0.0","37287774","wem/bandit_party_1","A35RTGQZ631EPC","either","6","344","","","","","","","0","0","1","0.06765033746","","0.6","0.4","0.2","0.8","","","","","0.02534596886","0.3776837944","0.3217449289","0.06765033746","","","","","","","","","","76","L","3","","","101","main_expt",""
"","bandit","182","558028","0.0-143.0-0.0","37287774","wem/bandit_party_1","A35RTGQZ631EPC","either","6","296","","","","","","","0","0","1","0.08460413752","","0.6","0.4","0.2","0.8","","","","","0.03456503798","0.3988278911","0.3656493725","0.08460413752","","","","","","","","","","76","L","3","","","102","main_expt",""
"","bandit","183","559877","0.0-144.0-0.0","37287774","wem/bandit_party_1","A35RTGQZ631EPC","either","6","344","","","","","","","0","1","0","","0.4097417878","0.6","0.4","0.2","0.8","0.03116272615","0.3642388176","0.4097417878","0.1149622558","","","","","","","","","","","","","","75","K","2","","","103","main_expt",""
"","bandit","184","561707","0.0-145.0-0.0","37287774","wem/bandit_party_1","A35RTGQZ631EPC","either","6","327","","","","","","","0","0","1","","0.4005896235","0.6","0.4","0.2","0.8","0.04034009898","0.3059376685","0.4005896235","0.1223821921","","","","","","","","","","","","","","75","K","2","","","104","main_expt",""
"","bandit","185","563523","0.0-146.0-0.0","37287774","wem/bandit_party_1","A35RTGQZ631EPC","either","6","313","","","","","","","0","0","1","","0.3967946647","0.6","0.4","0.2","0.8","0.06132200156","0.2658022239","0.3967946647","0.1302837569","","","","","","","","","","","","","","75","K","2","","","105","main_expt",""
"","bandit","186","565323","0.0-147.0-0.0","37287774","wem/bandit_party_1","A35RTGQZ631EPC","either","6","297","","","","","","","0","0","1","","0.3920329447","0.6","0.4","0.2","0.8","0.03171667797","0.2583534607","0.3920329447","0.1405927316","","","","","","","","","","","","","","75","K","2","","","106","main_expt",""
"","bandit","187","567092","0.0-148.0-0.0","37287774","wem/bandit_party_1","A35RTGQZ631EPC","either","6","265","","","","","","","0","0","1","0.2402432731","","0.6","0.4","0.2","0.8","","","","","0.06603394544","0.2402432731","0.3973329777","0.1835021143","","","","","","","","","","74","J","1","","","107","main_expt",""
"","bandit","188","568924","0.0-149.0-0.0","37287774","wem/bandit_party_1","A35RTGQZ631EPC","either","6","327","","","","","","","0","0","1","","0.08137973005","0.6","0.4","0.2","0.8","0.08137973005","0.2364509509","0.3839010997","0.2124513917","","","","","","","","","","","","","","72","H","0","img/none_selected.jpg","","108","main_expt",""
"","bandit","189","570748","0.0-150.0-0.0","37287774","wem/bandit_party_1","A35RTGQZ631EPC","either","6","320","","","","","","","0","0","1","0.218007314","","0.6","0.4","0.2","0.8","","","","","0.04765661509","0.2164051194","0.3879107289","0.218007314","","","","","","","","","","76","L","3","","","109","main_expt",""
"","bandit","190","572540","0.0-151.0-0.0","37287774","wem/bandit_party_1","A35RTGQZ631EPC","either","6","288","","","","","","","0","0","1","0.3989855113","","0.6","0.4","0.2","0.8","","","","","0.06789381979","0.1611838666","0.3989855113","0.229469423","","","","","","","","","","75","K","2","","","110","main_expt",""
"","bandit","191","574292","0.0-152.0-0.0","37287774","wem/bandit_party_1","A35RTGQZ631EPC","either","6","248","","","","","","","0","1","0","","0.2042622235","0.6","0.4","0.2","0.8","0.08972795074","0.2042622235","0.3959495959","0.2923436213","","","","","","","","","","","","","","74","J","1","","","111","main_expt",""
"","bandit","192","576411","0.0-153.0-0.0","37287774","wem/bandit_party_1","A35RTGQZ631EPC","either","6","616","","","","","","","1","0","0","0.2113733305","","0.6","0.4","0.2","0.8","","","","","0.1176683061","0.2113733305","0.335596647","0.2778802509","","","","","","","","","","74","J","1","","","112","main_expt",""
"","bandit","193","578365","0.0-154.0-0.0","37287774","wem/bandit_party_1","A35RTGQZ631EPC","either","6","448","","","","","","","0","0","1","","0.220236308","0.6","0.4","0.2","0.8","0.1973953549","0.220236308","0.2876347753","0.2852166322","","","","","","","","","","","","","","74","J","1","","","113","main_expt",""
"","bandit","194","580195","0.0-155.0-0.0","37287774","wem/bandit_party_1","A35RTGQZ631EPC","either","6","326","","","","","","","0","0","1","0.2453392608","","0.6","0.4","0.2","0.8","","","","","0.200840576","0.2453392608","0.2811359795","0.3222351196","","","","","","","","","","74","J","1","","","114","main_expt",""
"","bandit","195","581981","0.0-156.0-0.0","37287774","wem/bandit_party_1","A35RTGQZ631EPC","either","6","280","","","","","","","0","0","1","0.2311931225","","0.6","0.4","0.2","0.8","","","","","0.2544006126","0.2311931225","0.2056035349","0.2865303103","","","","","","","","","","74","J","1","","","115","main_expt",""
"","bandit","196","583844","0.0-157.0-0.0","37287774","wem/bandit_party_1","A35RTGQZ631EPC","either","6","358","","","","","","","0","0","1","","0.2264812366","0.6","0.4","0.2","0.8","0.2264812366","0.2290532582","0.2435386161","0.1901772154","","","","","","","","","","","","","","72","H","0","img/none_selected.jpg","","116","main_expt",""
"","bandit","197","585899","0.0-158.0-0.0","37287774","wem/bandit_party_1","A35RTGQZ631EPC","either","6","551","","","","","","","0","0","1","0.1854727963","","0.6","0.4","0.2","0.8","","","","","0.2535822563","0.2610634121","0.2523066444","0.1854727963","","","","","","","","","","76","L","3","","","117","main_expt",""
"","bandit","198","587636","0.0-159.0-0.0","37287774","wem/bandit_party_1","A35RTGQZ631EPC","either","6","229","","","","","","","0","0","1","","0.258758296","0.6","0.4","0.2","0.8","0.288462609","0.2915584027","0.258758296","0.223078523","","","","","","","","","","","","","","75","K","2","","","118","main_expt",""
"","bandit","199","589436","0.0-160.0-0.0","37287774","wem/bandit_party_1","A35RTGQZ631EPC","either","6","296","","","","","","","0","0","1","0.3240034744","","0.6","0.4","0.2","0.8","","","","","0.3077733757","0.3240034744","0.2513882557","0.2157898803","","","","","","","","","","74","J","1","","","119","main_expt",""
"","bandit","200","591084","0.0-161.0-0.0","37287774","wem/bandit_party_1","A35RTGQZ631EPC","either","6","144","","","","","","","1","0","0","0.3470363664","","0.6","0.4","0.2","0.8","","","","","0.3470363664","0.3584552205","0.2178230887","0.2055853597","","","","","","","","","","72","H","0","img/none_selected.jpg","","120","main_expt",""
"","bandit","201","593349","0.0-162.0-0.0","37287774","wem/bandit_party_1","A35RTGQZ631EPC","either","6","760","","","","","","","0","0","1","0.36369082","","0.6","0.4","0.2","0.8","","","","","0.36369082","0.3392259721","0.2249913612","0.2308362602","","","","","","","","","","72","H","0","img/none_selected.jpg","","121","main_expt",""
"","bandit","202","595148","0.0-163.0-0.0","37287774","wem/bandit_party_1","A35RTGQZ631EPC","either","6","294","","","","","","","0","0","1","0.3740977319","","0.6","0.4","0.2","0.8","","","","","0.3740977319","0.3211990091","0.2135386538","0.1858821776","","","","","","","","","","72","H","0","img/none_selected.jpg","","122","main_expt",""
"","bandit","203","596931","0.0-164.0-0.0","37287774","wem/bandit_party_1","A35RTGQZ631EPC","either","6","279","","","","","","","0","1","0","","0.1948645322","0.6","0.4","0.2","0.8","0.3617230251","0.3082515077","0.2742148462","0.1948645322","","","","","","","","","","","","","","76","L","3","","","123","main_expt",""
"","bandit","204","598819","0.0-165.0-0.0","37287774","wem/bandit_party_1","A35RTGQZ631EPC","either","6","384","","","","","","","0","0","1","0.1875433284","","0.6","0.4","0.2","0.8","","","","","0.3189133642","0.3337980485","0.3092488957","0.1875433284","","","","","","","","","","76","L","3","","","124","main_expt",""
"","bandit","205","600628","0.0-166.0-0.0","37287774","wem/bandit_party_1","A35RTGQZ631EPC","either","6","303","","","","","","","1","0","0","0.1805360773","","0.6","0.4","0.2","0.8","","","","","0.3134342975","0.2815584253","0.2832498899","0.1805360773","","","","","","","","","","76","L","3","","","125","main_expt",""
"","bandit","206","602442","0.0-167.0-0.0","37287774","wem/bandit_party_1","A35RTGQZ631EPC","either","6","312","","","","","","","1","0","0","0.2199741614","","0.6","0.4","0.2","0.8","","","","","0.2889117865","0.2544389989","0.321902755","0.2199741614","","","","","","","","","","76","L","3","","","126","main_expt",""
"","bandit","207","604251","0.0-168.0-0.0","37287774","wem/bandit_party_1","A35RTGQZ631EPC","either","6","305","","","","","","","1","0","0","0.212963778","","0.6","0.4","0.2","0.8","","","","","0.3101500906","0.217883989","0.3163630435","0.212963778","","","","","","","","","","76","L","3","","","127","main_expt",""
"","bandit","208","606028","0.0-169.0-0.0","37287774","wem/bandit_party_1","A35RTGQZ631EPC","either","6","272","","","","","","","0","0","1","0.1853882534","","0.6","0.4","0.2","0.8","","","","","0.3257933697","0.1941215274","0.3242789072","0.1853882534","","","","","","","","","","76","L","3","","","128","main_expt",""
"","bandit","209","607828","0.0-170.0-0.0","37287774","wem/bandit_party_1","A35RTGQZ631EPC","either","6","295","","","","","","","0","0","1","0.1486900389","","0.6","0.4","0.2","0.8","","","","","0.2767822115","0.2093197904","0.3430844202","0.1486900389","","","","","","","","","","76","L","3","","","129","main_expt",""
"","bandit","210","609596","0.0-171.0-0.0","37287774","wem/bandit_party_1","A35RTGQZ631EPC","either","6","264","","","","","","","0","0","1","","0.3487272729","0.6","0.4","0.2","0.8","0.3389859305","0.2325895014","0.3487272729","0.1581202816","","","","","","","","","","","","","","75","K","2","","","130","main_expt",""
"","bandit","211","611316","0.0-172.0-0.0","37287774","wem/bandit_party_1","A35RTGQZ631EPC","either","6","216","","","","","","","0","0","1","0.2680880231","","0.6","0.4","0.2","0.8","","","","","0.2807576759","0.2680880231","0.3850752379","0.1189605486","","","","","","","","","","74","J","1","","","131","main_expt",""
"","bandit","212","613100","0.0-173.0-0.0","37287774","wem/bandit_party_1","A35RTGQZ631EPC","either","6","279","","","","","","","0","0","1","","0.2044414959","0.6","0.4","0.2","0.8","0.2044414959","0.2053564998","0.3547422913","0.08638656351","","","","","","","","","","","","","","72","H","0","img/none_selected.jpg","","132","main_expt",""
"","bandit","213","614859","0.0-174.0-0.0","37287774","wem/bandit_party_1","A35RTGQZ631EPC","either","6","256","","","","","","","0","0","1","0.104542274","","0.6","0.4","0.2","0.8","","","","","0.2352631215","0.2102644512","0.3256782816","0.104542274","","","","","","","","","","76","L","3","","","133","main_expt",""
"","bandit","214","616588","0.0-175.0-0.0","37287774","wem/bandit_party_1","A35RTGQZ631EPC","either","6","225","","","","","","","0","0","1","0.2479378245","","0.6","0.4","0.2","0.8","","","","","0.2808822736","0.2028105977","0.2479378245","0.1401790922","","","","","","","","","","75","K","2","","","134","main_expt",""
"","bandit","215","618323","0.0-176.0-0.0","37287774","wem/bandit_party_1","A35RTGQZ631EPC","either","6","231","","","","","","","0","0","1","","0.1556880781","0.6","0.4","0.2","0.8","0.3053704558","0.1556880781","0.24301602","0.1818128853","","","","","","","","","","","","","","74","J","1","","","135","main_expt",""
"","bandit","216","619988","0.0-177.0-0.0","37287774","wem/bandit_party_1","A35RTGQZ631EPC","either","6","161","","","","","","","0","0","1","","0.3140058771","0.6","0.4","0.2","0.8","0.3140058771","0.1428421262","0.2630427063","0.1583738081","","","","","","","","","","","","","","72","H","0","img/none_selected.jpg","","136","main_expt",""
"","bandit","217","621788","0.0-178.0-0.0","37287774","wem/bandit_party_1","A35RTGQZ631EPC","either","6","295","","","","","","","0","1","0","","0.1497920091","0.6","0.4","0.2","0.8","0.323699752","0.1039390038","0.3053425806","0.1497920091","","","","","","","","","","","","","","76","L","3","","","137","main_expt",""
"","bandit","218","623572","0.0-179.0-0.0","37287774","wem/bandit_party_1","A35RTGQZ631EPC","either","6","279","","","","","","","0","0","1","0.1128601551","","0.6","0.4","0.2","0.8","","","","","0.3435108126","0.07132433681","0.3588623722","0.1128601551","","","","","","","","","","76","L","3","","","138","main_expt",""
"","bandit","219","625467","0.0-180.0-0.0","37287774","wem/bandit_party_1","A35RTGQZ631EPC","either","6","391","","","","","","","0","0","1","0.1073604677","","0.6","0.4","0.2","0.8","","","","","0.3505637202","0.1047165976","0.2762704672","0.1073604677","","","","","","","","","","76","L","3","","","139","main_expt",""
"","bandit","220","627116","0.0-181.0-0.0","37287774","wem/bandit_party_1","A35RTGQZ631EPC","either","6","143","","","","","","","0","0","1","","0.2475753012","0.6","0.4","0.2","0.8","0.4185251601","0.09043849554","0.2475753012","0.1376710563","","","","","","","","","","","","","","75","K","2","","","140","main_expt",""
"","bandit","221","628988","0.0-182.0-0.0","37287774","wem/bandit_party_1","A35RTGQZ631EPC","either","6","367","","","","","","","0","0","1","0.05096505815","","0.6","0.4","0.2","0.8","","","","","0.4225289085","0.05096505815","0.2436306075","0.1412662962","","","","","","","","","","74","J","1","","","141","main_expt",""
"","bandit","222","630747","0.0-183.0-0.0","37287774","wem/bandit_party_1","A35RTGQZ631EPC","either","6","256","","","","","","","0","0","1","","0.455259632","0.6","0.4","0.2","0.8","0.455259632","0.02973759478","0.1998899021","0.1543424817","","","","","","","","","","","","","","72","H","0","img/none_selected.jpg","","142","main_expt",""
"","bandit","223","632589","0.0-184.0-0.0","37287774","wem/bandit_party_1","A35RTGQZ631EPC","either","6","337","","","","","","","0","0","1","","0.1552636118","0.6","0.4","0.2","0.8","0.4287003803","0.04457260366","0.2568100034","0.1552636118","","","","","","","","","","","","","","76","L","3","","","143","main_expt",""
"","bandit","224","634243","0.0-185.0-0.0","37287774","wem/bandit_party_1","A35RTGQZ631EPC","either","6","151","","","","","","","0","1","0","","0.2859833531","0.6","0.4","0.2","0.8","0.4260506414","0.04060115041","0.2859833531","0.2241753426","","","","","","","","","","","","","","75","K","2","","","144","main_expt",""
"","bandit","225","635827","0.0-186.0-0.0","37287774","wem/bandit_party_1","A35RTGQZ631EPC","either","6","80","","","","","","","0","0","1","","0.2080640158","0.6","0.4","0.2","0.8","0.4202170594","0.06712401514","0.2080640158","0.2484131349","","","","","","","","","","","","","","75","K","2","","","145","main_expt",""
"","bandit","226","637620","0.0-187.0-0.0","37287774","wem/bandit_party_1","A35RTGQZ631EPC","either","6","287","","","","","","","0","0","1","","0.2469639643","0.6","0.4","0.2","0.8","0.4333226383","0.08780921534","0.2469639643","0.2905032103","","","","","","","","","","","","","","75","K","2","","","146","main_expt",""
"","bandit","227","639444","0.0-188.0-0.0","37287774","wem/bandit_party_1","A35RTGQZ631EPC","either","6","319","","","","","","","0","0","1","","0.1333368233","0.6","0.4","0.2","0.8","0.4340954059","0.1333368233","0.2169279296","0.2846703457","","","","","","","","","","","","","","74","J","1","","","147","main_expt",""
"","bandit","228","641300","0.0-189.0-0.0","37287774","wem/bandit_party_1","A35RTGQZ631EPC","either","6","351","","","","","","","0","0","1","0.3903754431","","0.6","0.4","0.2","0.8","","","","","0.3903754431","0.09264147873","0.1248284812","0.3010433131","","","","","","","","","","72","H","0","img/none_selected.jpg","","148","main_expt",""
"","bandit","229","643100","0.0-190.0-0.0","37287774","wem/bandit_party_1","A35RTGQZ631EPC","either","6","295","","","","","","","1","0","0","0.3421268102","","0.6","0.4","0.2","0.8","","","","","0.4161192262","0.123708687","0.1498862571","0.3421268102","","","","","","","","","","76","L","3","","","149","main_expt",""
"","bandit","230","644908","0.0-191.0-0.0","37287774","wem/bandit_party_1","A35RTGQZ631EPC","either","6","303","","","","","","","0","0","1","0.3382865341","","0.6","0.4","0.2","0.8","","","","","0.4545257836","0.1087811601","0.2044632824","0.3382865341","","","","","","","","","","76","L","3","","","150","main_expt",""
"","bandit","231","646748","0.0-192.0-0.0","37287774","wem/bandit_party_1","A35RTGQZ631EPC","either","6","335","","","","","","","0","0","1","","0.1630699797","0.6","0.4","0.2","0.8","0.4553704948","0.1640336927","0.1630699797","0.3031951358","","","","","","","","","","","","","","75","K","2","","","151","main_expt",""
"","bandit","232","649467","0.0-193.0-0.0","37287774","wem/bandit_party_1","A35RTGQZ631EPC","either","6","1214","","","","","","","0","0","1","","0.1474195158","0.6","0.4","0.2","0.8","0.4692720684","0.1474195158","0.1534962237","0.3163498213","","","","","","","","","","","","","","74","J","1","","","152","main_expt",""
"","bandit","233","651683","0.0-194.0-0.0","37287774","wem/bandit_party_1","A35RTGQZ631EPC","either","6","712","","","","","","","0","1","0","","0.4794448159","0.6","0.4","0.2","0.8","0.4794448159","0.1200421148","0.1506701345","0.3205280093","","","","","","","","","","","","","","72","H","0","img/none_selected.jpg","","153","main_expt",""
"","bandit","234","653460","0.0-195.0-0.0","37287774","wem/bandit_party_1","A35RTGQZ631EPC","either","6","272","","","","","","","0","1","0","","0.4762011242","0.6","0.4","0.2","0.8","0.4762011242","0.1295208369","0.1810992197","0.2780981807","","","","","","","","","","","","","","72","H","0","img/none_selected.jpg","","154","main_expt",""
"","bandit","235","655269","0.0-196.0-0.0","37287774","wem/bandit_party_1","A35RTGQZ631EPC","either","6","303","","","","","","","0","0","1","","0.4797315341","0.6","0.4","0.2","0.8","0.4797315341","0.1189574303","0.2574031695","0.2543788853","","","","","","","","","","","","","","72","H","0","img/none_selected.jpg","","155","main_expt",""
"","bandit","236","657156","0.0-197.0-0.0","37287774","wem/bandit_party_1","A35RTGQZ631EPC","either","6","382","","","","","","","0","0","1","0.4815153028","","0.6","0.4","0.2","0.8","","","","","0.4815153028","0.1511338071","0.1838662476","0.2601772157","","","","","","","","","","72","H","0","img/none_selected.jpg","","156","main_expt",""
"","bandit","237","658948","0.0-198.0-0.0","37287774","wem/bandit_party_1","A35RTGQZ631EPC","either","6","287","","","","","","","0","0","1","","0.27050514","0.6","0.4","0.2","0.8","0.4769669351","0.1494559257","0.1951262555","0.27050514","","","","","","","","","","","","","","76","L","3","","","157","main_expt",""
"","bandit","238","660796","0.0-199.0-0.0","37287774","wem/bandit_party_1","A35RTGQZ631EPC","either","6","343","","","","","","","0","0","1","0.1711173681","","0.6","0.4","0.2","0.8","","","","","0.4819637572","0.1398300683","0.1711173681","0.2912044809","","","","","","","","","","75","K","2","","","158","main_expt",""
"","bandit","239","662794","0.0-200.0-0.0","37287774","wem/bandit_party_1","A35RTGQZ631EPC","either","6","495","","","","","","","0","0","1","","0.1482700517","0.6","0.4","0.2","0.8","0.4802617926","0.1482700517","0.1262927185","0.2863852675","","","","","","","","","","","","","","74","J","1","","","159","main_expt",""
"","bandit","240","664572","0.0-201.0-0.0","37287774","wem/bandit_party_1","A35RTGQZ631EPC","either","6","272","","","","","","","0","0","1","","0.4834703177","0.6","0.4","0.2","0.8","0.4834703177","0.1327856751","0.1289005464","0.3188379944","","","","","","","","","","","","","","72","H","0","img/none_selected.jpg","","160","main_expt",""
"","bandit","241","666412","0.0-202.0-0.0","37287774","wem/bandit_party_1","A35RTGQZ631EPC","either","6","335","","","","","","","1","0","0","0.3918259889","","0.6","0.4","0.2","0.8","","","","","0.4783639554","0.1936248495","0.07062595825","0.3918259889","","","","","","","","","","76","L","3","","","161","main_expt",""
"","bandit","242","668325","0.0-203.0-0.0","37287774","wem/bandit_party_1","A35RTGQZ631EPC","either","6","407","","","","","","","0","0","1","0.3825352776","","0.6","0.4","0.2","0.8","","","","","0.4702379588","0.1917288119","0.08554885259","0.3825352776","","","","","","","","","","76","L","3","","","162","main_expt",""
"","bandit","243","670132","0.0-204.0-0.0","37287774","wem/bandit_party_1","A35RTGQZ631EPC","either","6","301","","","","","","","0","0","1","0.3500114378","","0.6","0.4","0.2","0.8","","","","","0.4761999765","0.2410074379","0.05790820845","0.3500114378","","","","","","","","","","76","L","3","","","163","main_expt",""
"","bandit","244","672051","0.0-205.0-0.0","37287774","wem/bandit_party_1","A35RTGQZ631EPC","either","6","415","","","","","","","0","1","0","","0.04744410613","0.6","0.4","0.2","0.8","0.4683988395","0.2717164652","0.04744410613","0.3138306729","","","","","","","","","","","","","","75","K","2","","","164","main_expt",""
"","bandit","245","673957","0.0-206.0-0.0","37287774","wem/bandit_party_1","A35RTGQZ631EPC","either","6","399","","","","","","","0","0","1","","0.07721988326","0.6","0.4","0.2","0.8","0.4594806004","0.3360488911","0.07721988326","0.3066591237","","","","","","","","","","","","","","75","K","2","","","165","main_expt",""
"","bandit","246","675756","0.0-207.0-0.0","37287774","wem/bandit_party_1","A35RTGQZ631EPC","either","6","292","","","","","","","0","0","1","","0.09276645858","0.6","0.4","0.2","0.8","0.4769271284","0.3288768439","0.09276645858","0.359337808","","","","","","","","","","","","","","75","K","2","","","166","main_expt",""
"","bandit","247","677507","0.0-208.0-0.0","37287774","wem/bandit_party_1","A35RTGQZ631EPC","either","6","247","","","","","","","1","0","0","0.341079324","","0.6","0.4","0.2","0.8","","","","","0.4824675089","0.341079324","0.1092251717","0.3888119778","","","","","","","","","","74","J","1","","","167","main_expt",""
"","bandit","248","679274","0.0-209.0-0.0","37287774","wem/bandit_party_1","A35RTGQZ631EPC","either","6","264","","","","","","","0","0","1","0.2972081376","","0.6","0.4","0.2","0.8","","","","","0.4731218304","0.2972081376","0.09704797424","0.3188253523","","","","","","","","","","74","J","1","","","168","main_expt",""
"","bandit","249","681084","0.0-210.0-0.0","37287774","wem/bandit_party_1","A35RTGQZ631EPC","either","6","304","","","","","","","0","0","1","","0.2716537329","0.6","0.4","0.2","0.8","0.4558692975","0.2716537329","0.1131958007","0.3035082617","","","","","","","","","","","","","","74","J","1","","","169","main_expt",""
"","bandit","250","682843","0.0-211.0-0.0","37287774","wem/bandit_party_1","A35RTGQZ631EPC","either","6","254","","","","","","","0","0","1","","0.424927817","0.6","0.4","0.2","0.8","0.424927817","0.3705489528","0.1636150477","0.3540810543","","","","","","","","","","","","","","72","H","0","img/none_selected.jpg","","170","main_expt",""
"","bandit","251","684634","0.0-212.0-0.0","37287774","wem/bandit_party_1","A35RTGQZ631EPC","either","6","288","","","","","","","0","0","1","0.2912941695","","0.6","0.4","0.2","0.8","","","","","0.4254050478","0.3259531709","0.1889182236","0.2912941695","","","","","","","","","","76","L","3","","","171","main_expt",""
"","bandit","252","686491","0.0-213.0-0.0","37287774","wem/bandit_party_1","A35RTGQZ631EPC","either","6","353","","","","","","","0","0","1","0.1494540944","","0.6","0.4","0.2","0.8","","","","","0.4319935488","0.3253578443","0.1494540944","0.2964718019","","","","","","","","","","75","K","2","","","172","main_expt",""
"","bandit","253","688291","0.0-214.0-0.0","37287774","wem/bandit_party_1","A35RTGQZ631EPC","either","6","295","","","","","","","0","0","1","","0.3133285256","0.6","0.4","0.2","0.8","0.4157756128","0.3133285256","0.1700291406","0.2411205861","","","","","","","","","","","","","","74","J","1","","","173","main_expt",""
"","bandit","254","690057","0.0-215.0-0.0","37287774","wem/bandit_party_1","A35RTGQZ631EPC","either","6","264","","","","","","","0","0","1","","0.3650518631","0.6","0.4","0.2","0.8","0.3650518631","0.3470844982","0.2007600912","0.2132737127","","","","","","","","","","","","","","72","H","0","img/none_selected.jpg","","174","main_expt",""
"","bandit","255","691860","0.0-216.0-0.0","37287774","wem/bandit_party_1","A35RTGQZ631EPC","either","6","297","","","","","","","0","0","1","0.2722172758","","0.6","0.4","0.2","0.8","","","","","0.3583375904","0.3615725976","0.1613291475","0.2722172758","","","","","","","","","","76","L","3","","","175","main_expt",""
"","bandit","256","693635","0.0-217.0-0.0","37287774","wem/bandit_party_1","A35RTGQZ631EPC","either","6","271","","","","","","","0","0","1","","0.1618540135","0.6","0.4","0.2","0.8","0.3849487833","0.3592449917","0.1618540135","0.3158297255","","","","","","","","","","","","","","75","K","2","","","176","main_expt",""
"","bandit","257","695371","0.0-218.0-0.0","37287774","wem/bandit_party_1","A35RTGQZ631EPC","either","6","231","","","","","","","1","0","0","0.3614776984","","0.6","0.4","0.2","0.8","","","","","0.3741193846","0.3614776984","0.1337509382","0.3033070912","","","","","","","","","","74","J","1","","","177","main_expt",""
"","bandit","258","697163","0.0-219.0-0.0","37287774","wem/bandit_party_1","A35RTGQZ631EPC","either","6","287","","","","","","","0","1","0","","0.4042649322","0.6","0.4","0.2","0.8","0.3704436283","0.4042649322","0.172909152","0.3070990366","","","","","","","","","","","","","","74","J","1","","","178","main_expt",""
"","bandit","259","699076","0.0-220.0-0.0","37287774","wem/bandit_party_1","A35RTGQZ631EPC","either","6","408","","","","","","","0","1","0","","0.3626499081","0.6","0.4","0.2","0.8","0.3718647044","0.3626499081","0.2306318455","0.349206168","","","","","","","","","","","","","","74","J","1","","","179","main_expt",""
"","bandit","260","700947","0.0-221.0-0.0","37287774","wem/bandit_party_1","A35RTGQZ631EPC","either","6","367","","","","","","","0","0","1","0.365831292","","0.6","0.4","0.2","0.8","","","","","0.3144845341","0.365831292","0.2531752843","0.3533593609","","","","","","","","","","74","J","1","","","180","main_expt",""
"","bandit","261","702747","0.0-222.0-0.0","37287774","wem/bandit_party_1","A35RTGQZ631EPC","either","6","295","","","","","","","0","0","1","0.3720079561","","0.6","0.4","0.2","0.8","","","","","0.3328992573","0.3720079561","0.2995137733","0.3792633926","","","","","","","","","","74","J","1","","","181","main_expt",""
"","bandit","262","704627","0.0-223.0-0.0","37287774","wem/bandit_party_1","A35RTGQZ631EPC","either","6","375","","","","","","","1","0","0","0.3443004049","","0.6","0.4","0.2","0.8","","","","","0.3443004049","0.3747751333","0.2818604164","0.4170401524","","","","","","","","","","72","H","0","img/none_selected.jpg","","182","main_expt",""
"","bandit","263","706499","0.0-224.0-0.0","37287774","wem/bandit_party_1","A35RTGQZ631EPC","either","6","367","","","","","","","0","1","0","","0.3572445505","0.6","0.4","0.2","0.8","0.3572445505","0.3772869326","0.2706787236","0.4349898381","","","","","","","","","","","","","","72","H","0","img/none_selected.jpg","","183","main_expt",""
"","bandit","264","708339","0.0-225.0-0.0","37287774","wem/bandit_party_1","A35RTGQZ631EPC","either","6","335","","","","","","","0","0","1","0.358140682","","0.6","0.4","0.2","0.8","","","","","0.358140682","0.3719200221","0.2788381055","0.4355724899","","","","","","","","","","72","H","0","img/none_selected.jpg","","184","main_expt",""
"","bandit","265","710219","0.0-226.0-0.0","37287774","wem/bandit_party_1","A35RTGQZ631EPC","either","6","376","","","","","","","1","0","0","0.2938856532","","0.6","0.4","0.2","0.8","","","","","0.2938856532","0.3759280431","0.2591604306","0.443517249","","","","","","","","","","72","H","0","img/none_selected.jpg","","185","main_expt",""
"","bandit","266","712211","0.0-227.0-0.0","37287774","wem/bandit_party_1","A35RTGQZ631EPC","either","6","488","","","","","","","0","0","1","","0.2570442146","0.6","0.4","0.2","0.8","0.2570442146","0.3686405037","0.1717283936","0.4185550765","","","","","","","","","","","","","","72","H","0","img/none_selected.jpg","","186","main_expt",""
"","bandit","267","714044","0.0-228.0-0.0","37287774","wem/bandit_party_1","A35RTGQZ631EPC","either","6","327","","","","","","","0","0","1","0.2781151114","","0.6","0.4","0.2","0.8","","","","","0.2781151114","0.3693778387","0.1399016055","0.4582246802","","","","","","","","","","72","H","0","img/none_selected.jpg","","187","main_expt",""
"","bandit","268","715794","0.0-229.0-0.0","37287774","wem/bandit_party_1","A35RTGQZ631EPC","either","6","247","","","","","","","0","0","1","0.4499637214","","0.6","0.4","0.2","0.8","","","","","0.2510368257","0.3858781765","0.116743447","0.4499637214","","","","","","","","","","76","L","3","","","188","main_expt",""
"","bandit","269","718466","0.0-230.0-0.0","37287774","wem/bandit_party_1","A35RTGQZ631EPC","either","6","1168","","","","","","","0","0","1","","0.09810356538","0.6","0.4","0.2","0.8","0.2299291889","0.353665234","0.09810356538","0.4681283031","","","","","","","","","","","","","","75","K","2","","","189","main_expt",""
"","bandit","270","720227","0.0-231.0-0.0","37287774","wem/bandit_party_1","A35RTGQZ631EPC","either","6","257","","","","","","","0","1","0","","0.3702546744","0.6","0.4","0.2","0.8","0.2957770397","0.3702546744","0.1333212727","0.4672384316","","","","","","","","","","","","","","74","J","1","","","190","main_expt",""
"","bandit","271","722060","0.0-232.0-0.0","37287774","wem/bandit_party_1","A35RTGQZ631EPC","either","6","326","","","","","","","0","0","1","0.3373283559","","0.6","0.4","0.2","0.8","","","","","0.2806998676","0.3373283559","0.07289491444","0.4633056668","","","","","","","","","","74","J","1","","","191","main_expt",""
"","bandit","272","723884","0.0-233.0-0.0","37287774","wem/bandit_party_1","A35RTGQZ631EPC","either","6","319","","","","","","","0","1","0","","0.3717228864","0.6","0.4","0.2","0.8","0.2578649702","0.3717228864","0.09060717316","0.4701423021","","","","","","","","","","","","","","74","J","1","","","192","main_expt",""
"","bandit","273","725723","0.0-234.0-0.0","37287774","wem/bandit_party_1","A35RTGQZ631EPC","either","6","335","","","","","","","0","0","1","0.3861484819","","0.6","0.4","0.2","0.8","","","","","0.3019093773","0.3861484819","0.1038106097","0.4625827917","","","","","","","","","","74","J","1","","","193","main_expt",""
"","bandit","274","727540","0.0-235.0-0.0","37287774","wem/bandit_party_1","A35RTGQZ631EPC","either","6","311","","","","","","","0","1","0","","0.3884838939","0.6","0.4","0.2","0.8","0.3028603149","0.3884838939","0.1222204007","0.4480064119","","","","","","","","","","","","","","74","J","1","","","194","main_expt",""
"","bandit","275","729338","0.0-236.0-0.0","37287774","wem/bandit_party_1","A35RTGQZ631EPC","either","6","295","","","","","","","0","0","1","0.4058549971","","0.6","0.4","0.2","0.8","","","","","0.2933095063","0.4058549971","0.1230179676","0.4263193963","","","","","","","","","","74","J","1","","","195","main_expt",""
"","bandit","276","731108","0.0-237.0-0.0","37287774","wem/bandit_party_1","A35RTGQZ631EPC","either","6","264","","","","","","","0","0","1","","0.3894648227","0.6","0.4","0.2","0.8","0.3333663608","0.3894648227","0.1972068901","0.4399191733","","","","","","","","","","","","","","74","J","1","","","196","main_expt",""
"","bandit","277","732922","0.0-238.0-0.0","37287774","wem/bandit_party_1","A35RTGQZ631EPC","either","6","310","","","","","","","0","0","1","0.3472763543","","0.6","0.4","0.2","0.8","","","","","0.3472763543","0.3452919481","0.2091218652","0.4303685687","","","","","","","","","","72","H","0","img/none_selected.jpg","","197","main_expt",""
"","bandit","278","734698","0.0-239.0-0.0","37287774","wem/bandit_party_1","A35RTGQZ631EPC","either","6","272","","","","","","","0","1","0","","0.4166638701","0.6","0.4","0.2","0.8","0.3420385624","0.3571156804","0.2316117542","0.4166638701","","","","","","","","","","","","","","76","L","3","","","198","main_expt",""
"","bandit","279","736603","0.0-240.0-0.0","37287774","wem/bandit_party_1","A35RTGQZ631EPC","either","6","401","","","","","","","0","1","0","","0.4166192342","0.6","0.4","0.2","0.8","0.3009927129","0.3761278261","0.1983173389","0.4166192342","","","","","","","","","","","","","","76","L","3","","","199","main_expt",""
"","bandit","280","738418","0.0-241.0-0.0","37287774","wem/bandit_party_1","A35RTGQZ631EPC","either","6","311","","","","","","","0","0","1","0.4065109498","","0.6","0.4","0.2","0.8","","","","","0.2834367318","0.3623939384","0.2275108597","0.4065109498","","","","","","","","","","76","L","3","","","200","main_expt",""
"","bandit","281","740299","0.0-242.0-0.0","37287774","wem/bandit_party_1","A35RTGQZ631EPC","either","6","376","","","","","","","0","0","1","","0.4210367682","0.6","0.4","0.2","0.8","0.2305195973","0.3470966653","0.2753755663","0.4210367682","","","","","","","","","","","","","","76","L","3","","","201","main_expt",""
"","bandit","282","742074","0.0-243.0-0.0","37287774","wem/bandit_party_1","A35RTGQZ631EPC","either","6","271","","","","","","","0","0","1","","0.2867984519","0.6","0.4","0.2","0.8","0.236439039","0.3738670455","0.2867984519","0.4059774394","","","","","","","","","","","","","","75","K","2","","","202","main_expt",""
"","bandit","283","743834","0.0-244.0-0.0","37287774","wem/bandit_party_1","A35RTGQZ631EPC","either","6","256","","","","","","","0","0","1","0.4434414113","","0.6","0.4","0.2","0.8","","","","","0.207292508","0.4434414113","0.227681123","0.4217634448","","","","","","","","","","74","J","1","","","203","main_expt",""
"","bandit","284","745660","0.0-245.0-0.0","37287774","wem/bandit_party_1","A35RTGQZ631EPC","either","6","320","","","","","","","1","0","0","0.2706274655","","0.6","0.4","0.2","0.8","","","","","0.2706274655","0.4363530878","0.2421814767","0.417590799","","","","","","","","","","72","H","0","img/none_selected.jpg","","204","main_expt",""
"","bandit","285","747507","0.0-246.0-0.0","37287774","wem/bandit_party_1","A35RTGQZ631EPC","either","6","339","","","","","","","1","0","0","0.2688171721","","0.6","0.4","0.2","0.8","","","","","0.2688171721","0.4390009565","0.2250127273","0.3892328218","","","","","","","","","","72","H","0","img/none_selected.jpg","","205","main_expt",""
"","bandit","286","749275","0.0-247.0-0.0","37287774","wem/bandit_party_1","A35RTGQZ631EPC","either","6","263","","","","","","","0","0","1","","0.2774640617","0.6","0.4","0.2","0.8","0.2774640617","0.4606838579","0.2148063869","0.3877758809","","","","","","","","","","","","","","72","H","0","img/none_selected.jpg","","206","main_expt",""
"","bandit","287","751083","0.0-248.0-0.0","37287774","wem/bandit_party_1","A35RTGQZ631EPC","either","6","304","","","","","","","0","0","1","0.31303597","","0.6","0.4","0.2","0.8","","","","","0.31303597","0.4679198071","0.2370073307","0.3344078408","","","","","","","","","","72","H","0","img/none_selected.jpg","","207","main_expt",""
"","bandit","288","752916","0.0-249.0-0.0","37287774","wem/bandit_party_1","A35RTGQZ631EPC","either","6","327","","","","","","","0","0","1","0.3285414067","","0.6","0.4","0.2","0.8","","","","","0.3187850143","0.4731710197","0.1736764344","0.3285414067","","","","","","","","","","76","L","3","","","208","main_expt",""
"","bandit","289","754587","0.0-250.0-0.0","37287774","wem/bandit_party_1","A35RTGQZ631EPC","either","6","166","","","","","","","0","0","1","","0.2033963155","0.6","0.4","0.2","0.8","0.3031297305","0.472507437","0.2033963155","0.337659841","","","","","","","","","","","","","","75","K","2","","","209","main_expt",""
"","bandit","290","756363","0.0-251.0-0.0","37287774","wem/bandit_party_1","A35RTGQZ631EPC","either","6","271","","","","","","","0","0","1","0.4759946166","","0.6","0.4","0.2","0.8","","","","","0.3593083662","0.4759946166","0.1849029676","0.322880172","","","","","","","","","","74","J","1","","","210","main_expt",""
"","bandit","291","758138","0.0-252.0-0.0","37287774","wem/bandit_party_1","A35RTGQZ631EPC","either","6","271","","","","","","","0","1","0","","0.3758292662","0.6","0.4","0.2","0.8","0.3758292662","0.4838002785","0.08033524441","0.3440981268","","","","","","","","","","","","","","72","H","0","img/none_selected.jpg","","211","main_expt",""
"","bandit","292","759914","0.0-253.0-0.0","37287774","wem/bandit_party_1","A35RTGQZ631EPC","either","6","272","","","","","","","0","0","1","0.3771764803","","0.6","0.4","0.2","0.8","","","","","0.3771764803","0.4871609062","0.1024936548","0.3135232579","","","","","","","","","","72","H","0","img/none_selected.jpg","","212","main_expt",""
"","bandit","293","761771","0.0-254.0-0.0","37287774","wem/bandit_party_1","A35RTGQZ631EPC","either","6","352","","","","","","","0","0","1","0.3935517348","","0.6","0.4","0.2","0.8","","","","","0.3935517348","0.4829725273","0.1380366818","0.328558382","","","","","","","","","","72","H","0","img/none_selected.jpg","","213","main_expt",""
"","bandit","294","763571","0.0-255.0-0.0","37287774","wem/bandit_party_1","A35RTGQZ631EPC","either","6","295","","","","","","","0","0","1","","0.3024402918","0.6","0.4","0.2","0.8","0.3792377037","0.4742933803","0.1206441992","0.3024402918","","","","","","","","","","","","","","76","L","3","","","214","main_expt",""
"","bandit","295","765371","0.0-256.0-0.0","37287774","wem/bandit_party_1","A35RTGQZ631EPC","either","6","295","","","","","","","0","0","1","","0.1320715796","0.6","0.4","0.2","0.8","0.3364308411","0.4754417465","0.1320715796","0.3024001881","","","","","","","","","","","","","","75","K","2","","","215","main_expt",""
"","bandit","296","767075","0.0-257.0-0.0","37287774","wem/bandit_party_1","A35RTGQZ631EPC","either","6","200","","","","","","","1","0","0","0.4764866221","","0.6","0.4","0.2","0.8","","","","","0.3348871659","0.4764866221","0.1152906885","0.2975117226","","","","","","","","","","74","J","1","","","216","main_expt",""
"","bandit","297","768858","0.0-258.0-0.0","37287774","wem/bandit_party_1","A35RTGQZ631EPC","either","6","279","","","","","","","0","0","1","0.4727866334","","0.6","0.4","0.2","0.8","","","","","0.321293363","0.4727866334","0.1191406027","0.3331298207","","","","","","","","","","74","J","1","","","217","main_expt",""
"","bandit","298","770633","0.0-259.0-0.0","37287774","wem/bandit_party_1","A35RTGQZ631EPC","either","6","272","","","","","","","1","0","0","0.4664653133","","0.6","0.4","0.2","0.8","","","","","0.3530973922","0.4664653133","0.1177717736","0.2905667849","","","","","","","","","","74","J","1","","","218","main_expt",""
"","bandit","299","772426","0.0-260.0-0.0","37287774","wem/bandit_party_1","A35RTGQZ631EPC","either","6","288","","","","","","","0","0","1","","0.4636837267","0.6","0.4","0.2","0.8","0.3837093308","0.4636837267","0.1178729669","0.2701708387","","","","","","","","","","","","","","74","J","1","","","219","main_expt",""
"","bandit","300","774202","0.0-261.0-0.0","37287774","wem/bandit_party_1","A35RTGQZ631EPC","either","6","273","","","","","","","0","0","1","0.4599900571","","0.6","0.4","0.2","0.8","","","","","0.3651541458","0.4599900571","0.1284790336","0.2395453957","","","","","","","","","","74","J","1","","","220","main_expt",""
"","bandit","301","775931","0.0-262.0-0.0","37287774","wem/bandit_party_1","A35RTGQZ631EPC","either","6","224","","","","","","","0","0","1","","0.254085412","0.6","0.4","0.2","0.8","0.254085412","0.4490722186","0.147465279","0.2770622605","","","","","","","","","","","","","","72","H","0","img/none_selected.jpg","","221","main_expt",""
"","bandit","302","777907","0.0-263.0-0.0","37287774","wem/bandit_party_1","A35RTGQZ631EPC","either","6","471","","","","","","","0","0","1","0.3390746663","","0.6","0.4","0.2","0.8","","","","","0.2590796483","0.4253353094","0.1441925756","0.3390746663","","","","","","","","","","76","L","3","","","222","main_expt",""
"","bandit","303","779812","0.0-264.0-0.0","37287774","wem/bandit_party_1","A35RTGQZ631EPC","either","6","400","","","","","","","0","0","1","0.1731110736","","0.6","0.4","0.2","0.8","","","","","0.2640852941","0.4559825987","0.1731110736","0.384843876","","","","","","","","","","75","K","2","","","223","main_expt",""
"","bandit","304","781627","0.0-265.0-0.0","37287774","wem/bandit_party_1","A35RTGQZ631EPC","either","6","310","","","","","","","0","1","0","","0.464560515","0.6","0.4","0.2","0.8","0.2636590797","0.464560515","0.1124600034","0.4367619307","","","","","","","","","","","","","","74","J","1","","","224","main_expt",""
"","bandit","305","783571","0.0-266.0-0.0","37287774","wem/bandit_party_1","A35RTGQZ631EPC","either","6","440","","","","","","","0","0","1","","0.4528378766","0.6","0.4","0.2","0.8","0.3110444069","0.4528378766","0.1174510337","0.42055701","","","","","","","","","","","","","","74","J","1","","","225","main_expt",""
"","bandit","306","785418","0.0-267.0-0.0","37287774","wem/bandit_party_1","A35RTGQZ631EPC","either","6","343","","","","","","","1","0","0","0.4585160156","","0.6","0.4","0.2","0.8","","","","","0.3268768972","0.4585160156","0.1494320736","0.4282593698","","","","","","","","","","74","J","1","","","226","main_expt",""
"","bandit","307","787450","0.0-268.0-0.0","37287774","wem/bandit_party_1","A35RTGQZ631EPC","either","6","528","","","","","","","0","0","1","","0.4525914875","0.6","0.4","0.2","0.8","0.3112991039","0.4525914875","0.1655037845","0.4213985596","","","","","","","","","","","","","","74","J","1","","","227","main_expt",""
"","bandit","308","789226","0.0-269.0-0.0","37287774","wem/bandit_party_1","A35RTGQZ631EPC","either","6","271","","","","","","","0","1","0","","0.4618810074","0.6","0.4","0.2","0.8","0.3481066565","0.4618810074","0.1595877114","0.4115599459","","","","","","","","","","","","","","74","J","1","","","228","main_expt",""
"","bandit","309","791026","0.0-270.0-0.0","37287774","wem/bandit_party_1","A35RTGQZ631EPC","either","6","297","","","","","","","0","0","1","0.4661541784","","0.6","0.4","0.2","0.8","","","","","0.3267856819","0.4661541784","0.1811982871","0.375967734","","","","","","","","","","74","J","1","","","229","main_expt",""
"","bandit","310","792827","0.0-271.0-0.0","37287774","wem/bandit_party_1","A35RTGQZ631EPC","either","6","296","","","","","","","0","0","1","","0.4681373403","0.6","0.4","0.2","0.8","0.3043034776","0.4681373403","0.2088208598","0.4172813036","","","","","","","","","","","","","","74","J","1","","","230","main_expt",""
"","bandit","311","794611","0.0-272.0-0.0","37287774","wem/bandit_party_1","A35RTGQZ631EPC","either","6","279","","","","","","","0","0","1","0.3127123154","","0.6","0.4","0.2","0.8","","","","","0.3127123154","0.4733838814","0.2062946352","0.3871641603","","","","","","","","","","72","H","0","img/none_selected.jpg","","231","main_expt",""
"","bandit","312","796365","0.0-273.0-0.0","37287774","wem/bandit_party_1","A35RTGQZ631EPC","either","6","248","","","","","","","0","0","1","0.3039198066","","0.6","0.4","0.2","0.8","","","","","0.3039198066","0.455942125","0.1448621505","0.3381606844","","","","","","","","","","72","H","0","img/none_selected.jpg","","232","main_expt",""
"","bandit","313","798195","0.0-274.0-0.0","37287774","wem/bandit_party_1","A35RTGQZ631EPC","either","6","326","","","","","","","0","0","1","0.2918198365","","0.6","0.4","0.2","0.8","","","","","0.2846072758","0.4523014459","0.1096360744","0.2918198365","","","","","","","","","","76","L","3","","","233","main_expt",""
"","bandit","314","799970","0.0-275.0-0.0","37287774","wem/bandit_party_1","A35RTGQZ631EPC","either","6","271","","","","","","","1","0","0","0.3016980071","","0.6","0.4","0.2","0.8","","","","","0.2430061478","0.4715877437","0.1102272527","0.3016980071","","","","","","","","","","76","L","3","","","234","main_expt",""
"","bandit","315","801771","0.0-276.0-0.0","37287774","wem/bandit_party_1","A35RTGQZ631EPC","either","6","296","","","","","","","0","0","1","0.2940059945","","0.6","0.4","0.2","0.8","","","","","0.263037213","0.4667146267","0.1428859574","0.2940059945","","","","","","","","","","76","L","3","","","235","main_expt",""
"","bandit","316","803586","0.0-277.0-0.0","37287774","wem/bandit_party_1","A35RTGQZ631EPC","either","6","311","","","","","","","0","0","1","","0.1659437887","0.6","0.4","0.2","0.8","0.2976510001","0.4638430617","0.1659437887","0.2926833733","","","","","","","","","","","","","","75","K","2","","","236","main_expt",""
