"consent","trial_type","trial_index","time_elapsed","internal_node_id","subjID","study","MID","cond","drift","rt","responses","button_pressed","key_press","like","value","connected","gems","bombs","no_reward","GemPrChosen","BombPrChosen","GainOverPainPr_0","GainOverPainPr_1","GainOverPainPr_2","GainOverPainPr_3","LosePr_0","LosePr_1","LosePr_2","LosePr_3","WinPr_0","WinPr_1","WinPr_2","WinPr_3","Q0","Q1","Q2","gender","age","ethnicity","label","expt_phase","target","respCharCode","respKey","respChoiceNum","respChoice","practice","trial_counter","trial_label","Q0_index"
"GDM/GDM_behavioral_consent_30min_online.html","consent","0","25983","0.0-0.0","38386191","wem/bandit_party_1","A2XJAGYVNVPCP0","either","2","","","","","","","","","","","","","","","","","","","","","","","","","","","","","","","","","","","","","","","","",""
"","survey-text","1","33257","0.0-1.0","38386191","wem/bandit_party_1","A2XJAGYVNVPCP0","either","2","6259","{""Q0"":""A2XJAGYVNVPCP0""}","","","","","","","","","","","","","","","","","","","","","","","","","","","","","","","","","","","","","","",""
"","button-response","2","36794","0.0-2.0","38386191","wem/bandit_party_1","A2XJAGYVNVPCP0","either","2","2529","","2","","","","","","","","","","","","","","","","","","","","","","","","","","","","","","","","","","","","","",""
"","text-replacement","3","51374","0.0-3.0","38386191","wem/bandit_party_1","A2XJAGYVNVPCP0","either","2","13575","","","32","","","","","","","","","","","","","","","","","","","","","","","","","","","","","","","","","","","","",""
"","text-replacement","4","61909","0.0-4.0","38386191","wem/bandit_party_1","A2XJAGYVNVPCP0","either","2","10532","","","32","","","","","","","","","","","","","","","","","","","","","","","","","","","","","","","","","","","","",""
"","text-replacement","5","73460","0.0-5.0-0.0","38386191","wem/bandit_party_1","A2XJAGYVNVPCP0","either","2","11548","","","32","","","","","","","","","","","","","","","","","","","","","","","","","","","","","","","","","","","","",""
"","identification","6","87716","0.0-6.0-0.0","38386191","wem/bandit_party_1","A2XJAGYVNVPCP0","either","2","14228","","","","0","0","0","","","","","","","","","","","","","","","","","","","","","","","","pre","identification_pre","the Democratic Party","","","","","","","",""
"","identification","7","92627","0.0-6.0-1.0","38386191","wem/bandit_party_1","A2XJAGYVNVPCP0","either","2","3884","","","","0","0","0","","","","","","","","","","","","","","","","","","","","","","","","pre","identification_pre","the Republican party","","","","","","","",""
"","text-replacement","8","99197","0.0-7.0","38386191","wem/bandit_party_1","A2XJAGYVNVPCP0","either","2","5567","","","32","","","","","","","","","","","","","","","","","","","","","","","","","","","","","","","","","","","","",""
"","text-replacement","9","106050","0.0-8.0","38386191","wem/bandit_party_1","A2XJAGYVNVPCP0","either","2","6849","","","32","","","","","","","","","","","","","","","","","","","","","","","","","","","","","","","","","","","","",""
"","text-replacement","10","118188","0.0-9.0","38386191","wem/bandit_party_1","A2XJAGYVNVPCP0","either","2","12135","","","32","","","","","","","","","","","","","","","","","","","","","","","","","","","","","","","","","","","","",""
"","text-replacement","11","125504","0.0-10.0","38386191","wem/bandit_party_1","A2XJAGYVNVPCP0","either","2","7314","","","32","","","","","","","","","","","","","","","","","","","","","","","","","","","","","","","","","","","","",""
"","text-replacement","12","129850","0.0-11.0","38386191","wem/bandit_party_1","A2XJAGYVNVPCP0","either","2","4344","","","32","","","","","","","","","","","","","","","","","","","","","","","","","","","","","","","","","","","","",""
"","bandit","13","136455","0.0-12.0-0.0","38386191","wem/bandit_party_1","A2XJAGYVNVPCP0","either","2","5095","","","","","","","0","0","1","0","0","","","","","0","","","","0","","","","","","","","","","","","","74","J","0","img/none_selected_demo.jpg","true","0","",""
"","bandit","14","139470","0.0-13.0-0.0","38386191","wem/bandit_party_1","A2XJAGYVNVPCP0","either","2","1508","","","","","","","0","0","1","0","0","","","","","0","","","","0","","","","","","","","","","","","","75","K","0","img/none_selected_demo.jpg","true","0","",""
"","text-replacement","15","147010","0.0-14.0","38386191","wem/bandit_party_1","A2XJAGYVNVPCP0","either","2","7535","","","32","","","","","","","","","","","","","","","","","","","","","","","","","","","","","","","","","","","","",""
"","text-replacement","16","157635","0.0-15.0","38386191","wem/bandit_party_1","A2XJAGYVNVPCP0","either","2","10622","","","32","","","","","","","","","","","","","","","","","","","","","","","","","","","","","","","","","","","","",""
"","text-replacement","17","164847","0.0-16.0","38386191","wem/bandit_party_1","A2XJAGYVNVPCP0","either","2","7210","","","32","","","","","","","","","","","","","","","","","","","","","","","","","","","","","","","","","","","","",""
"","text-replacement","18","168531","0.0-17.0","38386191","wem/bandit_party_1","A2XJAGYVNVPCP0","either","2","3680","","","32","","","","","","","","","","","","","","","","","","","","","","","","","","","","","","","","","","","","",""
"","bandit","19","171046","0.0-18.0-0.0","38386191","wem/bandit_party_1","A2XJAGYVNVPCP0","either","2","1009","","","","","","","1","0","0","0.8","","0.5","0.5","","","","","","","0.8","0.2","","","","","","","","","","","","74","J","0","img/none_selected_demo.jpg","true","0","80_20_practice",""
"","bandit","20","173933","0.0-18.0-1.0","38386191","wem/bandit_party_1","A2XJAGYVNVPCP0","either","2","1379","","","","","","","0","0","1","","0.8","0.5","0.5","","","0.8","0.2","","","","","","","","","","","","","","","","74","J","0","img/none_selected_demo.jpg","true","0","80_20_practice",""
"","bandit","21","176533","0.0-18.0-2.0","38386191","wem/bandit_party_1","A2XJAGYVNVPCP0","either","2","1093","","","","","","","0","0","1","","0.2","0.5","0.5","","","0.8","0.2","","","","","","","","","","","","","","","","75","K","1","","true","0","80_20_practice",""
"","bandit","22","179301","0.0-18.0-3.0","38386191","wem/bandit_party_1","A2XJAGYVNVPCP0","either","2","1260","","","","","","","0","0","1","","0.8","0.5","0.5","","","0.8","0.2","","","","","","","","","","","","","","","","74","J","0","img/none_selected_demo.jpg","true","0","80_20_practice",""
"","bandit","23","183216","0.0-18.0-4.0","38386191","wem/bandit_party_1","A2XJAGYVNVPCP0","either","2","2406","","","","","","","1","0","0","0.8","","0.5","0.5","","","","","","","0.8","0.2","","","","","","","","","","","","74","J","0","img/none_selected_demo.jpg","true","0","80_20_practice",""
"","bandit","24","185821","0.0-18.0-5.0","38386191","wem/bandit_party_1","A2XJAGYVNVPCP0","either","2","1097","","","","","","","0","1","0","","0.8","0.5","0.5","","","0.8","0.2","","","","","","","","","","","","","","","","74","J","0","img/none_selected_demo.jpg","true","0","80_20_practice",""
"","bandit","25","188060","0.0-18.0-6.0","38386191","wem/bandit_party_1","A2XJAGYVNVPCP0","either","2","733","","","","","","","1","0","0","0.8","","0.5","0.5","","","","","","","0.8","0.2","","","","","","","","","","","","74","J","0","img/none_selected_demo.jpg","true","0","80_20_practice",""
"","bandit","26","190565","0.0-18.0-7.0","38386191","wem/bandit_party_1","A2XJAGYVNVPCP0","either","2","997","","","","","","","1","0","0","0.8","","0.5","0.5","","","","","","","0.8","0.2","","","","","","","","","","","","74","J","0","img/none_selected_demo.jpg","true","0","80_20_practice",""
"","bandit","27","192605","0.0-18.0-8.0","38386191","wem/bandit_party_1","A2XJAGYVNVPCP0","either","2","530","","","","","","","0","0","1","","0.8","0.5","0.5","","","0.8","0.2","","","","","","","","","","","","","","","","74","J","0","img/none_selected_demo.jpg","true","0","80_20_practice",""
"","bandit","28","194768","0.0-18.0-9.0","38386191","wem/bandit_party_1","A2XJAGYVNVPCP0","either","2","656","","","","","","","0","1","0","","0.8","0.5","0.5","","","0.8","0.2","","","","","","","","","","","","","","","","74","J","0","img/none_selected_demo.jpg","true","0","80_20_practice",""
"","bandit","29","197172","0.0-18.0-10.0","38386191","wem/bandit_party_1","A2XJAGYVNVPCP0","either","2","896","","","","","","","0","1","0","","0.8","0.5","0.5","","","0.8","0.2","","","","","","","","","","","","","","","","74","J","0","img/none_selected_demo.jpg","true","0","80_20_practice",""
"","bandit","30","199293","0.0-18.0-11.0","38386191","wem/bandit_party_1","A2XJAGYVNVPCP0","either","2","613","","","","","","","1","0","0","0.8","","0.5","0.5","","","","","","","0.8","0.2","","","","","","","","","","","","74","J","0","img/none_selected_demo.jpg","true","0","80_20_practice",""
"","bandit","31","201252","0.0-18.0-12.0","38386191","wem/bandit_party_1","A2XJAGYVNVPCP0","either","2","450","","","","","","","0","1","0","","0.8","0.5","0.5","","","0.8","0.2","","","","","","","","","","","","","","","","74","J","0","img/none_selected_demo.jpg","true","0","80_20_practice",""
"","bandit","32","203181","0.0-18.0-13.0","38386191","wem/bandit_party_1","A2XJAGYVNVPCP0","either","2","420","","","","","","","0","0","1","","0.8","0.5","0.5","","","0.8","0.2","","","","","","","","","","","","","","","","74","J","0","img/none_selected_demo.jpg","true","0","80_20_practice",""
"","bandit","33","205072","0.0-18.0-14.0","38386191","wem/bandit_party_1","A2XJAGYVNVPCP0","either","2","383","","","","","","","0","0","1","","0.8","0.5","0.5","","","0.8","0.2","","","","","","","","","","","","","","","","74","J","0","img/none_selected_demo.jpg","true","0","80_20_practice",""
"","bandit","34","206996","0.0-18.0-15.0","38386191","wem/bandit_party_1","A2XJAGYVNVPCP0","either","2","416","","","","","","","0","1","0","","0.2","0.5","0.5","","","0.8","0.2","","","","","","","","","","","","","","","","75","K","1","","true","0","80_20_practice",""
"","bandit","35","208932","0.0-18.0-16.0","38386191","wem/bandit_party_1","A2XJAGYVNVPCP0","either","2","428","","","","","","","0","0","1","","0.2","0.5","0.5","","","0.8","0.2","","","","","","","","","","","","","","","","75","K","1","","true","0","80_20_practice",""
"","bandit","36","210748","0.0-18.0-17.0","38386191","wem/bandit_party_1","A2XJAGYVNVPCP0","either","2","309","","","","","","","0","1","0","","0.8","0.5","0.5","","","0.8","0.2","","","","","","","","","","","","","","","","74","J","0","img/none_selected_demo.jpg","true","0","80_20_practice",""
"","bandit","37","212732","0.0-18.0-18.0","38386191","wem/bandit_party_1","A2XJAGYVNVPCP0","either","2","475","","","","","","","0","1","0","","0.8","0.5","0.5","","","0.8","0.2","","","","","","","","","","","","","","","","74","J","0","img/none_selected_demo.jpg","true","0","80_20_practice",""
"","bandit","38","214636","0.0-18.0-19.0","38386191","wem/bandit_party_1","A2XJAGYVNVPCP0","either","2","396","","","","","","","0","1","0","","0.8","0.5","0.5","","","0.8","0.2","","","","","","","","","","","","","","","","74","J","0","img/none_selected_demo.jpg","true","0","80_20_practice",""
"","text-replacement","39","219674","0.0-19.0","38386191","wem/bandit_party_1","A2XJAGYVNVPCP0","either","2","5032","","","32","","","","","","","","","","","","","","","","","","","","","","","","","","","","","","","","","","","","",""
"","bandit","40","222637","0.0-20.0-0.0","38386191","wem/bandit_party_1","A2XJAGYVNVPCP0","either","2","1456","","","","","","","1","0","0","1","0","","","","","0","1","","","1","0","","","","","","","","","","","","74","J","0","img/none_selected_demo.jpg","true","0","",""
"","text-replacement","41","228005","0.0-21.0","38386191","wem/bandit_party_1","A2XJAGYVNVPCP0","either","2","5363","","","32","","","","","","","","","","","","","","","","","","","","","","","","","","","","","","","","","","","","",""
"","text-replacement","42","231553","0.0-22.0","38386191","wem/bandit_party_1","A2XJAGYVNVPCP0","either","2","3545","","","32","","","","","","","","","","","","","","","","","","","","","","","","","","","","","","","","","","","","",""
"","text-replacement","43","235398","0.0-23.0","38386191","wem/bandit_party_1","A2XJAGYVNVPCP0","either","2","3842","","","32","","","","","","","","","","","","","","","","","","","","","","","","","","","","","","","","","","","","",""
"","text-replacement","44","240102","0.0-24.0","38386191","wem/bandit_party_1","A2XJAGYVNVPCP0","either","2","4700","","","32","","","","","","","","","","","","","","","","","","","","","","","","","","","","","","","","","","","","",""
"","text-replacement","45","249601","0.0-25.0","38386191","wem/bandit_party_1","A2XJAGYVNVPCP0","either","2","9494","","","32","","","","","","","","","","","","","","","","","","","","","","","","","","","","","","","","","","","","",""
"","text-replacement","46","253782","0.0-26.0","38386191","wem/bandit_party_1","A2XJAGYVNVPCP0","either","2","4178","","","32","","","","","","","","","","","","","","","","","","","","","","","","","","","","","","","","","","","","",""
"","text-replacement","47","259518","0.0-27.0","38386191","wem/bandit_party_1","A2XJAGYVNVPCP0","either","2","5732","","","32","","","","","","","","","","","","","","","","","","","","","","","","","","","","","","","","","","","","",""
"","text-replacement","48","264824","0.0-28.0","38386191","wem/bandit_party_1","A2XJAGYVNVPCP0","either","2","5302","","","32","","","","","","","","","","","","","","","","","","","","","","","","","","","","","","","","","","","","",""
"","text-replacement","49","271102","0.0-29.0","38386191","wem/bandit_party_1","A2XJAGYVNVPCP0","either","2","6274","","","32","","","","","","","","","","","","","","","","","","","","","","","","","","","","","","","","","","","","",""
"","text-replacement","50","273486","0.0-30.0","38386191","wem/bandit_party_1","A2XJAGYVNVPCP0","either","2","2379","","","32","","","","","","","","","","","","","","","","","","","","","","","","","","","","","","","","","","","","",""
"","text-replacement","51","280229","0.0-31.0","38386191","wem/bandit_party_1","A2XJAGYVNVPCP0","either","2","6740","","","32","","","","","","","","","","","","","","","","","","","","","","","","","","","","","","","","","","","","",""
"","bandit","52","282421","0.0-32.0-0.0","38386191","wem/bandit_party_1","A2XJAGYVNVPCP0","either","2","682","","","","","","","1","0","0","0.8","","0.5","0.5","0.5","0.5","","","","","0.8","0.2","0.6","0.2","","","","","","","","","","72","H","0","img/none_selected.jpg","true","0","full_practice",""
"","bandit","53","284886","0.0-32.0-1.0","38386191","wem/bandit_party_1","A2XJAGYVNVPCP0","either","2","958","","","","","","","0","0","1","0.8","","0.5","0.5","0.5","0.5","","","","","0.8","0.2","0.6","0.2","","","","","","","","","","72","H","0","img/none_selected.jpg","true","0","full_practice",""
"","bandit","54","287338","0.0-32.0-2.0","38386191","wem/bandit_party_1","A2XJAGYVNVPCP0","either","2","944","","","","","","","1","0","0","0.6","","0.5","0.5","0.5","0.5","","","","","0.8","0.2","0.6","0.2","","","","","","","","","","75","K","2","","true","0","full_practice",""
"","bandit","55","289419","0.0-32.0-3.0","38386191","wem/bandit_party_1","A2XJAGYVNVPCP0","either","2","572","","","","","","","0","0","1","","0.2","0.5","0.5","0.5","0.5","0.8","0.2","0.6","0.2","","","","","","","","","","","","","","76","L","3","","true","0","full_practice",""
"","bandit","56","291438","0.0-32.0-4.0","38386191","wem/bandit_party_1","A2XJAGYVNVPCP0","either","2","510","","","","","","","0","0","1","","0.2","0.5","0.5","0.5","0.5","0.8","0.2","0.6","0.2","","","","","","","","","","","","","","74","J","1","","true","0","full_practice",""
"","bandit","57","293707","0.0-32.0-5.0","38386191","wem/bandit_party_1","A2XJAGYVNVPCP0","either","2","760","","","","","","","1","0","0","0.8","","0.5","0.5","0.5","0.5","","","","","0.8","0.2","0.6","0.2","","","","","","","","","","72","H","0","img/none_selected.jpg","true","0","full_practice",""
"","bandit","58","295635","0.0-32.0-6.0","38386191","wem/bandit_party_1","A2XJAGYVNVPCP0","either","2","419","","","","","","","1","0","0","0.8","","0.5","0.5","0.5","0.5","","","","","0.8","0.2","0.6","0.2","","","","","","","","","","72","H","0","img/none_selected.jpg","true","0","full_practice",""
"","bandit","59","297522","0.0-32.0-7.0","38386191","wem/bandit_party_1","A2XJAGYVNVPCP0","either","2","377","","","","","","","1","0","0","0.8","","0.5","0.5","0.5","0.5","","","","","0.8","0.2","0.6","0.2","","","","","","","","","","72","H","0","img/none_selected.jpg","true","0","full_practice",""
"","bandit","60","299523","0.0-32.0-8.0","38386191","wem/bandit_party_1","A2XJAGYVNVPCP0","either","2","492","","","","","","","0","1","0","","0.8","0.5","0.5","0.5","0.5","0.8","0.2","0.6","0.2","","","","","","","","","","","","","","72","H","0","img/none_selected.jpg","true","0","full_practice",""
"","bandit","61","301379","0.0-32.0-9.0","38386191","wem/bandit_party_1","A2XJAGYVNVPCP0","either","2","347","","","","","","","0","0","1","0.8","","0.5","0.5","0.5","0.5","","","","","0.8","0.2","0.6","0.2","","","","","","","","","","72","H","0","img/none_selected.jpg","true","0","full_practice",""
"","bandit","62","303270","0.0-32.0-10.0","38386191","wem/bandit_party_1","A2XJAGYVNVPCP0","either","2","382","","","","","","","0","0","1","","0.6","0.5","0.5","0.5","0.5","0.8","0.2","0.6","0.2","","","","","","","","","","","","","","75","K","2","","true","0","full_practice",""
"","bandit","63","304868","0.0-32.0-11.0","38386191","wem/bandit_party_1","A2XJAGYVNVPCP0","either","2","86","","","","","","","0","0","1","0.2","","0.5","0.5","0.5","0.5","","","","","0.8","0.2","0.6","0.2","","","","","","","","","","76","L","3","","true","0","full_practice",""
"","bandit","64","306498","0.0-32.0-12.0","38386191","wem/bandit_party_1","A2XJAGYVNVPCP0","either","2","122","","","","","","","0","1","0","","0.8","0.5","0.5","0.5","0.5","0.8","0.2","0.6","0.2","","","","","","","","","","","","","","72","H","0","img/none_selected.jpg","true","0","full_practice",""
"","bandit","65","308386","0.0-32.0-13.0","38386191","wem/bandit_party_1","A2XJAGYVNVPCP0","either","2","379","","","","","","","1","0","0","0.8","","0.5","0.5","0.5","0.5","","","","","0.8","0.2","0.6","0.2","","","","","","","","","","72","H","0","img/none_selected.jpg","true","0","full_practice",""
"","bandit","66","310307","0.0-32.0-14.0","38386191","wem/bandit_party_1","A2XJAGYVNVPCP0","either","2","411","","","","","","","0","0","1","","0.8","0.5","0.5","0.5","0.5","0.8","0.2","0.6","0.2","","","","","","","","","","","","","","72","H","0","img/none_selected.jpg","true","0","full_practice",""
"","bandit","67","312187","0.0-32.0-15.0","38386191","wem/bandit_party_1","A2XJAGYVNVPCP0","either","2","370","","","","","","","0","1","0","","0.6","0.5","0.5","0.5","0.5","0.8","0.2","0.6","0.2","","","","","","","","","","","","","","75","K","2","","true","0","full_practice",""
"","bandit","68","313993","0.0-32.0-16.0","38386191","wem/bandit_party_1","A2XJAGYVNVPCP0","either","2","286","","","","","","","0","0","1","","0.6","0.5","0.5","0.5","0.5","0.8","0.2","0.6","0.2","","","","","","","","","","","","","","75","K","2","","true","0","full_practice",""
"","bandit","69","315986","0.0-32.0-17.0","38386191","wem/bandit_party_1","A2XJAGYVNVPCP0","either","2","480","","","","","","","0","0","1","","0.2","0.5","0.5","0.5","0.5","0.8","0.2","0.6","0.2","","","","","","","","","","","","","","74","J","1","","true","0","full_practice",""
"","bandit","70","317561","0.0-32.0-18.0","38386191","wem/bandit_party_1","A2XJAGYVNVPCP0","either","2","66","","","","","","","0","1","0","","0.8","0.5","0.5","0.5","0.5","0.8","0.2","0.6","0.2","","","","","","","","","","","","","","72","H","0","img/none_selected.jpg","true","0","full_practice",""
"","bandit","71","319322","0.0-32.0-19.0","38386191","wem/bandit_party_1","A2XJAGYVNVPCP0","either","2","245","","","","","","","1","0","0","0.8","","0.5","0.5","0.5","0.5","","","","","0.8","0.2","0.6","0.2","","","","","","","","","","72","H","0","img/none_selected.jpg","true","0","full_practice",""
"","text","72","323832","0.0-33.0","38386191","wem/bandit_party_1","A2XJAGYVNVPCP0","either","2","4496","","","32","","","","","","","","","","","","","","","","","","","","","","","","","","","","","","","","","","","","",""
"","text-replacement","73","336540","0.0-34.0","38386191","wem/bandit_party_1","A2XJAGYVNVPCP0","either","2","11703","","","32","","","","","","","","","","","","","","","","","","","","","","","","","","","","","","","","","","","","",""
"","text-replacement","74","347623","0.0-35.0","38386191","wem/bandit_party_1","A2XJAGYVNVPCP0","either","2","11080","","","32","","","","","","","","","","","","","","","","","","","","","","","","","","","","","","","","","","","","",""
"","text-replacement","75","353399","0.0-36.0","38386191","wem/bandit_party_1","A2XJAGYVNVPCP0","either","2","5770","","","32","","","","","","","","","","","","","","","","","","","","","","","","","","","","","","","","","","","","",""
"","text-replacement","76","358559","0.0-37.0","38386191","wem/bandit_party_1","A2XJAGYVNVPCP0","either","2","5155","","","32","","","","","","","","","","","","","","","","","","","","","","","","","","","","","","","","","","","","",""
"","text-replacement","77","363820","0.0-38.0","38386191","wem/bandit_party_1","A2XJAGYVNVPCP0","either","2","5256","","","32","","","","","","","","","","","","","","","","","","","","","","","","","","","","","","","","","","","","",""
"","survey-multi-choice-replacement","78","369878","0.0-39.0-0.0","38386191","wem/bandit_party_1","A2XJAGYVNVPCP0","either","2","6043","","","","","","","","","","","","","","","","","","","","","","","","Money will be added to the pool for <span style='color:red;'>REPUBLICANS</span>","","","","","","","attn_check","","","","","","","","","0"
"","survey-multi-choice-replacement","79","384900","0.0-40.0-0.0","38386191","wem/bandit_party_1","A2XJAGYVNVPCP0","either","2","14004","","","","","","","","","","","","","","","","","","","","","","","","Equal amounts of money will be added to the pool for <span style='color:red;'>REPUBLICANS</span> and subtracted from the pool for <span style='color:blue;'>DEMOCRATS</span>","","","","","","","attn_check","","","","","","","","","2"
"","survey-multi-choice-replacement","80","389779","0.0-41.0-0.0","38386191","wem/bandit_party_1","A2XJAGYVNVPCP0","either","2","3863","","","","","","","","","","","","","","","","","","","","","","","","No money will be added to either pool","","","","","","","attn_check","","","","","","","","","3"
"","bandit","81","394761","0.0-42.0-0.0","38386191","wem/bandit_party_1","A2XJAGYVNVPCP0","either","2","2465","","","","","","","0","1","0","","0.4781977867","0.6","0.2","0.4","0.8","0.362799796","0.4781977867","0.326135308","0.3653736811","","","","","","","","","","","","","","74","J","1","","","1","main_expt",""
"","bandit","82","398172","0.0-43.0-0.0","38386191","wem/bandit_party_1","A2XJAGYVNVPCP0","either","2","1902","","","","","","","0","0","1","","0.4765481994","0.6","0.2","0.4","0.8","0.3891507205","0.4765481994","0.3564958201","0.3999069229","","","","","","","","","","","","","","74","J","1","","","2","main_expt",""
"","bandit","83","400921","0.0-44.0-0.0","38386191","wem/bandit_party_1","A2XJAGYVNVPCP0","either","2","1240","","","","","","","0","0","1","0.4363582421","","0.6","0.2","0.4","0.8","","","","","0.3151339382","0.4722158263","0.3309056029","0.4363582421","","","","","","","","","","76","L","3","","","3","main_expt",""
"","bandit","84","403649","0.0-45.0-0.0","38386191","wem/bandit_party_1","A2XJAGYVNVPCP0","either","2","1217","","","","","","","0","0","1","0.250648122","","0.6","0.2","0.4","0.8","","","","","0.250648122","0.4609570051","0.308467875","0.4300921111","","","","","","","","","","72","H","0","img/none_selected.jpg","","4","main_expt",""
"","bandit","85","405952","0.0-46.0-0.0","38386191","wem/bandit_party_1","A2XJAGYVNVPCP0","either","2","792","","","","","","","0","0","1","","0.3349995635","0.6","0.2","0.4","0.8","0.2382585344","0.4707799186","0.3349995635","0.3863220662","","","","","","","","","","","","","","75","K","2","","","5","main_expt",""
"","bandit","86","408811","0.0-47.0-0.0","38386191","wem/bandit_party_1","A2XJAGYVNVPCP0","either","2","1349","","","","","","","0","0","1","0.4676743975","","0.6","0.2","0.4","0.8","","","","","0.2088101903","0.4676743975","0.3743101545","0.4192648028","","","","","","","","","","74","J","1","","","6","main_expt",""
"","bandit","87","411481","0.0-48.0-0.0","38386191","wem/bandit_party_1","A2XJAGYVNVPCP0","either","2","1160","","","","","","","0","0","1","0.4767364015","","0.6","0.2","0.4","0.8","","","","","0.1884279889","0.4767364015","0.377506125","0.4218548145","","","","","","","","","","74","J","1","","","7","main_expt",""
"","bandit","88","414024","0.0-49.0-0.0","38386191","wem/bandit_party_1","A2XJAGYVNVPCP0","either","2","1033","","","","","","","0","0","1","0.3452849142","","0.6","0.2","0.4","0.8","","","","","0.2297930851","0.4837409877","0.3452849142","0.4298914749","","","","","","","","","","75","K","2","","","8","main_expt",""
"","bandit","89","416761","0.0-50.0-0.0","38386191","wem/bandit_party_1","A2XJAGYVNVPCP0","either","2","1226","","","","","","","1","0","0","0.4215440671","","0.6","0.2","0.4","0.8","","","","","0.2219539873","0.4825212187","0.2713567333","0.4215440671","","","","","","","","","","76","L","3","","","9","main_expt",""
"","bandit","90","419492","0.0-51.0-0.0","38386191","wem/bandit_party_1","A2XJAGYVNVPCP0","either","2","1220","","","","","","","0","0","1","0.3991616263","","0.6","0.2","0.4","0.8","","","","","0.2398128751","0.4791264729","0.2712708503","0.3991616263","","","","","","","","","","76","L","3","","","10","main_expt",""
"","bandit","91","422464","0.0-52.0-0.0","38386191","wem/bandit_party_1","A2XJAGYVNVPCP0","either","2","1459","","","","","","","0","0","1","","0.2551733424","0.6","0.2","0.4","0.8","0.2551733424","0.4762013833","0.2635531688","0.4002673883","","","","","","","","","","","","","","72","H","0","img/none_selected.jpg","","11","main_expt",""
"","bandit","92","424705","0.0-53.0-0.0","38386191","wem/bandit_party_1","A2XJAGYVNVPCP0","either","2","731","","","","","","","1","0","0","0.368629831","","0.6","0.2","0.4","0.8","","","","","0.2593424883","0.4729837645","0.2669056975","0.368629831","","","","","","","","","","76","L","3","","","12","main_expt",""
"","bandit","93","427320","0.0-54.0-0.0","38386191","wem/bandit_party_1","A2XJAGYVNVPCP0","either","2","1107","","","","","","","0","0","1","0.4189726289","","0.6","0.2","0.4","0.8","","","","","0.2493591627","0.4749786695","0.3204456557","0.4189726289","","","","","","","","","","76","L","3","","","13","main_expt",""
"","bandit","94","429788","0.0-55.0-0.0","38386191","wem/bandit_party_1","A2XJAGYVNVPCP0","either","2","956","","","","","","","1","0","0","0.4352425359","","0.6","0.2","0.4","0.8","","","","","0.2686446846","0.4810115094","0.3466526728","0.4352425359","","","","","","","","","","76","L","3","","","14","main_expt",""
"","bandit","95","432186","0.0-56.0-0.0","38386191","wem/bandit_party_1","A2XJAGYVNVPCP0","either","2","886","","","","","","","0","0","1","0.3819090161","","0.6","0.2","0.4","0.8","","","","","0.2690169042","0.4705329286","0.3736671224","0.3819090161","","","","","","","","","","76","L","3","","","15","main_expt",""
"","bandit","96","434804","0.0-57.0-0.0","38386191","wem/bandit_party_1","A2XJAGYVNVPCP0","either","2","1104","","","","","","","0","1","0","","0.4687419894","0.6","0.2","0.4","0.8","0.2518303543","0.4687419894","0.3778143907","0.3737760256","","","","","","","","","","","","","","74","J","1","","","16","main_expt",""
"","bandit","97","437681","0.0-58.0-0.0","38386191","wem/bandit_party_1","A2XJAGYVNVPCP0","either","2","1367","","","","","","","0","0","1","","0.4594180265","0.6","0.2","0.4","0.8","0.2406549936","0.4594180265","0.3845750066","0.4151791473","","","","","","","","","","","","","","74","J","1","","","17","main_expt",""
"","bandit","98","439704","0.0-59.0-0.0","38386191","wem/bandit_party_1","A2XJAGYVNVPCP0","either","2","506","","","","","","","0","0","1","","0.4137363134","0.6","0.2","0.4","0.8","0.2670149403","0.425397146","0.4041286345","0.4137363134","","","","","","","","","","","","","","76","L","3","","","18","main_expt",""
"","bandit","99","442284","0.0-60.0-0.0","38386191","wem/bandit_party_1","A2XJAGYVNVPCP0","either","2","1069","","","","","","","1","0","0","0.2658482338","","0.6","0.2","0.4","0.8","","","","","0.2658482338","0.4201246927","0.4127350431","0.4084056464","","","","","","","","","","72","H","0","img/none_selected.jpg","","19","main_expt",""
"","bandit","100","444858","0.0-61.0-0.0","38386191","wem/bandit_party_1","A2XJAGYVNVPCP0","either","2","1061","","","","","","","0","0","1","0.2452433766","","0.6","0.2","0.4","0.8","","","","","0.2452433766","0.3954271328","0.4107359536","0.4129175496","","","","","","","","","","72","H","0","img/none_selected.jpg","","20","main_expt",""
"","bandit","101","447121","0.0-62.0-0.0","38386191","wem/bandit_party_1","A2XJAGYVNVPCP0","either","2","754","","","","","","","1","0","0","0.3954861765","","0.6","0.2","0.4","0.8","","","","","0.2298761452","0.4196431029","0.3954861765","0.3888488162","","","","","","","","","","75","K","2","","","21","main_expt",""
"","bandit","102","449465","0.0-63.0-0.0","38386191","wem/bandit_party_1","A2XJAGYVNVPCP0","either","2","832","","","","","","","0","1","0","","0.3873149631","0.6","0.2","0.4","0.8","0.266827693","0.3843335182","0.3805979297","0.3873149631","","","","","","","","","","","","","","76","L","3","","","22","main_expt",""
"","bandit","103","452089","0.0-64.0-0.0","38386191","wem/bandit_party_1","A2XJAGYVNVPCP0","either","2","1113","","","","","","","0","0","1","","0.425451992","0.6","0.2","0.4","0.8","0.2519769849","0.3839977458","0.425451992","0.3659772031","","","","","","","","","","","","","","75","K","2","","","23","main_expt",""
"","bandit","104","454196","0.0-65.0-0.0","38386191","wem/bandit_party_1","A2XJAGYVNVPCP0","either","2","597","","","","","","","0","1","0","","0.3594327093","0.6","0.2","0.4","0.8","0.2447613107","0.3338939571","0.4699447661","0.3594327093","","","","","","","","","","","","","","76","L","3","","","24","main_expt",""
"","bandit","105","456729","0.0-66.0-0.0","38386191","wem/bandit_party_1","A2XJAGYVNVPCP0","either","2","1022","","","","","","","0","0","1","","0.3719143394","0.6","0.2","0.4","0.8","0.2350413847","0.324486952","0.4484050393","0.3719143394","","","","","","","","","","","","","","76","L","3","","","25","main_expt",""
"","bandit","106","458945","0.0-67.0-0.0","38386191","wem/bandit_party_1","A2XJAGYVNVPCP0","either","2","706","","","","","","","0","0","1","0.3095710384","","0.6","0.2","0.4","0.8","","","","","0.207774486","0.3095710384","0.4190234423","0.3690014044","","","","","","","","","","74","J","1","","","26","main_expt",""
"","bandit","107","461152","0.0-68.0-0.0","38386191","wem/bandit_party_1","A2XJAGYVNVPCP0","either","2","695","","","","","","","0","0","1","0.2164182795","","0.6","0.2","0.4","0.8","","","","","0.2164182795","0.3355629191","0.4251478254","0.3940030818","","","","","","","","","","72","H","0","img/none_selected.jpg","","27","main_expt",""
"","bandit","108","463201","0.0-69.0-0.0","38386191","wem/bandit_party_1","A2XJAGYVNVPCP0","either","2","535","","","","","","","1","0","0","0.4111080327","","0.6","0.2","0.4","0.8","","","","","0.2164031865","0.3668681485","0.4287328697","0.4111080327","","","","","","","","","","76","L","3","","","28","main_expt",""
"","bandit","109","465436","0.0-70.0-0.0","38386191","wem/bandit_party_1","A2XJAGYVNVPCP0","either","2","724","","","","","","","0","0","1","","0.4106025245","0.6","0.2","0.4","0.8","0.2770000278","0.343198694","0.4106025245","0.41290056","","","","","","","","","","","","","","75","K","2","","","29","main_expt",""
"","bandit","110","467553","0.0-71.0-0.0","38386191","wem/bandit_party_1","A2XJAGYVNVPCP0","either","2","604","","","","","","","0","0","1","0.3937480262","","0.6","0.2","0.4","0.8","","","","","0.2354797847","0.326069126","0.3942494676","0.3937480262","","","","","","","","","","76","L","3","","","30","main_expt",""
"","bandit","111","469609","0.0-72.0-0.0","38386191","wem/bandit_party_1","A2XJAGYVNVPCP0","either","2","546","","","","","","","0","0","1","","0.3997016236","0.6","0.2","0.4","0.8","0.2692030882","0.3390127419","0.4285056211","0.3997016236","","","","","","","","","","","","","","76","L","3","","","31","main_expt",""
"","bandit","112","471952","0.0-73.0-0.0","38386191","wem/bandit_party_1","A2XJAGYVNVPCP0","either","2","828","","","","","","","0","1","0","","0.2471118655","0.6","0.2","0.4","0.8","0.2471118655","0.3360649894","0.4249454459","0.3574295763","","","","","","","","","","","","","","72","H","0","img/none_selected.jpg","","32","main_expt",""
"","bandit","113","474576","0.0-74.0-0.0","38386191","wem/bandit_party_1","A2XJAGYVNVPCP0","either","2","1112","","","","","","","0","0","1","","0.2879199001","0.6","0.2","0.4","0.8","0.2879199001","0.3052602024","0.416417765","0.3877818659","","","","","","","","","","","","","","72","H","0","img/none_selected.jpg","","33","main_expt",""
"","bandit","114","476931","0.0-75.0-0.0","38386191","wem/bandit_party_1","A2XJAGYVNVPCP0","either","2","837","","","","","","","0","0","1","","0.3594788954","0.6","0.2","0.4","0.8","0.3180115212","0.3594788954","0.4623714429","0.3799496232","","","","","","","","","","","","","","74","J","1","","","34","main_expt",""
"","bandit","115","478888","0.0-76.0-0.0","38386191","wem/bandit_party_1","A2XJAGYVNVPCP0","either","2","446","","","","","","","0","0","1","0.3577573403","","0.6","0.2","0.4","0.8","","","","","0.2524306687","0.380235832","0.4591977302","0.3577573403","","","","","","","","","","76","L","3","","","35","main_expt",""
"","bandit","116","480912","0.0-77.0-0.0","38386191","wem/bandit_party_1","A2XJAGYVNVPCP0","either","2","512","","","","","","","0","1","0","","0.4686235256","0.6","0.2","0.4","0.8","0.2351869563","0.3459989602","0.4686235256","0.3895375856","","","","","","","","","","","","","","75","K","2","","","36","main_expt",""
"","bandit","117","483097","0.0-78.0-0.0","38386191","wem/bandit_party_1","A2XJAGYVNVPCP0","either","2","672","","","","","","","0","0","1","","0.4571547709","0.6","0.2","0.4","0.8","0.2629170466","0.3320905149","0.4571547709","0.3783527007","","","","","","","","","","","","","","75","K","2","","","37","main_expt",""
"","bandit","118","485032","0.0-79.0-0.0","38386191","wem/bandit_party_1","A2XJAGYVNVPCP0","either","2","424","","","","","","","0","1","0","","0.3471020919","0.6","0.2","0.4","0.8","0.3090194305","0.3471020919","0.4688430709","0.284076782","","","","","","","","","","","","","","74","J","1","","","38","main_expt",""
"","bandit","119","487714","0.0-80.0-0.0","38386191","wem/bandit_party_1","A2XJAGYVNVPCP0","either","2","1169","","","","","","","0","0","1","0.2845371228","","0.6","0.2","0.4","0.8","","","","","0.2845371228","0.3401763967","0.4612923778","0.3388972186","","","","","","","","","","72","H","0","img/none_selected.jpg","","39","main_expt",""
"","bandit","120","489583","0.0-81.0-0.0","38386191","wem/bandit_party_1","A2XJAGYVNVPCP0","either","2","359","","","","","","","0","0","1","","0.3260487483","0.6","0.2","0.4","0.8","0.3076259244","0.3260487483","0.4576194683","0.2663655232","","","","","","","","","","","","","","74","J","1","","","40","main_expt",""
"","bandit","121","491448","0.0-82.0-0.0","38386191","wem/bandit_party_1","A2XJAGYVNVPCP0","either","2","350","","","","","","","0","1","0","","0.3390218734","0.6","0.2","0.4","0.8","0.2888769276","0.3390218734","0.4473921051","0.2608266697","","","","","","","","","","","","","","74","J","1","","","41","main_expt",""
"","bandit","122","493343","0.0-83.0-0.0","38386191","wem/bandit_party_1","A2XJAGYVNVPCP0","either","2","383","","","","","","","0","0","1","","0.2889680017","0.6","0.2","0.4","0.8","0.2639198141","0.2889680017","0.425470286","0.2287676803","","","","","","","","","","","","","","74","J","1","","","42","main_expt",""
"","bandit","123","495231","0.0-84.0-0.0","38386191","wem/bandit_party_1","A2XJAGYVNVPCP0","either","2","376","","","","","","","0","0","1","0.4030522017","","0.6","0.2","0.4","0.8","","","","","0.2255441472","0.2784828801","0.4030522017","0.2043112358","","","","","","","","","","75","K","2","","","43","main_expt",""
"","bandit","124","496935","0.0-85.0-0.0","38386191","wem/bandit_party_1","A2XJAGYVNVPCP0","either","2","194","","","","","","","0","0","1","","0.1957049551","0.6","0.2","0.4","0.8","0.2050272072","0.2805729819","0.4106315797","0.1957049551","","","","","","","","","","","","","","76","L","3","","","44","main_expt",""
"","bandit","125","498805","0.0-86.0-0.0","38386191","wem/bandit_party_1","A2XJAGYVNVPCP0","either","2","354","","","","","","","1","0","0","0.2195119073","","0.6","0.2","0.4","0.8","","","","","0.239455925","0.2195119073","0.4258527362","0.2207366272","","","","","","","","","","74","J","1","","","45","main_expt",""
"","bandit","126","500743","0.0-87.0-0.0","38386191","wem/bandit_party_1","A2XJAGYVNVPCP0","either","2","426","","","","","","","0","0","1","","0.2414778298","0.6","0.2","0.4","0.8","0.2414778298","0.2657932304","0.4425966235","0.1727988076","","","","","","","","","","","","","","72","H","0","img/none_selected.jpg","","46","main_expt",""
"","bandit","127","502823","0.0-88.0-0.0","38386191","wem/bandit_party_1","A2XJAGYVNVPCP0","either","2","568","","","","","","","0","0","1","0.2678398397","","0.6","0.2","0.4","0.8","","","","","0.1884211613","0.2678398397","0.4428977597","0.1446735631","","","","","","","","","","74","J","1","","","47","main_expt",""
"","bandit","128","505031","0.0-89.0-0.0","38386191","wem/bandit_party_1","A2XJAGYVNVPCP0","either","2","696","","","","","","","0","0","1","0.4479964269","","0.6","0.2","0.4","0.8","","","","","0.1755274282","0.2866904938","0.4479964269","0.1681765936","","","","","","","","","","75","K","2","","","48","main_expt",""
"","bandit","129","507055","0.0-90.0-0.0","38386191","wem/bandit_party_1","A2XJAGYVNVPCP0","either","2","512","","","","","","","0","0","1","0.1646396384","","0.6","0.2","0.4","0.8","","","","","0.1646396384","0.2803848884","0.4660387519","0.1473883531","","","","","","","","","","72","H","0","img/none_selected.jpg","","49","main_expt",""
"","bandit","130","509439","0.0-91.0-0.0","38386191","wem/bandit_party_1","A2XJAGYVNVPCP0","either","2","870","","","","","","","0","0","1","","0.2587411269","0.6","0.2","0.4","0.8","0.2024226619","0.2587411269","0.4345757832","0.1378170987","","","","","","","","","","","","","","74","J","1","","","50","main_expt",""
"","bandit","131","511422","0.0-92.0-0.0","38386191","wem/bandit_party_1","A2XJAGYVNVPCP0","either","2","472","","","","","","","0","0","1","0.1430360168","","0.6","0.2","0.4","0.8","","","","","0.1976760068","0.2212901065","0.4450950844","0.1430360168","","","","","","","","","","76","L","3","","","51","main_expt",""
"","bandit","132","513614","0.0-93.0-0.0","38386191","wem/bandit_party_1","A2XJAGYVNVPCP0","either","2","679","","","","","","","0","0","1","0.1731798725","","0.6","0.2","0.4","0.8","","","","","0.1796352224","0.236006857","0.4475354499","0.1731798725","","","","","","","","","","76","L","3","","","52","main_expt",""
"","bandit","133","515783","0.0-94.0-0.0","38386191","wem/bandit_party_1","A2XJAGYVNVPCP0","either","2","654","","","","","","","1","0","0","0.1312409056","","0.6","0.2","0.4","0.8","","","","","0.2451732725","0.2660825342","0.4627294295","0.1312409056","","","","","","","","","","76","L","3","","","53","main_expt",""
"","bandit","134","518455","0.0-95.0-0.0","38386191","wem/bandit_party_1","A2XJAGYVNVPCP0","either","2","1159","","","","","","","0","0","1","0.1862053218","","0.6","0.2","0.4","0.8","","","","","0.2621482643","0.2458345041","0.44829207","0.1862053218","","","","","","","","","","76","L","3","","","54","main_expt",""
"","bandit","135","520473","0.0-96.0-0.0","38386191","wem/bandit_party_1","A2XJAGYVNVPCP0","either","2","505","","","","","","","0","0","1","","0.4505537928","0.6","0.2","0.4","0.8","0.2441780383","0.2265690781","0.4505537928","0.1733563037","","","","","","","","","","","","","","75","K","2","","","55","main_expt",""
"","bandit","136","522934","0.0-97.0-0.0","38386191","wem/bandit_party_1","A2XJAGYVNVPCP0","either","2","949","","","","","","","0","0","1","0.199729785","","0.6","0.2","0.4","0.8","","","","","0.199729785","0.2741820357","0.4686400132","0.1728369204","","","","","","","","","","72","H","0","img/none_selected.jpg","","56","main_expt",""
"","bandit","137","525574","0.0-98.0-0.0","38386191","wem/bandit_party_1","A2XJAGYVNVPCP0","either","2","1127","","","","","","","0","0","1","","0.2937641054","0.6","0.2","0.4","0.8","0.1945085845","0.2937641054","0.4572679106","0.09176359954","","","","","","","","","","","","","","74","J","1","","","57","main_expt",""
"","bandit","138","527734","0.0-99.0-0.0","38386191","wem/bandit_party_1","A2XJAGYVNVPCP0","either","2","647","","","","","","","0","0","1","","0.2949827607","0.6","0.2","0.4","0.8","0.2614759052","0.2949827607","0.4300169527","0.04991422033","","","","","","","","","","","","","","74","J","1","","","58","main_expt",""
"","bandit","139","529662","0.0-100.0-0.0","38386191","wem/bandit_party_1","A2XJAGYVNVPCP0","either","2","416","","","","","","","0","0","1","","0.4050829606","0.6","0.2","0.4","0.8","0.2426118991","0.2710075273","0.4050829606","0.053239915","","","","","","","","","","","","","","75","K","2","","","59","main_expt",""
"","bandit","140","531689","0.0-101.0-0.0","38386191","wem/bandit_party_1","A2XJAGYVNVPCP0","either","2","513","","","","","","","0","0","1","0.06994226662","","0.6","0.2","0.4","0.8","","","","","0.2623750897","0.2766623035","0.4070720156","0.06994226662","","","","","","","","","","76","L","3","","","60","main_expt",""
"","bandit","141","533647","0.0-102.0-0.0","38386191","wem/bandit_party_1","A2XJAGYVNVPCP0","either","2","444","","","","","","","0","0","1","0.07064832373","","0.6","0.2","0.4","0.8","","","","","0.2139103784","0.2574592035","0.3895400789","0.07064832373","","","","","","","","","","76","L","3","","","61","main_expt",""
"","bandit","142","535663","0.0-103.0-0.0","38386191","wem/bandit_party_1","A2XJAGYVNVPCP0","either","2","501","","","","","","","0","1","0","","0.4050708951","0.6","0.2","0.4","0.8","0.2566580444","0.2425209234","0.4050708951","0.08925217872","","","","","","","","","","","","","","75","K","2","","","62","main_expt",""
"","bandit","143","537758","0.0-104.0-0.0","38386191","wem/bandit_party_1","A2XJAGYVNVPCP0","either","2","583","","","","","","","0","1","0","","0.3765761212","0.6","0.2","0.4","0.8","0.2393402704","0.2294211584","0.3765761212","0.08505035955","","","","","","","","","","","","","","75","K","2","","","63","main_expt",""
"","bandit","144","540134","0.0-105.0-0.0","38386191","wem/bandit_party_1","A2XJAGYVNVPCP0","either","2","862","","","","","","","0","0","1","","0.3859881554","0.6","0.2","0.4","0.8","0.300105392","0.2350173232","0.3859881554","0.09892528285","","","","","","","","","","","","","","75","K","2","","","64","main_expt",""
"","bandit","145","542307","0.0-106.0-0.0","38386191","wem/bandit_party_1","A2XJAGYVNVPCP0","either","2","660","","","","","","","0","0","1","","0.2775473173","0.6","0.2","0.4","0.8","0.2584268813","0.2775473173","0.3817039273","0.1428545766","","","","","","","","","","","","","","74","J","1","","","65","main_expt",""
"","bandit","146","544494","0.0-107.0-0.0","38386191","wem/bandit_party_1","A2XJAGYVNVPCP0","either","2","672","","","","","","","0","0","1","0.120440259","","0.6","0.2","0.4","0.8","","","","","0.2536378703","0.298861572","0.3622232449","0.120440259","","","","","","","","","","76","L","3","","","66","main_expt",""
"","bandit","147","546574","0.0-108.0-0.0","38386191","wem/bandit_party_1","A2XJAGYVNVPCP0","either","2","567","","","","","","","0","0","1","0.2548884231","","0.6","0.2","0.4","0.8","","","","","0.2548884231","0.3043747659","0.3768721334","0.2019700983","","","","","","","","","","72","H","0","img/none_selected.jpg","","67","main_expt",""
"","bandit","148","548677","0.0-109.0-0.0","38386191","wem/bandit_party_1","A2XJAGYVNVPCP0","either","2","593","","","","","","","0","0","1","0.2105458193","","0.6","0.2","0.4","0.8","","","","","0.2105458193","0.2533072519","0.3826604183","0.1467862533","","","","","","","","","","72","H","0","img/none_selected.jpg","","68","main_expt",""
"","bandit","149","550782","0.0-110.0-0.0","38386191","wem/bandit_party_1","A2XJAGYVNVPCP0","either","2","591","","","","","","","0","0","1","0.2901666962","","0.6","0.2","0.4","0.8","","","","","0.2901666962","0.2451677402","0.3981811202","0.09022805221","","","","","","","","","","72","H","0","img/none_selected.jpg","","69","main_expt",""
"","bandit","150","552635","0.0-111.0-0.0","38386191","wem/bandit_party_1","A2XJAGYVNVPCP0","either","2","338","","","","","","","0","0","1","","0.3936557204","0.6","0.2","0.4","0.8","0.2973761433","0.2403061491","0.3936557204","0.1128827508","","","","","","","","","","","","","","75","K","2","","","70","main_expt",""
"","bandit","151","554509","0.0-112.0-0.0","38386191","wem/bandit_party_1","A2XJAGYVNVPCP0","either","2","362","","","","","","","0","0","1","0.1184182172","","0.6","0.2","0.4","0.8","","","","","0.2737706179","0.1917576795","0.3949471057","0.1184182172","","","","","","","","","","76","L","3","","","71","main_expt",""
"","bandit","152","556814","0.0-113.0-0.0","38386191","wem/bandit_party_1","A2XJAGYVNVPCP0","either","2","790","","","","","","","0","0","1","0.1038133506","","0.6","0.2","0.4","0.8","","","","","0.3005227265","0.1894079546","0.3888869603","0.1038133506","","","","","","","","","","76","L","3","","","72","main_expt",""
"","bandit","153","558809","0.0-114.0-0.0","38386191","wem/bandit_party_1","A2XJAGYVNVPCP0","either","2","478","","","","","","","0","0","1","","0.235909594","0.6","0.2","0.4","0.8","0.3205676235","0.235909594","0.4015056825","0.07830871569","","","","","","","","","","","","","","74","J","1","","","73","main_expt",""
"","bandit","154","560734","0.0-115.0-0.0","38386191","wem/bandit_party_1","A2XJAGYVNVPCP0","either","2","410","","","","","","","0","0","1","","0.2772030277","0.6","0.2","0.4","0.8","0.3040473008","0.2772030277","0.4200542591","0.09226686474","","","","","","","","","","","","","","74","J","1","","","74","main_expt",""
"","bandit","155","562581","0.0-116.0-0.0","38386191","wem/bandit_party_1","A2XJAGYVNVPCP0","either","2","333","","","","","","","1","0","0","0.4353174817","","0.6","0.2","0.4","0.8","","","","","0.2686744794","0.2237268092","0.4353174817","0.07948082514","","","","","","","","","","75","K","2","","","75","main_expt",""
"","bandit","156","564505","0.0-117.0-0.0","38386191","wem/bandit_party_1","A2XJAGYVNVPCP0","either","2","410","","","","","","","0","0","1","0.4196821318","","0.6","0.2","0.4","0.8","","","","","0.258707356","0.1739375455","0.4196821318","0.1279570505","","","","","","","","","","75","K","2","","","76","main_expt",""
"","bandit","157","566429","0.0-118.0-0.0","38386191","wem/bandit_party_1","A2XJAGYVNVPCP0","either","2","410","","","","","","","0","0","1","0.3787369199","","0.6","0.2","0.4","0.8","","","","","0.3010070056","0.1648796623","0.3787369199","0.1202820049","","","","","","","","","","75","K","2","","","77","main_expt",""
"","bandit","158","568357","0.0-119.0-0.0","38386191","wem/bandit_party_1","A2XJAGYVNVPCP0","either","2","413","","","","","","","1","0","0","0.1054071572","","0.6","0.2","0.4","0.8","","","","","0.2648586626","0.1637798684","0.4314930014","0.1054071572","","","","","","","","","","76","L","3","","","78","main_expt",""
"","bandit","159","570350","0.0-120.0-0.0","38386191","wem/bandit_party_1","A2XJAGYVNVPCP0","either","2","479","","","","","","","0","0","1","0.1403095361","","0.6","0.2","0.4","0.8","","","","","0.1984114041","0.1490076182","0.4155078174","0.1403095361","","","","","","","","","","76","L","3","","","79","main_expt",""
"","bandit","160","572646","0.0-121.0-0.0","38386191","wem/bandit_party_1","A2XJAGYVNVPCP0","either","2","781","","","","","","","0","0","1","","0.180325551","0.6","0.2","0.4","0.8","0.180325551","0.1093198388","0.4226243671","0.1891235553","","","","","","","","","","","","","","72","H","0","img/none_selected.jpg","","80","main_expt",""
"","bandit","161","574697","0.0-122.0-0.0","38386191","wem/bandit_party_1","A2XJAGYVNVPCP0","either","2","537","","","","","","","0","0","1","","0.08868186825","0.6","0.2","0.4","0.8","0.224531153","0.08868186825","0.4474166549","0.1858030354","","","","","","","","","","","","","","74","J","1","","","81","main_expt",""
"","bandit","162","576397","0.0-123.0-0.0","38386191","wem/bandit_party_1","A2XJAGYVNVPCP0","either","2","184","","","","","","","1","0","0","0.4636297045","","0.6","0.2","0.4","0.8","","","","","0.221125015","0.1073880826","0.4636297045","0.2476542501","","","","","","","","","","75","K","2","","","82","main_expt",""
"","bandit","163","578350","0.0-124.0-0.0","38386191","wem/bandit_party_1","A2XJAGYVNVPCP0","either","2","438","","","","","","","0","0","1","","0.467509749","0.6","0.2","0.4","0.8","0.2143237207","0.1022587498","0.467509749","0.2188241074","","","","","","","","","","","","","","75","K","2","","","83","main_expt",""
"","bandit","164","580181","0.0-125.0-0.0","38386191","wem/bandit_party_1","A2XJAGYVNVPCP0","either","2","317","","","","","","","1","0","0","0.2754771977","","0.6","0.2","0.4","0.8","","","","","0.2097367537","0.1085807699","0.4551111531","0.2754771977","","","","","","","","","","76","L","3","","","84","main_expt",""
"","bandit","165","582067","0.0-126.0-0.0","38386191","wem/bandit_party_1","A2XJAGYVNVPCP0","either","2","373","","","","","","","0","0","1","0.2965575968","","0.6","0.2","0.4","0.8","","","","","0.1661536269","0.1263918358","0.4621419017","0.2965575968","","","","","","","","","","76","L","3","","","85","main_expt",""
"","bandit","166","584049","0.0-127.0-0.0","38386191","wem/bandit_party_1","A2XJAGYVNVPCP0","either","2","476","","","","","","","0","0","1","","0.4612050897","0.6","0.2","0.4","0.8","0.1364458955","0.1481941301","0.4612050897","0.257129161","","","","","","","","","","","","","","75","K","2","","","86","main_expt",""
"","bandit","167","586481","0.0-128.0-0.0","38386191","wem/bandit_party_1","A2XJAGYVNVPCP0","either","2","918","","","","","","","0","0","1","0.08235553135","","0.6","0.2","0.4","0.8","","","","","0.08235553135","0.1447872846","0.4334675206","0.2338967043","","","","","","","","","","72","H","0","img/none_selected.jpg","","87","main_expt",""
"","bandit","168","588238","0.0-129.0-0.0","38386191","wem/bandit_party_1","A2XJAGYVNVPCP0","either","2","247","","","","","","","0","0","1","0.1391637727","","0.6","0.2","0.4","0.8","","","","","0.0754832669","0.1391637727","0.4397617206","0.2161535794","","","","","","","","","","74","J","1","","","88","main_expt",""
"","bandit","169","590213","0.0-130.0-0.0","38386191","wem/bandit_party_1","A2XJAGYVNVPCP0","either","2","456","","","","","","","0","0","1","","0.4635478967","0.6","0.2","0.4","0.8","0.109361408","0.1476089376","0.4635478967","0.2043146745","","","","","","","","","","","","","","75","K","2","","","89","main_expt",""
"","bandit","170","592213","0.0-131.0-0.0","38386191","wem/bandit_party_1","A2XJAGYVNVPCP0","either","2","486","","","","","","","0","0","1","0.07391079866","","0.6","0.2","0.4","0.8","","","","","0.07391079866","0.2081489191","0.4234969579","0.2346009907","","","","","","","","","","72","H","0","img/none_selected.jpg","","90","main_expt",""
"","bandit","171","594485","0.0-132.0-0.0","38386191","wem/bandit_party_1","A2XJAGYVNVPCP0","either","2","757","","","","","","","0","0","1","0.1164594673","","0.6","0.2","0.4","0.8","","","","","0.1164594673","0.1834039029","0.4267507071","0.2333967219","","","","","","","","","","72","H","0","img/none_selected.jpg","","91","main_expt",""
"","bandit","172","596784","0.0-133.0-0.0","38386191","wem/bandit_party_1","A2XJAGYVNVPCP0","either","2","785","","","","","","","0","0","1","","0.2027314649","0.6","0.2","0.4","0.8","0.113043345","0.2027314649","0.4089505196","0.2150480475","","","","","","","","","","","","","","74","J","1","","","92","main_expt",""
"","bandit","173","598741","0.0-134.0-0.0","38386191","wem/bandit_party_1","A2XJAGYVNVPCP0","either","2","443","","","","","","","0","0","1","0.4112501448","","0.6","0.2","0.4","0.8","","","","","0.1714352716","0.1738894496","0.4112501448","0.2588080464","","","","","","","","","","75","K","2","","","93","main_expt",""
"","bandit","174","600652","0.0-135.0-0.0","38386191","wem/bandit_party_1","A2XJAGYVNVPCP0","either","2","393","","","","","","","0","1","0","","0.2748849181","0.6","0.2","0.4","0.8","0.1253024032","0.2484708832","0.452415855","0.2748849181","","","","","","","","","","","","","","76","L","3","","","94","main_expt",""
"","bandit","175","602798","0.0-136.0-0.0","38386191","wem/bandit_party_1","A2XJAGYVNVPCP0","either","2","631","","","","","","","0","0","1","0.2791739054","","0.6","0.2","0.4","0.8","","","","","0.1401284447","0.2914685715","0.4589197587","0.2791739054","","","","","","","","","","76","L","3","","","95","main_expt",""
"","bandit","176","604765","0.0-137.0-0.0","38386191","wem/bandit_party_1","A2XJAGYVNVPCP0","either","2","454","","","","","","","1","0","0","0.4481870348","","0.6","0.2","0.4","0.8","","","","","0.1320491369","0.2417524935","0.4481870348","0.3149564315","","","","","","","","","","75","K","2","","","96","main_expt",""
"","bandit","177","607064","0.0-138.0-0.0","38386191","wem/bandit_party_1","A2XJAGYVNVPCP0","either","2","784","","","","","","","0","0","1","","0.4597072186","0.6","0.2","0.4","0.8","0.1518453759","0.2492821404","0.4597072186","0.372564007","","","","","","","","","","","","","","75","K","2","","","97","main_expt",""
"","bandit","178","609140","0.0-139.0-0.0","38386191","wem/bandit_party_1","A2XJAGYVNVPCP0","either","2","561","","","","","","","1","0","0","0.393328365","","0.6","0.2","0.4","0.8","","","","","0.2173959583","0.3002958449","0.4705619112","0.393328365","","","","","","","","","","76","L","3","","","98","main_expt",""
"","bandit","179","611348","0.0-140.0-0.0","38386191","wem/bandit_party_1","A2XJAGYVNVPCP0","either","2","693","","","","","","","0","1","0","","0.3544832656","0.6","0.2","0.4","0.8","0.2618725657","0.3544832656","0.4800968761","0.421239771","","","","","","","","","","","","","","74","J","1","","","99","main_expt",""
"","bandit","180","613836","0.0-141.0-0.0","38386191","wem/bandit_party_1","A2XJAGYVNVPCP0","either","2","974","","","","","","","1","0","0","0.3810954338","","0.6","0.2","0.4","0.8","","","","","0.2487788848","0.3810954338","0.4780143146","0.4130759476","","","","","","","","","","74","J","1","","","100","main_expt",""
"","bandit","181","615940","0.0-142.0-0.0","38386191","wem/bandit_party_1","A2XJAGYVNVPCP0","either","2","592","","","","","","","0","0","1","","0.4042362267","0.6","0.2","0.4","0.8","0.2890792313","0.4042362267","0.4849002763","0.4089462913","","","","","","","","","","","","","","74","J","1","","","101","main_expt",""
"","bandit","182","618064","0.0-143.0-0.0","38386191","wem/bandit_party_1","A2XJAGYVNVPCP0","either","2","608","","","","","","","1","0","0","0.370330464","","0.6","0.2","0.4","0.8","","","","","0.3136369757","0.4594696392","0.4886078379","0.370330464","","","","","","","","","","76","L","3","","","102","main_expt",""
"","bandit","183","620084","0.0-144.0-0.0","38386191","wem/bandit_party_1","A2XJAGYVNVPCP0","either","2","504","","","","","","","1","0","0","0.47121906","","0.6","0.2","0.4","0.8","","","","","0.2364671533","0.4588766667","0.47121906","0.3306315663","","","","","","","","","","75","K","2","","","103","main_expt",""
"","bandit","184","622004","0.0-145.0-0.0","38386191","wem/bandit_party_1","A2XJAGYVNVPCP0","either","2","404","","","","","","","1","0","0","0.354634178","","0.6","0.2","0.4","0.8","","","","","0.2202486688","0.4372785745","0.4760763377","0.354634178","","","","","","","","","","76","L","3","","","104","main_expt",""
"","bandit","185","624189","0.0-146.0-0.0","38386191","wem/bandit_party_1","A2XJAGYVNVPCP0","either","2","668","","","","","","","0","1","0","","0.4063887309","0.6","0.2","0.4","0.8","0.1854418088","0.4063887309","0.4701389446","0.3896605338","","","","","","","","","","","","","","74","J","1","","","105","main_expt",""
"","bandit","186","626644","0.0-147.0-0.0","38386191","wem/bandit_party_1","A2XJAGYVNVPCP0","either","2","941","","","","","","","0","0","1","","0.3778019321","0.6","0.2","0.4","0.8","0.1596754559","0.3778019321","0.471324938","0.414339711","","","","","","","","","","","","","","74","J","1","","","106","main_expt",""
"","bandit","187","628688","0.0-148.0-0.0","38386191","wem/bandit_party_1","A2XJAGYVNVPCP0","either","2","528","","","","","","","0","0","1","0.137099288","","0.6","0.2","0.4","0.8","","","","","0.137099288","0.3614143111","0.4786694594","0.4164239898","","","","","","","","","","72","H","0","img/none_selected.jpg","","107","main_expt",""
"","bandit","188","630468","0.0-149.0-0.0","38386191","wem/bandit_party_1","A2XJAGYVNVPCP0","either","2","264","","","","","","","0","0","1","0.4810065258","","0.6","0.2","0.4","0.8","","","","","0.1443984823","0.3681250399","0.4810065258","0.3836571442","","","","","","","","","","75","K","2","","","108","main_expt",""
"","bandit","189","632540","0.0-150.0-0.0","38386191","wem/bandit_party_1","A2XJAGYVNVPCP0","either","2","557","","","","","","","0","0","1","0.1409511773","","0.6","0.2","0.4","0.8","","","","","0.1409511773","0.3446081275","0.4816764674","0.3881214568","","","","","","","","","","72","H","0","img/none_selected.jpg","","109","main_expt",""
"","bandit","190","634405","0.0-151.0-0.0","38386191","wem/bandit_party_1","A2XJAGYVNVPCP0","either","2","350","","","","","","","0","0","1","","0.3681270965","0.6","0.2","0.4","0.8","0.1787750665","0.3681270965","0.4882082215","0.4266873791","","","","","","","","","","","","","","74","J","1","","","110","main_expt",""
"","bandit","191","636331","0.0-152.0-0.0","38386191","wem/bandit_party_1","A2XJAGYVNVPCP0","either","2","411","","","","","","","0","0","1","","0.4475699482","0.6","0.2","0.4","0.8","0.1862786225","0.391379093","0.478642168","0.4475699482","","","","","","","","","","","","","","76","L","3","","","111","main_expt",""
"","bandit","192","638245","0.0-153.0-0.0","38386191","wem/bandit_party_1","A2XJAGYVNVPCP0","either","2","398","","","","","","","0","0","1","","0.4841415165","0.6","0.2","0.4","0.8","0.1654620982","0.4131544452","0.4841415165","0.4190314983","","","","","","","","","","","","","","75","K","2","","","112","main_expt",""
"","bandit","193","640135","0.0-154.0-0.0","38386191","wem/bandit_party_1","A2XJAGYVNVPCP0","either","2","377","","","","","","","0","1","0","","0.3666128881","0.6","0.2","0.4","0.8","0.1582981878","0.3963985948","0.4883212127","0.3666128881","","","","","","","","","","","","","","76","L","3","","","113","main_expt",""
"","bandit","194","642204","0.0-155.0-0.0","38386191","wem/bandit_party_1","A2XJAGYVNVPCP0","either","2","554","","","","","","","0","1","0","","0.3866259854","0.6","0.2","0.4","0.8","0.1922757069","0.4117985871","0.4883790739","0.3866259854","","","","","","","","","","","","","","76","L","3","","","114","main_expt",""
"","bandit","195","644284","0.0-156.0-0.0","38386191","wem/bandit_party_1","A2XJAGYVNVPCP0","either","2","565","","","","","","","0","0","1","0.354161152","","0.6","0.2","0.4","0.8","","","","","0.185618385","0.394381103","0.4902011966","0.354161152","","","","","","","","","","76","L","3","","","115","main_expt",""
"","bandit","196","646540","0.0-157.0-0.0","38386191","wem/bandit_party_1","A2XJAGYVNVPCP0","either","2","739","","","","","","","0","0","1","","0.3762408663","0.6","0.2","0.4","0.8","0.2057277395","0.3762408663","0.4844723045","0.3170745426","","","","","","","","","","","","","","74","J","1","","","116","main_expt",""
"","bandit","197","648468","0.0-158.0-0.0","38386191","wem/bandit_party_1","A2XJAGYVNVPCP0","either","2","410","","","","","","","0","1","0","","0.2288411079","0.6","0.2","0.4","0.8","0.2288411079","0.3823674378","0.4895589844","0.304536318","","","","","","","","","","","","","","72","H","0","img/none_selected.jpg","","117","main_expt",""
"","bandit","198","650407","0.0-159.0-0.0","38386191","wem/bandit_party_1","A2XJAGYVNVPCP0","either","2","424","","","","","","","0","0","1","0.2207517482","","0.6","0.2","0.4","0.8","","","","","0.2207517482","0.4050195855","0.4899729034","0.3411026949","","","","","","","","","","72","H","0","img/none_selected.jpg","","118","main_expt",""
"","bandit","199","652332","0.0-160.0-0.0","38386191","wem/bandit_party_1","A2XJAGYVNVPCP0","either","2","407","","","","","","","0","0","1","0.4947041593","","0.6","0.2","0.4","0.8","","","","","0.1955286499","0.4227562767","0.4947041593","0.3447942488","","","","","","","","","","75","K","2","","","119","main_expt",""
"","bandit","200","654268","0.0-161.0-0.0","38386191","wem/bandit_party_1","A2XJAGYVNVPCP0","either","2","419","","","","","","","0","0","1","0.3686185352","","0.6","0.2","0.4","0.8","","","","","0.2427950695","0.4163810796","0.4916865355","0.3686185352","","","","","","","","","","76","L","3","","","120","main_expt",""
"","bandit","201","656517","0.0-162.0-0.0","38386191","wem/bandit_party_1","A2XJAGYVNVPCP0","either","2","732","","","","","","","0","0","1","","0.4860386064","0.6","0.2","0.4","0.8","0.2479682904","0.406821829","0.4860386064","0.3547669752","","","","","","","","","","","","","","75","K","2","","","121","main_expt",""
"","bandit","202","658452","0.0-163.0-0.0","38386191","wem/bandit_party_1","A2XJAGYVNVPCP0","either","2","420","","","","","","","0","0","1","0.365994073","","0.6","0.2","0.4","0.8","","","","","0.3081985406","0.3999449125","0.483083859","0.365994073","","","","","","","","","","76","L","3","","","122","main_expt",""
"","bandit","203","660903","0.0-164.0-0.0","38386191","wem/bandit_party_1","A2XJAGYVNVPCP0","either","2","934","","","","","","","0","0","1","","0.366626489","0.6","0.2","0.4","0.8","0.3089359708","0.366626489","0.4791491275","0.3120596142","","","","","","","","","","","","","","74","J","1","","","123","main_expt",""
"","bandit","204","662796","0.0-165.0-0.0","38386191","wem/bandit_party_1","A2XJAGYVNVPCP0","either","2","379","","","","","","","0","0","1","","0.4776777384","0.6","0.2","0.4","0.8","0.3298338218","0.3706278578","0.4776777384","0.302161917","","","","","","","","","","","","","","75","K","2","","","124","main_expt",""
"","bandit","205","664756","0.0-166.0-0.0","38386191","wem/bandit_party_1","A2XJAGYVNVPCP0","either","2","443","","","","","","","0","0","1","0.2794370347","","0.6","0.2","0.4","0.8","","","","","0.2795250441","0.3545504723","0.478983255","0.2794370347","","","","","","","","","","76","L","3","","","125","main_expt",""
"","bandit","206","666828","0.0-167.0-0.0","38386191","wem/bandit_party_1","A2XJAGYVNVPCP0","either","2","556","","","","","","","1","0","0","0.2184127205","","0.6","0.2","0.4","0.8","","","","","0.2184127205","0.3106298006","0.4724726719","0.2466154908","","","","","","","","","","72","H","0","img/none_selected.jpg","","126","main_expt",""
"","bandit","207","669026","0.0-168.0-0.0","38386191","wem/bandit_party_1","A2XJAGYVNVPCP0","either","2","683","","","","","","","1","0","0","0.2488858907","","0.6","0.2","0.4","0.8","","","","","0.2488858907","0.3351405197","0.4796244369","0.2712823261","","","","","","","","","","72","H","0","img/none_selected.jpg","","127","main_expt",""
"","bandit","208","671662","0.0-169.0-0.0","38386191","wem/bandit_party_1","A2XJAGYVNVPCP0","either","2","1128","","","","","","","0","1","0","","0.2850827173","0.6","0.2","0.4","0.8","0.2850827173","0.2984422464","0.4825212971","0.2095517986","","","","","","","","","","","","","","72","H","0","img/none_selected.jpg","","128","main_expt",""
"","bandit","209","674020","0.0-170.0-0.0","38386191","wem/bandit_party_1","A2XJAGYVNVPCP0","either","2","841","","","","","","","0","0","1","","0.2027892291","0.6","0.2","0.4","0.8","0.2867242009","0.2027892291","0.4877535013","0.1986866195","","","","","","","","","","","","","","74","J","1","","","129","main_expt",""
"","bandit","210","675876","0.0-171.0-0.0","38386191","wem/bandit_party_1","A2XJAGYVNVPCP0","either","2","341","","","","","","","1","0","0","0.2509552002","","0.6","0.2","0.4","0.8","","","","","0.2509552002","0.13768179","0.4833646461","0.172959111","","","","","","","","","","72","H","0","img/none_selected.jpg","","130","main_expt",""
"","bandit","211","678612","0.0-172.0-0.0","38386191","wem/bandit_party_1","A2XJAGYVNVPCP0","either","2","1218","","","","","","","0","0","1","0.2172434631","","0.6","0.2","0.4","0.8","","","","","0.2172434631","0.1352832961","0.4790990265","0.163172462","","","","","","","","","","72","H","0","img/none_selected.jpg","","131","main_expt",""
"","bandit","212","680612","0.0-173.0-0.0","38386191","wem/bandit_party_1","A2XJAGYVNVPCP0","either","2","483","","","","","","","0","0","1","","0.161148659","0.6","0.2","0.4","0.8","0.158295755","0.08660982753","0.4882311922","0.161148659","","","","","","","","","","","","","","76","L","3","","","132","main_expt",""
"","bandit","213","682524","0.0-174.0-0.0","38386191","wem/bandit_party_1","A2XJAGYVNVPCP0","either","2","395","","","","","","","1","0","0","0.4889625365","","0.6","0.2","0.4","0.8","","","","","0.185310911","0.1020907376","0.4889625365","0.1735641072","","","","","","","","","","75","K","2","","","133","main_expt",""
"","bandit","214","684554","0.0-175.0-0.0","38386191","wem/bandit_party_1","A2XJAGYVNVPCP0","either","2","515","","","","","","","0","1","0","","0.4916783795","0.6","0.2","0.4","0.8","0.1966535246","0.1231499397","0.4916783795","0.1597390633","","","","","","","","","","","","","","75","K","2","","","134","main_expt",""
"","bandit","215","686498","0.0-176.0-0.0","38386191","wem/bandit_party_1","A2XJAGYVNVPCP0","either","2","427","","","","","","","0","0","1","0.1460070414","","0.6","0.2","0.4","0.8","","","","","0.2290191974","0.1524236556","0.4904315354","0.1460070414","","","","","","","","","","76","L","3","","","135","main_expt",""
"","bandit","216","688317","0.0-177.0-0.0","38386191","wem/bandit_party_1","A2XJAGYVNVPCP0","either","2","310","","","","","","","0","1","0","","0.491666595","0.6","0.2","0.4","0.8","0.2929229053","0.1954247664","0.491666595","0.105474526","","","","","","","","","","","","","","75","K","2","","","136","main_expt",""
"","bandit","217","691339","0.0-178.0-0.0","38386191","wem/bandit_party_1","A2XJAGYVNVPCP0","either","2","1505","","","","","","","0","0","1","","0.1833989084","0.6","0.2","0.4","0.8","0.2780805385","0.1833989084","0.4917142499","0.08835118593","","","","","","","","","","","","","","74","J","1","","","137","main_expt",""
"","bandit","218","693199","0.0-179.0-0.0","38386191","wem/bandit_party_1","A2XJAGYVNVPCP0","either","2","343","","","","","","","0","0","1","0.4870170403","","0.6","0.2","0.4","0.8","","","","","0.217224157","0.1490533902","0.4870170403","0.06418360449","","","","","","","","","","75","K","2","","","138","main_expt",""
"","bandit","219","695219","0.0-180.0-0.0","38386191","wem/bandit_party_1","A2XJAGYVNVPCP0","either","2","503","","","","","","","0","0","1","","0.2323391466","0.6","0.2","0.4","0.8","0.2323391466","0.1318817547","0.4834992155","0.03554325754","","","","","","","","","","","","","","72","H","0","img/none_selected.jpg","","139","main_expt",""
"","bandit","220","697219","0.0-181.0-0.0","38386191","wem/bandit_party_1","A2XJAGYVNVPCP0","either","2","484","","","","","","","0","0","1","0.4927392517","","0.6","0.2","0.4","0.8","","","","","0.244475209","0.1877412345","0.4927392517","0.04477370895","","","","","","","","","","75","K","2","","","140","main_expt",""
"","bandit","221","699451","0.0-182.0-0.0","38386191","wem/bandit_party_1","A2XJAGYVNVPCP0","either","2","715","","","","","","","0","0","1","0.03780119019","","0.6","0.2","0.4","0.8","","","","","0.232604034","0.2363671377","0.4872377518","0.03780119019","","","","","","","","","","76","L","3","","","141","main_expt",""
"","bandit","222","701347","0.0-183.0-0.0","38386191","wem/bandit_party_1","A2XJAGYVNVPCP0","either","2","380","","","","","","","1","0","0","0.4846254936","","0.6","0.2","0.4","0.8","","","","","0.2447345556","0.2546402356","0.4846254936","0.03149913875","","","","","","","","","","75","K","2","","","142","main_expt",""
"","bandit","223","703312","0.0-184.0-0.0","38386191","wem/bandit_party_1","A2XJAGYVNVPCP0","either","2","443","","","","","","","0","1","0","","0.4815328815","0.6","0.2","0.4","0.8","0.26413271","0.2825544685","0.4815328815","0.04191513266","","","","","","","","","","","","","","75","K","2","","","143","main_expt",""
"","bandit","224","705547","0.0-185.0-0.0","38386191","wem/bandit_party_1","A2XJAGYVNVPCP0","either","2","718","","","","","","","1","0","0","0.1988203511","","0.6","0.2","0.4","0.8","","","","","0.1988203511","0.2731230023","0.4854048375","0.05613120157","","","","","","","","","","72","H","0","img/none_selected.jpg","","144","main_expt",""
"","bandit","225","707786","0.0-186.0-0.0","38386191","wem/bandit_party_1","A2XJAGYVNVPCP0","either","2","723","","","","","","","0","1","0","","0.2943814715","0.6","0.2","0.4","0.8","0.217822638","0.2943814715","0.4813029389","0.03827589539","","","","","","","","","","","","","","74","J","1","","","145","main_expt",""
"","bandit","226","709674","0.0-187.0-0.0","38386191","wem/bandit_party_1","A2XJAGYVNVPCP0","either","2","372","","","","","","","1","0","0","0.4884824202","","0.6","0.2","0.4","0.8","","","","","0.2009042904","0.328634005","0.4884824202","0.02861175853","","","","","","","","","","75","K","2","","","146","main_expt",""
"","bandit","227","711947","0.0-188.0-0.0","38386191","wem/bandit_party_1","A2XJAGYVNVPCP0","either","2","755","","","","","","","0","1","0","","0.3511209141","0.6","0.2","0.4","0.8","0.2080446297","0.3511209141","0.4835291327","0.02140640811","","","","","","","","","","","","","","74","J","1","","","147","main_expt",""
"","bandit","228","713926","0.0-189.0-0.0","38386191","wem/bandit_party_1","A2XJAGYVNVPCP0","either","2","463","","","","","","","0","0","1","","0.4716003481","0.6","0.2","0.4","0.8","0.1536700415","0.3874996206","0.4716003481","0.0202041473","","","","","","","","","","","","","","75","K","2","","","148","main_expt",""
"","bandit","229","715859","0.0-190.0-0.0","38386191","wem/bandit_party_1","A2XJAGYVNVPCP0","either","2","414","","","","","","","0","0","1","0.1593661633","","0.6","0.2","0.4","0.8","","","","","0.1593661633","0.3476646045","0.4341886607","0.01154190459","","","","","","","","","","72","H","0","img/none_selected.jpg","","149","main_expt",""
"","bandit","230","717642","0.0-191.0-0.0","38386191","wem/bandit_party_1","A2XJAGYVNVPCP0","either","2","267","","","","","","","0","0","1","0.01291237021","","0.6","0.2","0.4","0.8","","","","","0.144955896","0.3323010919","0.4014438172","0.01291237021","","","","","","","","","","76","L","3","","","150","main_expt",""
"","bandit","231","719531","0.0-192.0-0.0","38386191","wem/bandit_party_1","A2XJAGYVNVPCP0","either","2","372","","","","","","","0","1","0","","0.3980713407","0.6","0.2","0.4","0.8","0.2123564028","0.3954477196","0.3980713407","0.0137789916","","","","","","","","","","","","","","75","K","2","","","151","main_expt",""
"","bandit","232","721682","0.0-193.0-0.0","38386191","wem/bandit_party_1","A2XJAGYVNVPCP0","either","2","635","","","","","","","0","0","1","0.4186327087","","0.6","0.2","0.4","0.8","","","","","0.2301890466","0.4186327087","0.4002357887","0.01985271471","","","","","","","","","","74","J","1","","","152","main_expt",""
"","bandit","233","723666","0.0-194.0-0.0","38386191","wem/bandit_party_1","A2XJAGYVNVPCP0","either","2","465","","","","","","","0","0","1","0.388677987","","0.6","0.2","0.4","0.8","","","","","0.2295153641","0.4029566754","0.388677987","0.02951100453","","","","","","","","","","75","K","2","","","153","main_expt",""
"","bandit","234","725845","0.0-195.0-0.0","38386191","wem/bandit_party_1","A2XJAGYVNVPCP0","either","2","662","","","","","","","0","0","1","","0.2163321136","0.6","0.2","0.4","0.8","0.2163321136","0.4037751878","0.3817747688","0.02325572033","","","","","","","","","","","","","","72","H","0","img/none_selected.jpg","","154","main_expt",""
"","bandit","235","727939","0.0-196.0-0.0","38386191","wem/bandit_party_1","A2XJAGYVNVPCP0","either","2","576","","","","","","","0","0","1","","0.4078727314","0.6","0.2","0.4","0.8","0.2257858177","0.4078727314","0.327727533","0.03925092562","","","","","","","","","","","","","","74","J","1","","","155","main_expt",""
"","bandit","236","729931","0.0-197.0-0.0","38386191","wem/bandit_party_1","A2XJAGYVNVPCP0","either","2","474","","","","","","","0","0","1","","0.2821504166","0.6","0.2","0.4","0.8","0.2077891775","0.3941681487","0.2821504166","0.05532081832","","","","","","","","","","","","","","75","K","2","","","156","main_expt",""
"","bandit","237","731931","0.0-198.0-0.0","38386191","wem/bandit_party_1","A2XJAGYVNVPCP0","either","2","481","","","","","","","0","0","1","0.05983660039","","0.6","0.2","0.4","0.8","","","","","0.1742908387","0.3417147062","0.2784527126","0.05983660039","","","","","","","","","","76","L","3","","","157","main_expt",""
"","bandit","238","733866","0.0-199.0-0.0","38386191","wem/bandit_party_1","A2XJAGYVNVPCP0","either","2","420","","","","","","","0","1","0","","0.2857058734","0.6","0.2","0.4","0.8","0.162057643","0.2963220618","0.2857058734","0.09347744845","","","","","","","","","","","","","","75","K","2","","","158","main_expt",""
"","bandit","239","735867","0.0-200.0-0.0","38386191","wem/bandit_party_1","A2XJAGYVNVPCP0","either","2","484","","","","","","","0","0","1","","0.2349295223","0.6","0.2","0.4","0.8","0.1805514511","0.2961528309","0.2349295223","0.09649648717","","","","","","","","","","","","","","75","K","2","","","159","main_expt",""
"","bandit","240","737890","0.0-201.0-0.0","38386191","wem/bandit_party_1","A2XJAGYVNVPCP0","either","2","505","","","","","","","0","0","1","0.08382429791","","0.6","0.2","0.4","0.8","","","","","0.1724629995","0.2842772575","0.2275717407","0.08382429791","","","","","","","","","","76","L","3","","","160","main_expt",""
"","bandit","241","739882","0.0-202.0-0.0","38386191","wem/bandit_party_1","A2XJAGYVNVPCP0","either","2","474","","","","","","","0","0","1","","0.2747674873","0.6","0.2","0.4","0.8","0.1660992999","0.2747674873","0.2559884592","0.1466352983","","","","","","","","","","","","","","74","J","1","","","161","main_expt",""
"","bandit","242","741738","0.0-203.0-0.0","38386191","wem/bandit_party_1","A2XJAGYVNVPCP0","either","2","338","","","","","","","0","0","1","","0.2281832109","0.6","0.2","0.4","0.8","0.2281832109","0.2993190406","0.2670526618","0.1569467617","","","","","","","","","","","","","","72","H","0","img/none_selected.jpg","","162","main_expt",""
"","bandit","243","743579","0.0-204.0-0.0","38386191","wem/bandit_party_1","A2XJAGYVNVPCP0","either","2","323","","","","","","","0","0","1","","0.2618894379","0.6","0.2","0.4","0.8","0.2144285545","0.3102408377","0.2618894379","0.1437935099","","","","","","","","","","","","","","75","K","2","","","163","main_expt",""
"","bandit","244","745467","0.0-205.0-0.0","38386191","wem/bandit_party_1","A2XJAGYVNVPCP0","either","2","370","","","","","","","0","0","1","","0.2607878409","0.6","0.2","0.4","0.8","0.2131293933","0.2607878409","0.2977476978","0.1503677763","","","","","","","","","","","","","","74","J","1","","","164","main_expt",""
"","bandit","245","747348","0.0-206.0-0.0","38386191","wem/bandit_party_1","A2XJAGYVNVPCP0","either","2","364","","","","","","","0","0","1","","0.2470054868","0.6","0.2","0.4","0.8","0.251698227","0.2470054868","0.3138636066","0.1574825995","","","","","","","","","","","","","","74","J","1","","","165","main_expt",""
"","bandit","246","749162","0.0-207.0-0.0","38386191","wem/bandit_party_1","A2XJAGYVNVPCP0","either","2","303","","","","","","","0","0","1","","0.2831539445","0.6","0.2","0.4","0.8","0.2831539445","0.2629624785","0.3204338644","0.1500633275","","","","","","","","","","","","","","72","H","0","img/none_selected.jpg","","166","main_expt",""
"","bandit","247","750819","0.0-208.0-0.0","38386191","wem/bandit_party_1","A2XJAGYVNVPCP0","either","2","138","","","","","","","0","0","1","0.1137242654","","0.6","0.2","0.4","0.8","","","","","0.2496169508","0.2745713682","0.3600517585","0.1137242654","","","","","","","","","","76","L","3","","","167","main_expt",""
"","bandit","248","753018","0.0-209.0-0.0","38386191","wem/bandit_party_1","A2XJAGYVNVPCP0","either","2","680","","","","","","","0","0","1","0.145192941","","0.6","0.2","0.4","0.8","","","","","0.2315540067","0.2557249153","0.3678373827","0.145192941","","","","","","","","","","76","L","3","","","168","main_expt",""
"","bandit","249","755066","0.0-210.0-0.0","38386191","wem/bandit_party_1","A2XJAGYVNVPCP0","either","2","531","","","","","","","0","0","1","","0.3421512568","0.6","0.2","0.4","0.8","0.1825517174","0.2016321063","0.3421512568","0.1863479632","","","","","","","","","","","","","","75","K","2","","","169","main_expt",""
"","bandit","250","757020","0.0-211.0-0.0","38386191","wem/bandit_party_1","A2XJAGYVNVPCP0","either","2","434","","","","","","","0","1","0","","0.3917895485","0.6","0.2","0.4","0.8","0.2535959064","0.2210696627","0.3917895485","0.142304713","","","","","","","","","","","","","","75","K","2","","","170","main_expt",""
"","bandit","251","759069","0.0-212.0-0.0","38386191","wem/bandit_party_1","A2XJAGYVNVPCP0","either","2","532","","","","","","","0","0","1","","0.3206692194","0.6","0.2","0.4","0.8","0.3004284576","0.1627904758","0.3206692194","0.1739768979","","","","","","","","","","","","","","75","K","2","","","171","main_expt",""
"","bandit","252","761291","0.0-213.0-0.0","38386191","wem/bandit_party_1","A2XJAGYVNVPCP0","either","2","702","","","","","","","0","0","1","0.3198600846","","0.6","0.2","0.4","0.8","","","","","0.2716191145","0.1421076649","0.3198600846","0.2172659048","","","","","","","","","","75","K","2","","","172","main_expt",""
"","bandit","253","763338","0.0-214.0-0.0","38386191","wem/bandit_party_1","A2XJAGYVNVPCP0","either","2","527","","","","","","","0","0","1","0.3253138029","","0.6","0.2","0.4","0.8","","","","","0.3253138029","0.165050165","0.2641483633","0.2419731025","","","","","","","","","","72","H","0","img/none_selected.jpg","","173","main_expt",""
"","bandit","254","765298","0.0-215.0-0.0","38386191","wem/bandit_party_1","A2XJAGYVNVPCP0","either","2","441","","","","","","","0","0","1","","0.3419591401","0.6","0.2","0.4","0.8","0.3419591401","0.1406738207","0.2248062597","0.2239571331","","","","","","","","","","","","","","72","H","0","img/none_selected.jpg","","174","main_expt",""
"","bandit","255","767290","0.0-216.0-0.0","38386191","wem/bandit_party_1","A2XJAGYVNVPCP0","either","2","469","","","","","","","0","0","1","0.138310495","","0.6","0.2","0.4","0.8","","","","","0.3442692367","0.138310495","0.2370379408","0.2311410243","","","","","","","","","","74","J","1","","","175","main_expt",""
"","bandit","256","769436","0.0-217.0-0.0","38386191","wem/bandit_party_1","A2XJAGYVNVPCP0","either","2","627","","","","","","","0","0","1","0.2610077479","","0.6","0.2","0.4","0.8","","","","","0.3397266539","0.1675243642","0.2157433706","0.2610077479","","","","","","","","","","76","L","3","","","176","main_expt",""
"","bandit","257","771393","0.0-218.0-0.0","38386191","wem/bandit_party_1","A2XJAGYVNVPCP0","either","2","445","","","","","","","0","0","1","","0.2014791824","0.6","0.2","0.4","0.8","0.2997078274","0.1919885971","0.2014791824","0.2780938204","","","","","","","","","","","","","","75","K","2","","","177","main_expt",""
"","bandit","258","773441","0.0-219.0-0.0","38386191","wem/bandit_party_1","A2XJAGYVNVPCP0","either","2","530","","","","","","","0","0","1","0.1913564418","","0.6","0.2","0.4","0.8","","","","","0.3064007527","0.2365392944","0.1913564418","0.3151752793","","","","","","","","","","75","K","2","","","178","main_expt",""
"","bandit","259","775624","0.0-220.0-0.0","38386191","wem/bandit_party_1","A2XJAGYVNVPCP0","either","2","663","","","","","","","1","0","0","0.3533432679","","0.6","0.2","0.4","0.8","","","","","0.3533432679","0.2509455726","0.1980728016","0.2799621139","","","","","","","","","","72","H","0","img/none_selected.jpg","","179","main_expt",""
"","bandit","260","778321","0.0-221.0-0.0","38386191","wem/bandit_party_1","A2XJAGYVNVPCP0","either","2","1178","","","","","","","1","0","0","0.3652522579","","0.6","0.2","0.4","0.8","","","","","0.3652522579","0.2767223981","0.1833491223","0.3170936092","","","","","","","","","","72","H","0","img/none_selected.jpg","","180","main_expt",""
"","bandit","261","780804","0.0-222.0-0.0","38386191","wem/bandit_party_1","A2XJAGYVNVPCP0","either","2","965","","","","","","","0","0","1","","0.314600373","0.6","0.2","0.4","0.8","0.3383156657","0.314600373","0.1342686697","0.28101752","","","","","","","","","","","","","","74","J","1","","","181","main_expt",""
"","bandit","262","782874","0.0-223.0-0.0","38386191","wem/bandit_party_1","A2XJAGYVNVPCP0","either","2","546","","","","","","","0","0","1","","0.1636660304","0.6","0.2","0.4","0.8","0.2902116232","0.3943610609","0.1636660304","0.3043342224","","","","","","","","","","","","","","75","K","2","","","182","main_expt",""
"","bandit","263","784754","0.0-224.0-0.0","38386191","wem/bandit_party_1","A2XJAGYVNVPCP0","either","2","360","","","","","","","0","0","1","","0.3026157476","0.6","0.2","0.4","0.8","0.3026157476","0.3586422101","0.136761637","0.3192524042","","","","","","","","","","","","","","72","H","0","img/none_selected.jpg","","183","main_expt",""
"","bandit","264","786891","0.0-225.0-0.0","38386191","wem/bandit_party_1","A2XJAGYVNVPCP0","either","2","615","","","","","","","0","0","1","0.3332516821","","0.6","0.2","0.4","0.8","","","","","0.3360229169","0.3879999062","0.1685989701","0.3332516821","","","","","","","","","","76","L","3","","","184","main_expt",""
"","bandit","265","789049","0.0-226.0-0.0","38386191","wem/bandit_party_1","A2XJAGYVNVPCP0","either","2","637","","","","","","","0","0","1","","0.1663529744","0.6","0.2","0.4","0.8","0.3336456265","0.3831340227","0.1663529744","0.3228184693","","","","","","","","","","","","","","75","K","2","","","185","main_expt",""
"","bandit","266","791108","0.0-227.0-0.0","38386191","wem/bandit_party_1","A2XJAGYVNVPCP0","either","2","537","","","","","","","0","1","0","","0.3308881938","0.6","0.2","0.4","0.8","0.3308881938","0.3999004662","0.1916836285","0.3111703144","","","","","","","","","","","","","","72","H","0","img/none_selected.jpg","","186","main_expt",""
"","bandit","267","793433","0.0-228.0-0.0","38386191","wem/bandit_party_1","A2XJAGYVNVPCP0","either","2","805","","","","","","","0","1","0","","0.325530054","0.6","0.2","0.4","0.8","0.325530054","0.3875363153","0.1686829448","0.3353611299","","","","","","","","","","","","","","72","H","0","img/none_selected.jpg","","187","main_expt",""
"","bandit","268","795736","0.0-229.0-0.0","38386191","wem/bandit_party_1","A2XJAGYVNVPCP0","either","2","782","","","","","","","0","1","0","","0.3055482451","0.6","0.2","0.4","0.8","0.3055482451","0.3875691392","0.1461675531","0.3646937268","","","","","","","","","","","","","","72","H","0","img/none_selected.jpg","","188","main_expt",""
"","bandit","269","797722","0.0-230.0-0.0","38386191","wem/bandit_party_1","A2XJAGYVNVPCP0","either","2","465","","","","","","","0","1","0","","0.4166866882","0.6","0.2","0.4","0.8","0.3002345065","0.4166866882","0.1382971047","0.3891323825","","","","","","","","","","","","","","74","J","1","","","189","main_expt",""
"","bandit","270","799618","0.0-231.0-0.0","38386191","wem/bandit_party_1","A2XJAGYVNVPCP0","either","2","375","","","","","","","0","0","1","0.2693931213","","0.6","0.2","0.4","0.8","","","","","0.2693931213","0.4124474499","0.1898135375","0.3860741766","","","","","","","","","","72","H","0","img/none_selected.jpg","","190","main_expt",""
"","bandit","271","801764","0.0-232.0-0.0","38386191","wem/bandit_party_1","A2XJAGYVNVPCP0","either","2","625","","","","","","","0","0","1","","0.3638199534","0.6","0.2","0.4","0.8","0.3009284261","0.3638199534","0.1264917812","0.3864243721","","","","","","","","","","","","","","74","J","1","","","191","main_expt",""
"","bandit","272","803777","0.0-233.0-0.0","38386191","wem/bandit_party_1","A2XJAGYVNVPCP0","either","2","492","","","","","","","0","0","1","","0.1185409567","0.6","0.2","0.4","0.8","0.3157917784","0.3711146034","0.1185409567","0.400448014","","","","","","","","","","","","","","75","K","2","","","192","main_expt",""
"","bandit","273","805793","0.0-234.0-0.0","38386191","wem/bandit_party_1","A2XJAGYVNVPCP0","either","2","495","","","","","","","0","0","1","0.09837948322","","0.6","0.2","0.4","0.8","","","","","0.2999212614","0.3654165885","0.09837948322","0.3895367297","","","","","","","","","","75","K","2","","","193","main_expt",""
"","bandit","274","807657","0.0-235.0-0.0","38386191","wem/bandit_party_1","A2XJAGYVNVPCP0","either","2","343","","","","","","","1","0","0","0.3537818584","","0.6","0.2","0.4","0.8","","","","","0.3287494418","0.3537818584","0.137690802","0.4032313792","","","","","","","","","","74","J","1","","","194","main_expt",""
"","bandit","275","809721","0.0-236.0-0.0","38386191","wem/bandit_party_1","A2XJAGYVNVPCP0","either","2","543","","","","","","","0","0","1","0.337234763","","0.6","0.2","0.4","0.8","","","","","0.3031978913","0.3597494918","0.1683354775","0.337234763","","","","","","","","","","76","L","3","","","195","main_expt",""
"","bandit","276","811656","0.0-237.0-0.0","38386191","wem/bandit_party_1","A2XJAGYVNVPCP0","either","2","415","","","","","","","0","0","1","0.2901303692","","0.6","0.2","0.4","0.8","","","","","0.2901303692","0.3479121901","0.1561951964","0.3950764453","","","","","","","","","","72","H","0","img/none_selected.jpg","","196","main_expt",""
"","bandit","277","813732","0.0-238.0-0.0","38386191","wem/bandit_party_1","A2XJAGYVNVPCP0","either","2","558","","","","","","","0","0","1","","0.3596292454","0.6","0.2","0.4","0.8","0.2444781728","0.3596292454","0.1329868482","0.4193743727","","","","","","","","","","","","","","74","J","1","","","197","main_expt",""
"","bandit","278","816081","0.0-239.0-0.0","38386191","wem/bandit_party_1","A2XJAGYVNVPCP0","either","2","827","","","","","","","0","1","0","","0.1730826789","0.6","0.2","0.4","0.8","0.2140047665","0.3555371828","0.1730826789","0.4375347816","","","","","","","","","","","","","","75","K","2","","","198","main_expt",""
"","bandit","279","818384","0.0-240.0-0.0","38386191","wem/bandit_party_1","A2XJAGYVNVPCP0","either","2","782","","","","","","","0","0","1","","0.1385649096","0.6","0.2","0.4","0.8","0.2077842613","0.4016486285","0.1385649096","0.4315030007","","","","","","","","","","","","","","75","K","2","","","199","main_expt",""
"","bandit","280","820969","0.0-241.0-0.0","38386191","wem/bandit_party_1","A2XJAGYVNVPCP0","either","2","1064","","","","","","","0","0","1","","0.3871107612","0.6","0.2","0.4","0.8","0.180488049","0.3871107612","0.1941139053","0.4340108373","","","","","","","","","","","","","","74","J","1","","","200","main_expt",""
"","bandit","281","822991","0.0-242.0-0.0","38386191","wem/bandit_party_1","A2XJAGYVNVPCP0","either","2","494","","","","","","","0","0","1","0.441078118","","0.6","0.2","0.4","0.8","","","","","0.2084987087","0.3856539452","0.1825013029","0.441078118","","","","","","","","","","76","L","3","","","201","main_expt",""
"","bandit","282","825116","0.0-243.0-0.0","38386191","wem/bandit_party_1","A2XJAGYVNVPCP0","either","2","602","","","","","","","0","0","1","","0.162440572","0.6","0.2","0.4","0.8","0.1869669721","0.358588673","0.162440572","0.4143682719","","","","","","","","","","","","","","75","K","2","","","202","main_expt",""
"","bandit","283","826992","0.0-244.0-0.0","38386191","wem/bandit_party_1","A2XJAGYVNVPCP0","either","2","353","","","","","","","0","0","1","","0.1383076553","0.6","0.2","0.4","0.8","0.1383076553","0.3460881607","0.1914238456","0.4280720422","","","","","","","","","","","","","","72","H","0","img/none_selected.jpg","","203","main_expt",""
"","bandit","284","828944","0.0-245.0-0.0","38386191","wem/bandit_party_1","A2XJAGYVNVPCP0","either","2","430","","","","","","","0","1","0","","0.3091432968","0.6","0.2","0.4","0.8","0.1656187697","0.3091432968","0.1849793247","0.4113524858","","","","","","","","","","","","","","74","J","1","","","204","main_expt",""
"","bandit","285","831022","0.0-246.0-0.0","38386191","wem/bandit_party_1","A2XJAGYVNVPCP0","either","2","559","","","","","","","0","0","1","","0.1699285253","0.6","0.2","0.4","0.8","0.1699285253","0.3016396897","0.1722293799","0.4151465815","","","","","","","","","","","","","","72","H","0","img/none_selected.jpg","","205","main_expt",""
"","bandit","286","833472","0.0-247.0-0.0","38386191","wem/bandit_party_1","A2XJAGYVNVPCP0","either","2","940","","","","","","","0","1","0","","0.3300702997","0.6","0.2","0.4","0.8","0.161732949","0.3300702997","0.1625694713","0.4002359997","","","","","","","","","","","","","","74","J","1","","","206","main_expt",""
"","bandit","287","835603","0.0-248.0-0.0","38386191","wem/bandit_party_1","A2XJAGYVNVPCP0","either","2","611","","","","","","","0","0","1","","0.1079769143","0.6","0.2","0.4","0.8","0.1699017951","0.2648848683","0.1079769143","0.3692387261","","","","","","","","","","","","","","75","K","2","","","207","main_expt",""
"","bandit","288","837536","0.0-249.0-0.0","38386191","wem/bandit_party_1","A2XJAGYVNVPCP0","either","2","412","","","","","","","1","0","0","0.3283471685","","0.6","0.2","0.4","0.8","","","","","0.1592107695","0.2502792914","0.1380178959","0.3283471685","","","","","","","","","","76","L","3","","","208","main_expt",""
"","bandit","289","839800","0.0-250.0-0.0","38386191","wem/bandit_party_1","A2XJAGYVNVPCP0","either","2","741","","","","","","","0","0","1","","0.2770073026","0.6","0.2","0.4","0.8","0.1659907122","0.2770073026","0.1538506734","0.2924758898","","","","","","","","","","","","","","74","J","1","","","209","main_expt",""
"","bandit","290","841801","0.0-251.0-0.0","38386191","wem/bandit_party_1","A2XJAGYVNVPCP0","either","2","475","","","","","","","0","0","1","","0.1406222791","0.6","0.2","0.4","0.8","0.229525517","0.3451435735","0.1406222791","0.2279470939","","","","","","","","","","","","","","75","K","2","","","210","main_expt",""
"","bandit","291","844064","0.0-252.0-0.0","38386191","wem/bandit_party_1","A2XJAGYVNVPCP0","either","2","738","","","","","","","0","0","1","0.2131844406","","0.6","0.2","0.4","0.8","","","","","0.2434605193","0.3514478275","0.08987887408","0.2131844406","","","","","","","","","","76","L","3","","","211","main_expt",""
"","bandit","292","846596","0.0-253.0-0.0","38386191","wem/bandit_party_1","A2XJAGYVNVPCP0","either","2","1010","","","","","","","0","0","1","","0.3579324364","0.6","0.2","0.4","0.8","0.1633214123","0.3579324364","0.1277875359","0.1601793481","","","","","","","","","","","","","","74","J","1","","","212","main_expt",""
"","bandit","293","848841","0.0-254.0-0.0","38386191","wem/bandit_party_1","A2XJAGYVNVPCP0","either","2","725","","","","","","","0","0","1","","0.1014835246","0.6","0.2","0.4","0.8","0.1014835246","0.3231243524","0.134271297","0.1354109392","","","","","","","","","","","","","","72","H","0","img/none_selected.jpg","","213","main_expt",""
"","bandit","294","850904","0.0-255.0-0.0","38386191","wem/bandit_party_1","A2XJAGYVNVPCP0","either","2","542","","","","","","","0","0","1","","0.1385204111","0.6","0.2","0.4","0.8","0.09587264096","0.2798540136","0.1385204111","0.1142105534","","","","","","","","","","","","","","75","K","2","","","214","main_expt",""
"","bandit","295","852936","0.0-256.0-0.0","38386191","wem/bandit_party_1","A2XJAGYVNVPCP0","either","2","510","","","","","","","0","0","1","0.1089132689","","0.6","0.2","0.4","0.8","","","","","0.08342689115","0.2469391402","0.1089132689","0.1031311673","","","","","","","","","","75","K","2","","","215","main_expt",""
"","bandit","296","854855","0.0-257.0-0.0","38386191","wem/bandit_party_1","A2XJAGYVNVPCP0","either","2","395","","","","","","","0","0","1","0.1031732366","","0.6","0.2","0.4","0.8","","","","","0.05361264496","0.3211823944","0.1299508563","0.1031732366","","","","","","","","","","76","L","3","","","216","main_expt",""
"","bandit","297","856706","0.0-258.0-0.0","38386191","wem/bandit_party_1","A2XJAGYVNVPCP0","either","2","331","","","","","","","0","0","1","","0.3545519007","0.6","0.2","0.4","0.8","0.09912420903","0.3545519007","0.131109262","0.1188097379","","","","","","","","","","","","","","74","J","1","","","217","main_expt",""
"","bandit","298","858768","0.0-259.0-0.0","38386191","wem/bandit_party_1","A2XJAGYVNVPCP0","either","2","540","","","","","","","0","0","1","","0.3781539282","0.6","0.2","0.4","0.8","0.1021137889","0.3781539282","0.1039495344","0.1096623481","","","","","","","","","","","","","","74","J","1","","","218","main_expt",""
"","bandit","299","860895","0.0-260.0-0.0","38386191","wem/bandit_party_1","A2XJAGYVNVPCP0","either","2","606","","","","","","","0","1","0","","0.1025207236","0.6","0.2","0.4","0.8","0.1025207236","0.3674409598","0.09488552944","0.08679630722","","","","","","","","","","","","","","72","H","0","img/none_selected.jpg","","219","main_expt",""
"","bandit","300","862768","0.0-261.0-0.0","38386191","wem/bandit_party_1","A2XJAGYVNVPCP0","either","2","350","","","","","","","0","0","1","","0.1311925698","0.6","0.2","0.4","0.8","0.1049734862","0.315237632","0.1311925698","0.1482089448","","","","","","","","","","","","","","75","K","2","","","220","main_expt",""
"","bandit","301","864911","0.0-262.0-0.0","38386191","wem/bandit_party_1","A2XJAGYVNVPCP0","either","2","621","","","","","","","0","0","1","","0.217172314","0.6","0.2","0.4","0.8","0.08244295151","0.3572442142","0.08224132258","0.217172314","","","","","","","","","","","","","","76","L","3","","","221","main_expt",""
"","bandit","302","867235","0.0-263.0-0.0","38386191","wem/bandit_party_1","A2XJAGYVNVPCP0","either","2","803","","","","","","","0","0","1","","0.09815111748","0.6","0.2","0.4","0.8","0.09815111748","0.2796125419","0.06870998364","0.2227738938","","","","","","","","","","","","","","72","H","0","img/none_selected.jpg","","222","main_expt",""
"","bandit","303","869399","0.0-264.0-0.0","38386191","wem/bandit_party_1","A2XJAGYVNVPCP0","either","2","642","","","","","","","0","0","1","","0.111762886","0.6","0.2","0.4","0.8","0.09925351505","0.2265565182","0.111762886","0.2768694491","","","","","","","","","","","","","","75","K","2","","","223","main_expt",""
"","bandit","304","871359","0.0-265.0-0.0","38386191","wem/bandit_party_1","A2XJAGYVNVPCP0","either","2","438","","","","","","","1","0","0","0.2895694018","","0.6","0.2","0.4","0.8","","","","","0.07842644678","0.1727872262","0.09652303785","0.2895694018","","","","","","","","","","76","L","3","","","224","main_expt",""
"","bandit","305","873712","0.0-266.0-0.0","38386191","wem/bandit_party_1","A2XJAGYVNVPCP0","either","2","830","","","","","","","0","0","1","","0.1580797834","0.6","0.2","0.4","0.8","0.05284632075","0.1580797834","0.09424892582","0.3515154126","","","","","","","","","","","","","","74","J","1","","","225","main_expt",""
"","bandit","306","875736","0.0-267.0-0.0","38386191","wem/bandit_party_1","A2XJAGYVNVPCP0","either","2","501","","","","","","","0","0","1","0.3960872924","","0.6","0.2","0.4","0.8","","","","","0.06788221328","0.1206031336","0.1094697254","0.3960872924","","","","","","","","","","76","L","3","","","226","main_expt",""
"","bandit","307","877548","0.0-268.0-0.0","38386191","wem/bandit_party_1","A2XJAGYVNVPCP0","either","2","300","","","","","","","0","0","1","","0.1055794081","0.6","0.2","0.4","0.8","0.04226868229","0.1218099769","0.1055794081","0.3301105445","","","","","","","","","","","","","","75","K","2","","","227","main_expt",""
"","bandit","308","879520","0.0-269.0-0.0","38386191","wem/bandit_party_1","A2XJAGYVNVPCP0","either","2","449","","","","","","","0","0","1","","0.06174471126","0.6","0.2","0.4","0.8","0.06174471126","0.08458740206","0.1210232629","0.3679650562","","","","","","","","","","","","","","72","H","0","img/none_selected.jpg","","228","main_expt",""
"","bandit","309","881415","0.0-270.0-0.0","38386191","wem/bandit_party_1","A2XJAGYVNVPCP0","either","2","372","","","","","","","0","0","1","","0.1249199002","0.6","0.2","0.4","0.8","0.06122033102","0.06311990622","0.1249199002","0.3413725311","","","","","","","","","","","","","","75","K","2","","","229","main_expt",""
"","bandit","310","883496","0.0-271.0-0.0","38386191","wem/bandit_party_1","A2XJAGYVNVPCP0","either","2","558","","","","","","","0","0","1","0.3652503211","","0.6","0.2","0.4","0.8","","","","","0.09369367087","0.04674316758","0.1423167866","0.3652503211","","","","","","","","","","76","L","3","","","230","main_expt",""
"","bandit","311","886048","0.0-272.0-0.0","38386191","wem/bandit_party_1","A2XJAGYVNVPCP0","either","2","1030","","","","","","","0","0","1","","0.1441411413","0.6","0.2","0.4","0.8","0.1378364932","0.06697327866","0.1441411413","0.3774172636","","","","","","","","","","","","","","75","K","2","","","231","main_expt",""
"","bandit","312","888475","0.0-273.0-0.0","38386191","wem/bandit_party_1","A2XJAGYVNVPCP0","either","2","904","","","","","","","0","0","1","0.08617656909","","0.6","0.2","0.4","0.8","","","","","0.1138343256","0.08617656909","0.1132866493","0.3507397895","","","","","","","","","","74","J","1","","","232","main_expt",""
"","bandit","313","890376","0.0-274.0-0.0","38386191","wem/bandit_party_1","A2XJAGYVNVPCP0","either","2","377","","","","","","","0","0","1","","0.07587191469","0.6","0.2","0.4","0.8","0.1602674987","0.08388286328","0.07587191469","0.3228668676","","","","","","","","","","","","","","75","K","2","","","233","main_expt",""
"","bandit","314","892271","0.0-275.0-0.0","38386191","wem/bandit_party_1","A2XJAGYVNVPCP0","either","2","371","","","","","","","1","0","0","0.3219168209","","0.6","0.2","0.4","0.8","","","","","0.1399599793","0.08303297831","0.08330376307","0.3219168209","","","","","","","","","","76","L","3","","","234","main_expt",""
"","bandit","315","894943","0.0-276.0-0.0","38386191","wem/bandit_party_1","A2XJAGYVNVPCP0","either","2","1149","","","","","","","1","0","0","0.2907257894","","0.6","0.2","0.4","0.8","","","","","0.1577883936","0.08228619446","0.07960395758","0.2907257894","","","","","","","","","","76","L","3","","","235","main_expt",""
"","bandit","316","896975","0.0-277.0-0.0","38386191","wem/bandit_party_1","A2XJAGYVNVPCP0","either","2","509","","","","","","","0","0","1","","0.06703487678","0.6","0.2","0.4","0.8","0.1206463377","0.07856112713","0.06703487678","0.2879125653","","","","","","","","","","","","","","75","K","2","","","236","main_expt",""
