"consent","trial_type","trial_index","time_elapsed","internal_node_id","subjID","study","MID","cond","drift","rt","responses","button_pressed","key_press","like","value","connected","gems","bombs","no_reward","GemPrChosen","BombPrChosen","GainOverPainPr_0","GainOverPainPr_1","GainOverPainPr_2","GainOverPainPr_3","LosePr_0","LosePr_1","LosePr_2","LosePr_3","WinPr_0","WinPr_1","WinPr_2","WinPr_3","Q0","Q1","Q2","gender","age","ethnicity","label","expt_phase","target","respCharCode","respKey","respChoiceNum","respChoice","practice","trial_counter","trial_label","Q0_index","view_history"
"GDM/GDM_behavioral_consent_30min_online.html","consent","0","7939","0.0-0.0","40356409","wem/bandit_party_1","A2XLTGDI5Q0VD","either","6","","","","","","","","","","","","","","","","","","","","","","","","","","","","","","","","","","","","","","","","","",""
"","survey-text","1","13902","0.0-1.0","40356409","wem/bandit_party_1","A2XLTGDI5Q0VD","either","6","4945","{""Q0"":""A2XLTGDI5Q0VD""}","","","","","","","","","","","","","","","","","","","","","","","","","","","","","","","","","","","","","","","",""
"","button-response","2","48930","0.0-2.0","40356409","wem/bandit_party_1","A2XLTGDI5Q0VD","either","6","34015","","1","","","","","","","","","","","","","","","","","","","","","","","","","","","","","","","","","","","","","","",""
"","text-replacement","3","57209","0.0-3.0","40356409","wem/bandit_party_1","A2XLTGDI5Q0VD","either","6","7278","","","32","","","","","","","","","","","","","","","","","","","","","","","","","","","","","","","","","","","","","",""
"","text-replacement","4","95001","0.0-4.0","40356409","wem/bandit_party_1","A2XLTGDI5Q0VD","either","6","37792","","","32","","","","","","","","","","","","","","","","","","","","","","","","","","","","","","","","","","","","","",""
"","identification","5","101235","0.0-6.0-0.0","40356409","wem/bandit_party_1","A2XLTGDI5Q0VD","either","6","6226","","","","5","4","5","","","","","","","","","","","","","","","","","","","","","","","","pre","identification_pre","the Democratic Party","","","","","","","","",""
"","identification","6","106042","0.0-6.0-1.0","40356409","wem/bandit_party_1","A2XLTGDI5Q0VD","either","6","3800","","","","2","1","2","","","","","","","","","","","","","","","","","","","","","","","","pre","identification_pre","the Republican party","","","","","","","","",""
"","text-replacement","7","114160","0.0-7.0","40356409","wem/bandit_party_1","A2XLTGDI5Q0VD","either","6","7117","","","32","","","","","","","","","","","","","","","","","","","","","","","","","","","","","","","","","","","","","",""
"","text-replacement","8","124152","0.0-8.0","40356409","wem/bandit_party_1","A2XLTGDI5Q0VD","either","6","9990","","","32","","","","","","","","","","","","","","","","","","","","","","","","","","","","","","","","","","","","","",""
"","text-replacement","9","134849","0.0-9.0","40356409","wem/bandit_party_1","A2XLTGDI5Q0VD","either","6","10696","","","32","","","","","","","","","","","","","","","","","","","","","","","","","","","","","","","","","","","","","",""
"","text-replacement","10","139808","0.0-10.0","40356409","wem/bandit_party_1","A2XLTGDI5Q0VD","either","6","4958","","","32","","","","","","","","","","","","","","","","","","","","","","","","","","","","","","","","","","","","","",""
"","text-replacement","11","141689","0.0-11.0","40356409","wem/bandit_party_1","A2XLTGDI5Q0VD","either","6","1881","","","32","","","","","","","","","","","","","","","","","","","","","","","","","","","","","","","","","","","","","",""
"","bandit","12","143598","0.0-12.0-0.0","40356409","wem/bandit_party_1","A2XLTGDI5Q0VD","either","6","404","","","","","","","0","0","1","0","0","","","","","0","","","","0","","","","","","","","","","","","","74","J","0","img/none_selected_demo.jpg","true","0","","",""
"","bandit","13","145214","0.0-13.0-0.0","40356409","wem/bandit_party_1","A2XLTGDI5Q0VD","either","6","113","","","","","","","0","0","1","0","0","","","","","0","","","","0","","","","","","","","","","","","","75","K","0","img/none_selected_demo.jpg","true","0","","",""
"","text-replacement","14","146503","0.0-14.0","40356409","wem/bandit_party_1","A2XLTGDI5Q0VD","either","6","1288","","","32","","","","","","","","","","","","","","","","","","","","","","","","","","","","","","","","","","","","","",""
"","text-replacement","15","147135","0.0-15.0","40356409","wem/bandit_party_1","A2XLTGDI5Q0VD","either","6","631","","","32","","","","","","","","","","","","","","","","","","","","","","","","","","","","","","","","","","","","","",""
"","text-replacement","16","147552","0.0-16.0","40356409","wem/bandit_party_1","A2XLTGDI5Q0VD","either","6","415","","","32","","","","","","","","","","","","","","","","","","","","","","","","","","","","","","","","","","","","","",""
"","text-replacement","17","147888","0.0-17.0","40356409","wem/bandit_party_1","A2XLTGDI5Q0VD","either","6","336","","","32","","","","","","","","","","","","","","","","","","","","","","","","","","","","","","","","","","","","","",""
"","bandit","18","150991","0.0-18.0-0.0","40356409","wem/bandit_party_1","A2XLTGDI5Q0VD","either","6","1599","","","","","","","0","1","0","","0.8","0.5","0.5","","","0.8","0.2","","","","","","","","","","","","","","","","74","J","0","img/none_selected_demo.jpg","true","0","80_20_practice","",""
"","bandit","19","152735","0.0-18.0-1.0","40356409","wem/bandit_party_1","A2XLTGDI5Q0VD","either","6","240","","","","","","","0","1","0","","0.2","0.5","0.5","","","0.8","0.2","","","","","","","","","","","","","","","","75","K","1","","true","0","80_20_practice","",""
"","bandit","20","154294","0.0-18.0-2.0","40356409","wem/bandit_party_1","A2XLTGDI5Q0VD","either","6","56","","","","","","","0","0","1","0.2","","0.5","0.5","","","","","","","0.8","0.2","","","","","","","","","","","","75","K","1","","true","0","80_20_practice","",""
"","bandit","21","155846","0.0-18.0-3.0","40356409","wem/bandit_party_1","A2XLTGDI5Q0VD","either","6","48","","","","","","","0","1","0","","0.8","0.5","0.5","","","0.8","0.2","","","","","","","","","","","","","","","","74","J","0","img/none_selected_demo.jpg","true","0","80_20_practice","",""
"","bandit","22","157463","0.0-18.0-4.0","40356409","wem/bandit_party_1","A2XLTGDI5Q0VD","either","6","113","","","","","","","0","1","0","","0.8","0.5","0.5","","","0.8","0.2","","","","","","","","","","","","","","","","74","J","0","img/none_selected_demo.jpg","true","0","80_20_practice","",""
"","bandit","23","159054","0.0-18.0-5.0","40356409","wem/bandit_party_1","A2XLTGDI5Q0VD","either","6","86","","","","","","","1","0","0","0.2","","0.5","0.5","","","","","","","0.8","0.2","","","","","","","","","","","","75","K","1","","true","0","80_20_practice","",""
"","bandit","24","160574","0.0-18.0-6.0","40356409","wem/bandit_party_1","A2XLTGDI5Q0VD","either","6","16","","","","","","","0","0","1","0.2","","0.5","0.5","","","","","","","0.8","0.2","","","","","","","","","","","","75","K","1","","true","0","80_20_practice","",""
"","bandit","25","162197","0.0-18.0-7.0","40356409","wem/bandit_party_1","A2XLTGDI5Q0VD","either","6","120","","","","","","","1","0","0","0.2","","0.5","0.5","","","","","","","0.8","0.2","","","","","","","","","","","","75","K","1","","true","0","80_20_practice","",""
"","bandit","26","163837","0.0-18.0-8.0","40356409","wem/bandit_party_1","A2XLTGDI5Q0VD","either","6","137","","","","","","","0","0","1","","0.2","0.5","0.5","","","0.8","0.2","","","","","","","","","","","","","","","","75","K","1","","true","0","80_20_practice","",""
"","bandit","27","165455","0.0-18.0-9.0","40356409","wem/bandit_party_1","A2XLTGDI5Q0VD","either","6","113","","","","","","","0","0","1","","0.2","0.5","0.5","","","0.8","0.2","","","","","","","","","","","","","","","","75","K","1","","true","0","80_20_practice","",""
"","bandit","28","166983","0.0-18.0-10.0","40356409","wem/bandit_party_1","A2XLTGDI5Q0VD","either","6","23","","","","","","","0","1","0","","0.2","0.5","0.5","","","0.8","0.2","","","","","","","","","","","","","","","","75","K","1","","true","0","80_20_practice","",""
"","bandit","29","168631","0.0-18.0-11.0","40356409","wem/bandit_party_1","A2XLTGDI5Q0VD","either","6","143","","","","","","","0","1","0","","0.2","0.5","0.5","","","0.8","0.2","","","","","","","","","","","","","","","","75","K","1","","true","0","80_20_practice","",""
"","bandit","30","170247","0.0-18.0-12.0","40356409","wem/bandit_party_1","A2XLTGDI5Q0VD","either","6","112","","","","","","","0","1","0","","0.8","0.5","0.5","","","0.8","0.2","","","","","","","","","","","","","","","","74","J","0","img/none_selected_demo.jpg","true","0","80_20_practice","",""
"","bandit","31","171902","0.0-18.0-13.0","40356409","wem/bandit_party_1","A2XLTGDI5Q0VD","either","6","152","","","","","","","1","0","0","0.8","","0.5","0.5","","","","","","","0.8","0.2","","","","","","","","","","","","74","J","0","img/none_selected_demo.jpg","true","0","80_20_practice","",""
"","bandit","32","173408","0.0-18.0-14.0","40356409","wem/bandit_party_1","A2XLTGDI5Q0VD","either","6","1","","","","","","","1","0","0","0.8","","0.5","0.5","","","","","","","0.8","0.2","","","","","","","","","","","","74","J","0","img/none_selected_demo.jpg","true","0","80_20_practice","",""
"","bandit","33","174936","0.0-18.0-15.0","40356409","wem/bandit_party_1","A2XLTGDI5Q0VD","either","6","24","","","","","","","1","0","0","0.8","","0.5","0.5","","","","","","","0.8","0.2","","","","","","","","","","","","74","J","0","img/none_selected_demo.jpg","true","0","80_20_practice","",""
"","bandit","34","176535","0.0-18.0-16.0","40356409","wem/bandit_party_1","A2XLTGDI5Q0VD","either","6","95","","","","","","","0","0","1","","0.2","0.5","0.5","","","0.8","0.2","","","","","","","","","","","","","","","","75","K","1","","true","0","80_20_practice","",""
"","bandit","35","178111","0.0-18.0-17.0","40356409","wem/bandit_party_1","A2XLTGDI5Q0VD","either","6","72","","","","","","","0","0","1","","0.2","0.5","0.5","","","0.8","0.2","","","","","","","","","","","","","","","","75","K","1","","true","0","80_20_practice","",""
"","bandit","36","179663","0.0-18.0-18.0","40356409","wem/bandit_party_1","A2XLTGDI5Q0VD","either","6","49","","","","","","","0","0","1","","0.2","0.5","0.5","","","0.8","0.2","","","","","","","","","","","","","","","","75","K","1","","true","0","80_20_practice","",""
"","bandit","37","181190","0.0-18.0-19.0","40356409","wem/bandit_party_1","A2XLTGDI5Q0VD","either","6","24","","","","","","","0","0","1","","0.2","0.5","0.5","","","0.8","0.2","","","","","","","","","","","","","","","","75","K","1","","true","0","80_20_practice","",""
"","text-replacement","38","194033","0.0-19.0","40356409","wem/bandit_party_1","A2XLTGDI5Q0VD","either","6","12842","","","32","","","","","","","","","","","","","","","","","","","","","","","","","","","","","","","","","","","","","",""
"","bandit","39","196167","0.0-20.0-0.0","40356409","wem/bandit_party_1","A2XLTGDI5Q0VD","either","6","630","","","","","","","0","1","0","0","1","","","","","0","1","","","1","0","","","","","","","","","","","","75","K","1","","true","0","","",""
"","text-replacement","40","196313","0.0-21.0","40356409","wem/bandit_party_1","A2XLTGDI5Q0VD","either","6","144","","","74","","","","","","","","","","","","","","","","","","","","","","","","","","","","","","","","","","","","","",""
"","text-replacement","41","205153","0.0-22.0","40356409","wem/bandit_party_1","A2XLTGDI5Q0VD","either","6","8840","","","32","","","","","","","","","","","","","","","","","","","","","","","","","","","","","","","","","","","","","",""
"","text-replacement","42","209937","0.0-23.0","40356409","wem/bandit_party_1","A2XLTGDI5Q0VD","either","6","4783","","","32","","","","","","","","","","","","","","","","","","","","","","","","","","","","","","","","","","","","","",""
"","text-replacement","43","211649","0.0-24.0","40356409","wem/bandit_party_1","A2XLTGDI5Q0VD","either","6","1710","","","32","","","","","","","","","","","","","","","","","","","","","","","","","","","","","","","","","","","","","",""
"","text-replacement","44","212145","0.0-25.0","40356409","wem/bandit_party_1","A2XLTGDI5Q0VD","either","6","495","","","32","","","","","","","","","","","","","","","","","","","","","","","","","","","","","","","","","","","","","",""
"","text-replacement","45","213017","0.0-26.0","40356409","wem/bandit_party_1","A2XLTGDI5Q0VD","either","6","870","","","32","","","","","","","","","","","","","","","","","","","","","","","","","","","","","","","","","","","","","",""
"","text-replacement","46","213881","0.0-27.0","40356409","wem/bandit_party_1","A2XLTGDI5Q0VD","either","6","863","","","32","","","","","","","","","","","","","","","","","","","","","","","","","","","","","","","","","","","","","",""
"","text-replacement","47","214185","0.0-28.0","40356409","wem/bandit_party_1","A2XLTGDI5Q0VD","either","6","304","","","32","","","","","","","","","","","","","","","","","","","","","","","","","","","","","","","","","","","","","",""
"","text-replacement","48","214657","0.0-29.0","40356409","wem/bandit_party_1","A2XLTGDI5Q0VD","either","6","470","","","32","","","","","","","","","","","","","","","","","","","","","","","","","","","","","","","","","","","","","",""
"","text-replacement","49","214905","0.0-30.0","40356409","wem/bandit_party_1","A2XLTGDI5Q0VD","either","6","246","","","32","","","","","","","","","","","","","","","","","","","","","","","","","","","","","","","","","","","","","",""
"","text-replacement","50","217585","0.0-31.0","40356409","wem/bandit_party_1","A2XLTGDI5Q0VD","either","6","2680","","","32","","","","","","","","","","","","","","","","","","","","","","","","","","","","","","","","","","","","","",""
"","bandit","51","219800","0.0-32.0-0.0","40356409","wem/bandit_party_1","A2XLTGDI5Q0VD","either","6","712","","","","","","","0","0","1","","0.6","0.5","0.5","0.5","0.5","0.8","0.2","0.6","0.2","","","","","","","","","","","","","","75","K","2","","true","0","full_practice","",""
"","bandit","52","221376","0.0-32.0-1.0","40356409","wem/bandit_party_1","A2XLTGDI5Q0VD","either","6","72","","","","","","","1","0","0","0.8","","0.5","0.5","0.5","0.5","","","","","0.8","0.2","0.6","0.2","","","","","","","","","","72","H","0","img/none_selected.jpg","true","0","full_practice","",""
"","bandit","53","222952","0.0-32.0-2.0","40356409","wem/bandit_party_1","A2XLTGDI5Q0VD","either","6","71","","","","","","","1","0","0","0.6","","0.5","0.5","0.5","0.5","","","","","0.8","0.2","0.6","0.2","","","","","","","","","","75","K","2","","true","0","full_practice","",""
"","bandit","54","224471","0.0-32.0-3.0","40356409","wem/bandit_party_1","A2XLTGDI5Q0VD","either","6","15","","","","","","","1","0","0","0.6","","0.5","0.5","0.5","0.5","","","","","0.8","0.2","0.6","0.2","","","","","","","","","","75","K","2","","true","0","full_practice","",""
"","bandit","55","225999","0.0-32.0-4.0","40356409","wem/bandit_party_1","A2XLTGDI5Q0VD","either","6","25","","","","","","","0","0","1","","0.2","0.5","0.5","0.5","0.5","0.8","0.2","0.6","0.2","","","","","","","","","","","","","","76","L","3","","true","0","full_practice","",""
"","bandit","56","227567","0.0-32.0-5.0","40356409","wem/bandit_party_1","A2XLTGDI5Q0VD","either","6","64","","","","","","","1","0","0","0.6","","0.5","0.5","0.5","0.5","","","","","0.8","0.2","0.6","0.2","","","","","","","","","","75","K","2","","true","0","full_practice","",""
"","bandit","57","229095","0.0-32.0-6.0","40356409","wem/bandit_party_1","A2XLTGDI5Q0VD","either","6","23","","","","","","","0","1","0","","0.6","0.5","0.5","0.5","0.5","0.8","0.2","0.6","0.2","","","","","","","","","","","","","","75","K","2","","true","0","full_practice","",""
"","bandit","58","230687","0.0-32.0-7.0","40356409","wem/bandit_party_1","A2XLTGDI5Q0VD","either","6","89","","","","","","","0","1","0","","0.8","0.5","0.5","0.5","0.5","0.8","0.2","0.6","0.2","","","","","","","","","","","","","","72","H","0","img/none_selected.jpg","true","0","full_practice","",""
"","bandit","59","232223","0.0-32.0-8.0","40356409","wem/bandit_party_1","A2XLTGDI5Q0VD","either","6","32","","","","","","","1","0","0","0.8","","0.5","0.5","0.5","0.5","","","","","0.8","0.2","0.6","0.2","","","","","","","","","","72","H","0","img/none_selected.jpg","true","0","full_practice","",""
"","bandit","60","233759","0.0-32.0-9.0","40356409","wem/bandit_party_1","A2XLTGDI5Q0VD","either","6","33","","","","","","","1","0","0","0.8","","0.5","0.5","0.5","0.5","","","","","0.8","0.2","0.6","0.2","","","","","","","","","","72","H","0","img/none_selected.jpg","true","0","full_practice","",""
"","bandit","61","235264","0.0-32.0-10.0","40356409","wem/bandit_party_1","A2XLTGDI5Q0VD","either","6","0","","","","","","","1","0","0","0.2","","0.5","0.5","0.5","0.5","","","","","0.8","0.2","0.6","0.2","","","","","","","","","","74","J","1","","true","0","full_practice","",""
"","bandit","62","236776","0.0-32.0-11.0","40356409","wem/bandit_party_1","A2XLTGDI5Q0VD","either","6","9","","","","","","","0","1","0","","0.8","0.5","0.5","0.5","0.5","0.8","0.2","0.6","0.2","","","","","","","","","","","","","","72","H","0","img/none_selected.jpg","true","0","full_practice","",""
"","bandit","63","238296","0.0-32.0-12.0","40356409","wem/bandit_party_1","A2XLTGDI5Q0VD","either","6","14","","","","","","","0","1","0","","0.6","0.5","0.5","0.5","0.5","0.8","0.2","0.6","0.2","","","","","","","","","","","","","","75","K","2","","true","0","full_practice","",""
"","bandit","64","239807","0.0-32.0-13.0","40356409","wem/bandit_party_1","A2XLTGDI5Q0VD","either","6","7","","","","","","","0","0","1","","0.8","0.5","0.5","0.5","0.5","0.8","0.2","0.6","0.2","","","","","","","","","","","","","","72","H","0","img/none_selected.jpg","true","0","full_practice","",""
"","bandit","65","241311","0.0-32.0-14.0","40356409","wem/bandit_party_1","A2XLTGDI5Q0VD","either","6","0","","","","","","","0","0","1","0.6","","0.5","0.5","0.5","0.5","","","","","0.8","0.2","0.6","0.2","","","","","","","","","","75","K","2","","true","0","full_practice","",""
"","bandit","66","243015","0.0-32.0-15.0","40356409","wem/bandit_party_1","A2XLTGDI5Q0VD","either","6","200","","","","","","","1","0","0","0.6","","0.5","0.5","0.5","0.5","","","","","0.8","0.2","0.6","0.2","","","","","","","","","","75","K","2","","true","0","full_practice","",""
"","bandit","67","244703","0.0-32.0-16.0","40356409","wem/bandit_party_1","A2XLTGDI5Q0VD","either","6","183","","","","","","","0","0","1","","0.2","0.5","0.5","0.5","0.5","0.8","0.2","0.6","0.2","","","","","","","","","","","","","","76","L","3","","true","0","full_practice","",""
"","bandit","68","246367","0.0-32.0-17.0","40356409","wem/bandit_party_1","A2XLTGDI5Q0VD","either","6","160","","","","","","","0","0","1","0.6","","0.5","0.5","0.5","0.5","","","","","0.8","0.2","0.6","0.2","","","","","","","","","","75","K","2","","true","0","full_practice","",""
"","bandit","69","247879","0.0-32.0-18.0","40356409","wem/bandit_party_1","A2XLTGDI5Q0VD","either","6","9","","","","","","","0","1","0","","0.8","0.5","0.5","0.5","0.5","0.8","0.2","0.6","0.2","","","","","","","","","","","","","","72","H","0","img/none_selected.jpg","true","0","full_practice","",""
"","bandit","70","249430","0.0-32.0-19.0","40356409","wem/bandit_party_1","A2XLTGDI5Q0VD","either","6","47","","","","","","","0","0","1","","0.8","0.5","0.5","0.5","0.5","0.8","0.2","0.6","0.2","","","","","","","","","","","","","","72","H","0","img/none_selected.jpg","true","0","full_practice","",""
"","text","71","256050","0.0-33.0","40356409","wem/bandit_party_1","A2XLTGDI5Q0VD","either","6","6616","","","32","","","","","","","","","","","","","","","","","","","","","","","","","","","","","","","","","","","","","",""
"","text-replacement","72","284754","0.0-34.0","40356409","wem/bandit_party_1","A2XLTGDI5Q0VD","either","6","27701","","","32","","","","","","","","","","","","","","","","","","","","","","","","","","","","","","","","","","","","","",""
"","text-replacement","73","286353","0.0-35.0","40356409","wem/bandit_party_1","A2XLTGDI5Q0VD","either","6","1597","","","32","","","","","","","","","","","","","","","","","","","","","","","","","","","","","","","","","","","","","",""
"","text-replacement","74","287041","0.0-36.0","40356409","wem/bandit_party_1","A2XLTGDI5Q0VD","either","6","686","","","32","","","","","","","","","","","","","","","","","","","","","","","","","","","","","","","","","","","","","",""
"","text-replacement","75","287465","0.0-37.0","40356409","wem/bandit_party_1","A2XLTGDI5Q0VD","either","6","422","","","32","","","","","","","","","","","","","","","","","","","","","","","","","","","","","","","","","","","","","",""
"","text-replacement","76","288042","0.0-38.0","40356409","wem/bandit_party_1","A2XLTGDI5Q0VD","either","6","575","","","32","","","","","","","","","","","","","","","","","","","","","","","","","","","","","","","","","","","","","",""
"","survey-multi-choice-replacement","77","295411","0.0-39.0-0.0","40356409","wem/bandit_party_1","A2XLTGDI5Q0VD","either","6","7364","","","","","","","","","","","","","","","","","","","","","","","","Money will be added to the pool for <span style='color:blue;'>DEMOCRATS</span>","","","","","","","attn_check","","","","","","","","","0",""
"","survey-multi-choice-replacement","78","304682","0.0-40.0-0.0","40356409","wem/bandit_party_1","A2XLTGDI5Q0VD","either","6","8266","","","","","","","","","","","","","","","","","","","","","","","","No money will be added to either pool","","","","","","","attn_check","","","","","","","","","3",""
"","instructions","79","307450","0.0-40.0-1.0-0.0","40356409","wem/bandit_party_1","A2XLTGDI5Q0VD","either","6","1764","","","","","","","","","","","","","","","","","","","","","","","","","","","","","","","","","","","","","","","","","[{""page_index"":0,""viewing_time"":1764}]"
"","survey-multi-choice-replacement","80","310370","0.0-40.1-0.1","40356409","wem/bandit_party_1","A2XLTGDI5Q0VD","either","6","1915","","","","","","","","","","","","","","","","","","","","","","","","Money will be subtracted from the pool for <span style='color:red;'>REPUBLICANS</span>","","","","","","","attn_check","","","","","","","","","1",""
"","instructions","81","312666","0.0-40.1-1.1-0.1","40356409","wem/bandit_party_1","A2XLTGDI5Q0VD","either","6","1293","","","","","","","","","","","","","","","","","","","","","","","","","","","","","","","","","","","","","","","","","[{""page_index"":0,""viewing_time"":1293}]"
"","survey-multi-choice-replacement","82","315994","0.0-40.2-0.2","40356409","wem/bandit_party_1","A2XLTGDI5Q0VD","either","6","2324","","","","","","","","","","","","","","","","","","","","","","","","Equal amounts of money will be added to the pool for <span style='color:blue;'>DEMOCRATS</span> and subtracted from the pool for <span style='color:red;'>REPUBLICANS</span>","","","","","","","attn_check","","","","","","","","","2",""
"","survey-multi-choice-replacement","83","326211","0.0-41.0-0.0","40356409","wem/bandit_party_1","A2XLTGDI5Q0VD","either","6","9211","","","","","","","","","","","","","","","","","","","","","","","","Money will be added to the pool for <span style='color:blue;'>DEMOCRATS</span>","","","","","","","attn_check","","","","","","","","","0",""
"","instructions","84","328594","0.0-41.0-1.0-0.0","40356409","wem/bandit_party_1","A2XLTGDI5Q0VD","either","6","1380","","","","","","","","","","","","","","","","","","","","","","","","","","","","","","","","","","","","","","","","","[{""page_index"":0,""viewing_time"":1380}]"
"","survey-multi-choice-replacement","85","332204","0.0-41.1-0.1","40356409","wem/bandit_party_1","A2XLTGDI5Q0VD","either","6","2604","","","","","","","","","","","","","","","","","","","","","","","","No money will be added to either pool","","","","","","","attn_check","","","","","","","","","3",""
"","bandit","86","336559","0.0-42.0-0.0","40356409","wem/bandit_party_1","A2XLTGDI5Q0VD","either","6","1850","","","","","","","0","0","1","","0.1720655487","0.8","0.6","0.4","0.2","0.1734470434","0.06094066238","0.1720655487","0.4656478179","","","","","","","","","","","","","","75","K","2","","","1","main_expt","",""
"","bandit","87","338110","0.0-43.0-0.0","40356409","wem/bandit_party_1","A2XLTGDI5Q0VD","either","6","47","","","","","","","1","0","0","0.1582158198","","0.8","0.6","0.4","0.2","","","","","0.1582158198","0.04941180107","0.1607886358","0.4661883906","","","","","","","","","","72","H","0","img/none_selected.jpg","","2","main_expt","",""
"","bandit","88","339670","0.0-44.0-0.0","40356409","wem/bandit_party_1","A2XLTGDI5Q0VD","either","6","56","","","","","","","0","0","1","0.1825924006","","0.8","0.6","0.4","0.2","","","","","0.1264016625","0.09066711981","0.1825924006","0.4608397999","","","","","","","","","","75","K","2","","","3","main_expt","",""
"","bandit","89","341264","0.0-45.0-0.0","40356409","wem/bandit_party_1","A2XLTGDI5Q0VD","either","6","88","","","","","","","0","0","1","0.1212924903","","0.8","0.6","0.4","0.2","","","","","0.1212924903","0.07815644495","0.1572982515","0.4568511376","","","","","","","","","","72","H","0","img/none_selected.jpg","","4","main_expt","",""
"","bandit","90","342824","0.0-46.0-0.0","40356409","wem/bandit_party_1","A2XLTGDI5Q0VD","either","6","56","","","","","","","0","0","1","0.1873501432","","0.8","0.6","0.4","0.2","","","","","0.1603104869","0.06547040057","0.1873501432","0.4576747282","","","","","","","","","","75","K","2","","","5","main_expt","",""
"","bandit","91","344400","0.0-47.0-0.0","40356409","wem/bandit_party_1","A2XLTGDI5Q0VD","either","6","72","","","","","","","0","1","0","","0.1484719509","0.8","0.6","0.4","0.2","0.1916070739","0.09500806419","0.1484719509","0.4673201091","","","","","","","","","","","","","","75","K","2","","","6","main_expt","",""
"","bandit","92","345919","0.0-48.0-0.0","40356409","wem/bandit_party_1","A2XLTGDI5Q0VD","either","6","15","","","","","","","0","0","1","","0.1368680622","0.8","0.6","0.4","0.2","0.1624213819","0.1156714339","0.1368680622","0.4671816856","","","","","","","","","","","","","","75","K","2","","","7","main_expt","",""
"","bandit","93","347448","0.0-49.0-0.0","40356409","wem/bandit_party_1","A2XLTGDI5Q0VD","either","6","25","","","","","","","1","0","0","0.1412197478","","0.8","0.6","0.4","0.2","","","","","0.1529627983","0.08939878806","0.1412197478","0.4577650209","","","","","","","","","","75","K","2","","","8","main_expt","",""
"","bandit","94","348967","0.0-50.0-0.0","40356409","wem/bandit_party_1","A2XLTGDI5Q0VD","either","6","15","","","","","","","0","0","1","0.1638779","","0.8","0.6","0.4","0.2","","","","","0.1638779","0.1379609943","0.1285241668","0.4538037209","","","","","","","","","","72","H","0","img/none_selected.jpg","","9","main_expt","",""
"","bandit","95","350487","0.0-51.0-0.0","40356409","wem/bandit_party_1","A2XLTGDI5Q0VD","either","6","16","","","","","","","0","0","1","","0.1137500729","0.8","0.6","0.4","0.2","0.1682184418","0.08892925829","0.1137500729","0.4567906288","","","","","","","","","","","","","","75","K","2","","","10","main_expt","",""
"","bandit","96","352023","0.0-52.0-0.0","40356409","wem/bandit_party_1","A2XLTGDI5Q0VD","either","6","33","","","","","","","0","0","1","0.1511948373","","0.8","0.6","0.4","0.2","","","","","0.1511948373","0.1053961985","0.1134058804","0.4707556997","","","","","","","","","","72","H","0","img/none_selected.jpg","","11","main_expt","",""
"","bandit","97","353719","0.0-53.0-0.0","40356409","wem/bandit_party_1","A2XLTGDI5Q0VD","either","6","192","","","","","","","0","0","1","","0.2144966391","0.8","0.6","0.4","0.2","0.2144966391","0.1267534428","0.1358134986","0.4534589675","","","","","","","","","","","","","","72","H","0","img/none_selected.jpg","","12","main_expt","",""
"","bandit","98","355224","0.0-54.0-0.0","40356409","wem/bandit_party_1","A2XLTGDI5Q0VD","either","6","1","","","","","","","0","0","1","","0.1105925571","0.8","0.6","0.4","0.2","0.1443049275","0.1179877152","0.1105925571","0.4474824422","","","","","","","","","","","","","","75","K","2","","","13","main_expt","",""
"","bandit","99","356734","0.0-55.0-0.0","40356409","wem/bandit_party_1","A2XLTGDI5Q0VD","either","6","7","","","","","","","0","0","1","","0.4125602811","0.8","0.6","0.4","0.2","0.149160688","0.1300626215","0.09057326494","0.4125602811","","","","","","","","","","","","","","76","L","3","","","14","main_expt","",""
"","bandit","100","358272","0.0-56.0-0.0","40356409","wem/bandit_party_1","A2XLTGDI5Q0VD","either","6","34","","","","","","","0","0","1","","0.1525333278","0.8","0.6","0.4","0.2","0.1525333278","0.1129073675","0.05963436345","0.3715785473","","","","","","","","","","","","","","72","H","0","img/none_selected.jpg","","15","main_expt","",""
"","bandit","101","359912","0.0-57.0-0.0","40356409","wem/bandit_party_1","A2XLTGDI5Q0VD","either","6","136","","","","","","","0","0","1","","0.03970917029","0.8","0.6","0.4","0.2","0.1437253933","0.1132840383","0.03970917029","0.3670357029","","","","","","","","","","","","","","75","K","2","","","16","main_expt","",""
"","bandit","102","361527","0.0-58.0-0.0","40356409","wem/bandit_party_1","A2XLTGDI5Q0VD","either","6","111","","","","","","","0","0","1","0.1191274054","","0.8","0.6","0.4","0.2","","","","","0.1191274054","0.1530786807","0.03301664506","0.333794799","","","","","","","","","","72","H","0","img/none_selected.jpg","","17","main_expt","",""
"","bandit","103","363143","0.0-59.0-0.0","40356409","wem/bandit_party_1","A2XLTGDI5Q0VD","either","6","112","","","","","","","0","0","1","0.1231388663","","0.8","0.6","0.4","0.2","","","","","0.1231388663","0.1367655081","0.0325619","0.3720862831","","","","","","","","","","72","H","0","img/none_selected.jpg","","18","main_expt","",""
"","bandit","104","364815","0.0-60.0-0.0","40356409","wem/bandit_party_1","A2XLTGDI5Q0VD","either","6","168","","","","","","","0","1","0","","0.1014962652","0.8","0.6","0.4","0.2","0.1014962652","0.1519969922","0.05136562407","0.3940248177","","","","","","","","","","","","","","72","H","0","img/none_selected.jpg","","19","main_expt","",""
"","bandit","105","366327","0.0-61.0-0.0","40356409","wem/bandit_party_1","A2XLTGDI5Q0VD","either","6","8","","","","","","","0","0","1","","0.05620034239","0.8","0.6","0.4","0.2","0.1184271466","0.2344823222","0.05620034239","0.3980303587","","","","","","","","","","","","","","75","K","2","","","20","main_expt","",""
"","bandit","106","367928","0.0-62.0-0.0","40356409","wem/bandit_party_1","A2XLTGDI5Q0VD","either","6","97","","","","","","","0","0","1","0.1434190777","","0.8","0.6","0.4","0.2","","","","","0.1434190777","0.2227593861","0.04865895453","0.405953395","","","","","","","","","","72","H","0","img/none_selected.jpg","","21","main_expt","",""
"","bandit","107","370095","0.0-63.0-0.0","40356409","wem/bandit_party_1","A2XLTGDI5Q0VD","either","6","662","","","","","","","0","0","1","0.1831098024","","0.8","0.6","0.4","0.2","","","","","0.1323354157","0.1831098024","0.05276066643","0.37898799","","","","","","","","","","74","J","1","","","22","main_expt","",""
"","bandit","108","371887","0.0-64.0-0.0","40356409","wem/bandit_party_1","A2XLTGDI5Q0VD","either","6","288","","","","","","","0","0","1","","0.05284133488","0.8","0.6","0.4","0.2","0.1384191998","0.1660310818","0.05284133488","0.3661255489","","","","","","","","","","","","","","75","K","2","","","23","main_expt","",""
"","bandit","109","373439","0.0-65.0-0.0","40356409","wem/bandit_party_1","A2XLTGDI5Q0VD","either","6","48","","","","","","","0","0","1","0.0333904923","","0.8","0.6","0.4","0.2","","","","","0.1395593146","0.1400827643","0.0333904923","0.3576379461","","","","","","","","","","75","K","2","","","24","main_expt","",""
"","bandit","110","375072","0.0-66.0-0.0","40356409","wem/bandit_party_1","A2XLTGDI5Q0VD","either","6","128","","","","","","","0","0","1","","0.04666446392","0.8","0.6","0.4","0.2","0.1696236693","0.2022937807","0.04666446392","0.3346121782","","","","","","","","","","","","","","75","K","2","","","25","main_expt","",""
"","bandit","111","376703","0.0-67.0-0.0","40356409","wem/bandit_party_1","A2XLTGDI5Q0VD","either","6","127","","","","","","","0","0","1","","0.04067930801","0.8","0.6","0.4","0.2","0.1754084838","0.1725383963","0.04067930801","0.3790434843","","","","","","","","","","","","","","75","K","2","","","26","main_expt","",""
"","bandit","112","378320","0.0-68.0-0.0","40356409","wem/bandit_party_1","A2XLTGDI5Q0VD","either","6","113","","","","","","","0","0","1","","0.03070036018","0.8","0.6","0.4","0.2","0.118483546","0.1735642386","0.03070036018","0.3744762435","","","","","","","","","","","","","","75","K","2","","","27","main_expt","",""
"","bandit","113","379888","0.0-69.0-0.0","40356409","wem/bandit_party_1","A2XLTGDI5Q0VD","either","6","63","","","","","","","0","0","1","","0.3650769418","0.8","0.6","0.4","0.2","0.1259847853","0.149532802","0.02292460278","0.3650769418","","","","","","","","","","","","","","76","L","3","","","28","main_expt","",""
"","bandit","114","381399","0.0-70.0-0.0","40356409","wem/bandit_party_1","A2XLTGDI5Q0VD","either","6","7","","","","","","","1","0","0","0.03476379039","","0.8","0.6","0.4","0.2","","","","","0.1072727049","0.1597785082","0.03476379039","0.3299345172","","","","","","","","","","75","K","2","","","29","main_expt","",""
"","bandit","115","382991","0.0-71.0-0.0","40356409","wem/bandit_party_1","A2XLTGDI5Q0VD","either","6","88","","","","","","","0","0","1","","0.3010095271","0.8","0.6","0.4","0.2","0.07952930744","0.1978771271","0.04211589453","0.3010095271","","","","","","","","","","","","","","76","L","3","","","30","main_expt","",""
"","bandit","116","384560","0.0-72.0-0.0","40356409","wem/bandit_party_1","A2XLTGDI5Q0VD","either","6","64","","","","","","","0","0","1","0.04495483672","","0.8","0.6","0.4","0.2","","","","","0.09691030242","0.1928768267","0.04495483672","0.331530841","","","","","","","","","","75","K","2","","","31","main_expt","",""
"","bandit","117","386128","0.0-73.0-0.0","40356409","wem/bandit_party_1","A2XLTGDI5Q0VD","either","6","63","","","","","","","0","0","1","","0.3469043085","0.8","0.6","0.4","0.2","0.1338720944","0.1511047494","0.04126869591","0.3469043085","","","","","","","","","","","","","","76","L","3","","","32","main_expt","",""
"","bandit","118","387633","0.0-74.0-0.0","40356409","wem/bandit_party_1","A2XLTGDI5Q0VD","either","6","1","","","","","","","0","0","1","","0.2778139242","0.8","0.6","0.4","0.2","0.1428203538","0.09247049486","0.02396570111","0.2778139242","","","","","","","","","","","","","","76","L","3","","","33","main_expt","",""
"","bandit","119","389271","0.0-75.0-0.0","40356409","wem/bandit_party_1","A2XLTGDI5Q0VD","either","6","133","","","","","","","0","0","1","0.1127946788","","0.8","0.6","0.4","0.2","","","","","0.1258169527","0.1127946788","0.03561151332","0.236883459","","","","","","","","","","74","J","1","","","34","main_expt","",""
"","bandit","120","390887","0.0-76.0-0.0","40356409","wem/bandit_party_1","A2XLTGDI5Q0VD","either","6","111","","","","","","","0","0","1","0.04565222073","","0.8","0.6","0.4","0.2","","","","","0.1652362889","0.1279928094","0.04565222073","0.2656196476","","","","","","","","","","75","K","2","","","35","main_expt","",""
"","bandit","121","392423","0.0-77.0-0.0","40356409","wem/bandit_party_1","A2XLTGDI5Q0VD","either","6","30","","","","","","","0","0","1","","0.09285608896","0.8","0.6","0.4","0.2","0.1472348388","0.09285608896","0.05036449293","0.2309028503","","","","","","","","","","","","","","74","J","1","","","36","main_expt","",""
"","bandit","122","393984","0.0-78.0-0.0","40356409","wem/bandit_party_1","A2XLTGDI5Q0VD","either","6","56","","","","","","","0","0","1","","0.1961267878","0.8","0.6","0.4","0.2","0.20581188","0.1251507517","0.04764774511","0.1961267878","","","","","","","","","","","","","","76","L","3","","","37","main_expt","",""
"","bandit","123","395631","0.0-79.0-0.0","40356409","wem/bandit_party_1","A2XLTGDI5Q0VD","either","6","143","","","","","","","0","0","1","","0.2197692452","0.8","0.6","0.4","0.2","0.2096070571","0.1248439258","0.04692466818","0.2197692452","","","","","","","","","","","","","","76","L","3","","","38","main_expt","",""
"","bandit","124","397304","0.0-80.0-0.0","40356409","wem/bandit_party_1","A2XLTGDI5Q0VD","either","6","169","","","","","","","0","0","1","","0.1888903691","0.8","0.6","0.4","0.2","0.1888903691","0.1192858938","0.06150360576","0.1783178102","","","","","","","","","","","","","","72","H","0","img/none_selected.jpg","","39","main_expt","",""
"","bandit","125","398871","0.0-81.0-0.0","40356409","wem/bandit_party_1","A2XLTGDI5Q0VD","either","6","62","","","","","","","0","0","1","0.1354267005","","0.8","0.6","0.4","0.2","","","","","0.1769314034","0.1457630933","0.1025324214","0.1354267005","","","","","","","","","","76","L","3","","","40","main_expt","",""
"","bandit","126","400383","0.0-82.0-0.0","40356409","wem/bandit_party_1","A2XLTGDI5Q0VD","either","6","8","","","","","","","0","0","1","","0.1278282258","0.8","0.6","0.4","0.2","0.1764673912","0.1788887836","0.1278282258","0.1307301687","","","","","","","","","","","","","","75","K","2","","","41","main_expt","",""
"","bandit","127","401888","0.0-83.0-0.0","40356409","wem/bandit_party_1","A2XLTGDI5Q0VD","either","6","1","","","","","","","0","0","1","","0.1002459791","0.8","0.6","0.4","0.2","0.1164002711","0.1550439797","0.1144783829","0.1002459791","","","","","","","","","","","","","","76","L","3","","","42","main_expt","",""
"","bandit","128","403447","0.0-84.0-0.0","40356409","wem/bandit_party_1","A2XLTGDI5Q0VD","either","6","55","","","","","","","1","0","0","0.06131682752","","0.8","0.6","0.4","0.2","","","","","0.1248357276","0.1624336935","0.148274456","0.06131682752","","","","","","","","","","76","L","3","","","43","main_expt","",""
"","bandit","129","404999","0.0-85.0-0.0","40356409","wem/bandit_party_1","A2XLTGDI5Q0VD","either","6","48","","","","","","","0","1","0","","0.1801883524","0.8","0.6","0.4","0.2","0.1801883524","0.2610419313","0.1733993608","0.05757194937","","","","","","","","","","","","","","72","H","0","img/none_selected.jpg","","44","main_expt","",""
"","bandit","130","407151","0.0-86.0-0.0","40356409","wem/bandit_party_1","A2XLTGDI5Q0VD","either","6","647","","","","","","","0","0","1","0.1536252234","","0.8","0.6","0.4","0.2","","","","","0.1536252234","0.2547096211","0.1731137141","0.06317169253","","","","","","","","","","72","H","0","img/none_selected.jpg","","45","main_expt","",""
"","bandit","131","408887","0.0-87.0-0.0","40356409","wem/bandit_party_1","A2XLTGDI5Q0VD","either","6","231","","","","","","","0","0","1","0.2690630982","","0.8","0.6","0.4","0.2","","","","","0.1453657368","0.2690630982","0.2577534017","0.08604650327","","","","","","","","","","74","J","1","","","46","main_expt","",""
"","bandit","132","410656","0.0-88.0-0.0","40356409","wem/bandit_party_1","A2XLTGDI5Q0VD","either","6","263","","","","","","","0","0","1","","0.2436059896","0.8","0.6","0.4","0.2","0.1163474927","0.2613787364","0.2436059896","0.07503215105","","","","","","","","","","","","","","75","K","2","","","47","main_expt","",""
"","bandit","133","412224","0.0-89.0-0.0","40356409","wem/bandit_party_1","A2XLTGDI5Q0VD","either","6","62","","","","","","","0","0","1","","0.261356988","0.8","0.6","0.4","0.2","0.1187671899","0.2764851171","0.261356988","0.09661626413","","","","","","","","","","","","","","75","K","2","","","48","main_expt","",""
"","bandit","134","413920","0.0-90.0-0.0","40356409","wem/bandit_party_1","A2XLTGDI5Q0VD","either","6","192","","","","","","","0","0","1","0.1321787199","","0.8","0.6","0.4","0.2","","","","","0.1321787199","0.2628846066","0.2707362224","0.141419135","","","","","","","","","","72","H","0","img/none_selected.jpg","","49","main_expt","",""
"","bandit","135","415615","0.0-91.0-0.0","40356409","wem/bandit_party_1","A2XLTGDI5Q0VD","either","6","190","","","","","","","0","0","1","","0.2733601765","0.8","0.6","0.4","0.2","0.1310663867","0.3634831931","0.2733601765","0.1341637883","","","","","","","","","","","","","","75","K","2","","","50","main_expt","",""
"","bandit","136","417295","0.0-92.0-0.0","40356409","wem/bandit_party_1","A2XLTGDI5Q0VD","either","6","176","","","","","","","0","0","1","0.1450472339","","0.8","0.6","0.4","0.2","","","","","0.1450472339","0.3771608335","0.2590969561","0.1225974466","","","","","","","","","","72","H","0","img/none_selected.jpg","","51","main_expt","",""
"","bandit","137","418903","0.0-93.0-0.0","40356409","wem/bandit_party_1","A2XLTGDI5Q0VD","either","6","103","","","","","","","0","0","1","0.1731775471","","0.8","0.6","0.4","0.2","","","","","0.1731775471","0.3093307572","0.2515646212","0.1145468474","","","","","","","","","","72","H","0","img/none_selected.jpg","","52","main_expt","",""
"","bandit","138","420463","0.0-94.0-0.0","40356409","wem/bandit_party_1","A2XLTGDI5Q0VD","either","6","56","","","","","","","0","0","1","0.2257746054","","0.8","0.6","0.4","0.2","","","","","0.2258016315","0.2990929044","0.2257746054","0.1059564611","","","","","","","","","","75","K","2","","","53","main_expt","",""
"","bandit","139","422023","0.0-95.0-0.0","40356409","wem/bandit_party_1","A2XLTGDI5Q0VD","either","6","56","","","","","","","0","0","1","0.2172527187","","0.8","0.6","0.4","0.2","","","","","0.2172527187","0.2221679908","0.2750925763","0.1090017536","","","","","","","","","","72","H","0","img/none_selected.jpg","","54","main_expt","",""
"","bandit","140","423535","0.0-96.0-0.0","40356409","wem/bandit_party_1","A2XLTGDI5Q0VD","either","6","8","","","","","","","0","0","1","0.1652356872","","0.8","0.6","0.4","0.2","","","","","0.1652356872","0.1886471815","0.3608357377","0.1249444004","","","","","","","","","","72","H","0","img/none_selected.jpg","","55","main_expt","",""
"","bandit","141","425166","0.0-97.0-0.0","40356409","wem/bandit_party_1","A2XLTGDI5Q0VD","either","6","127","","","","","","","0","0","1","","0.1576418272","0.8","0.6","0.4","0.2","0.1576418272","0.1973213641","0.4022545085","0.09043885587","","","","","","","","","","","","","","72","H","0","img/none_selected.jpg","","56","main_expt","",""
"","bandit","142","426695","0.0-98.0-0.0","40356409","wem/bandit_party_1","A2XLTGDI5Q0VD","either","6","24","","","","","","","0","0","1","","0.180776926","0.8","0.6","0.4","0.2","0.180776926","0.2207101474","0.3867568464","0.07448640425","","","","","","","","","","","","","","72","H","0","img/none_selected.jpg","","57","main_expt","",""
"","bandit","143","428216","0.0-99.0-0.0","40356409","wem/bandit_party_1","A2XLTGDI5Q0VD","either","6","16","","","","","","","0","0","1","0.1489081552","","0.8","0.6","0.4","0.2","","","","","0.1489081552","0.2480089655","0.3840355114","0.09808879237","","","","","","","","","","72","H","0","img/none_selected.jpg","","58","main_expt","",""
"","bandit","144","429856","0.0-100.0-0.0","40356409","wem/bandit_party_1","A2XLTGDI5Q0VD","either","6","135","","","","","","","0","1","0","","0.3617876187","0.8","0.6","0.4","0.2","0.125555473","0.2667579505","0.3617876187","0.0721355853","","","","","","","","","","","","","","75","K","2","","","59","main_expt","",""
"","bandit","145","431575","0.0-101.0-0.0","40356409","wem/bandit_party_1","A2XLTGDI5Q0VD","either","6","215","","","","","","","0","1","0","","0.1228814318","0.8","0.6","0.4","0.2","0.1228814318","0.2637313595","0.3018070945","0.08871326978","","","","","","","","","","","","","","72","H","0","img/none_selected.jpg","","60","main_expt","",""
"","bandit","146","433223","0.0-102.0-0.0","40356409","wem/bandit_party_1","A2XLTGDI5Q0VD","either","6","143","","","","","","","1","0","0","0.195834737","","0.8","0.6","0.4","0.2","","","","","0.195834737","0.2400462537","0.2687465691","0.1472383223","","","","","","","","","","72","H","0","img/none_selected.jpg","","61","main_expt","",""
"","bandit","147","434752","0.0-103.0-0.0","40356409","wem/bandit_party_1","A2XLTGDI5Q0VD","either","6","25","","","","","","","0","1","0","","0.287622952","0.8","0.6","0.4","0.2","0.1952904108","0.2396546157","0.287622952","0.1625866577","","","","","","","","","","","","","","75","K","2","","","62","main_expt","",""
"","bandit","148","436287","0.0-104.0-0.0","40356409","wem/bandit_party_1","A2XLTGDI5Q0VD","either","6","31","","","","","","","0","0","1","0.2558687718","","0.8","0.6","0.4","0.2","","","","","0.187392073","0.2558687718","0.2060093557","0.1196153378","","","","","","","","","","74","J","1","","","63","main_expt","",""
"","bandit","149","437831","0.0-105.0-0.0","40356409","wem/bandit_party_1","A2XLTGDI5Q0VD","either","6","39","","","","","","","0","0","1","0.1865830226","","0.8","0.6","0.4","0.2","","","","","0.1774517964","0.1789331692","0.1865830226","0.1025290435","","","","","","","","","","75","K","2","","","64","main_expt","",""
"","bandit","150","439511","0.0-106.0-0.0","40356409","wem/bandit_party_1","A2XLTGDI5Q0VD","either","6","174","","","","","","","0","0","1","0.1956590225","","0.8","0.6","0.4","0.2","","","","","0.1956590225","0.2041721298","0.2242960511","0.06637487434","","","","","","","","","","72","H","0","img/none_selected.jpg","","65","main_expt","",""
"","bandit","151","441143","0.0-107.0-0.0","40356409","wem/bandit_party_1","A2XLTGDI5Q0VD","either","6","126","","","","","","","0","0","1","0.1559932489","","0.8","0.6","0.4","0.2","","","","","0.1559932489","0.1083731131","0.213739571","0.09888809835","","","","","","","","","","72","H","0","img/none_selected.jpg","","66","main_expt","",""
"","bandit","152","442687","0.0-108.0-0.0","40356409","wem/bandit_party_1","A2XLTGDI5Q0VD","either","6","40","","","","","","","0","1","0","","0.2463093088","0.8","0.6","0.4","0.2","0.1327283285","0.08148965902","0.2463093088","0.08542348091","","","","","","","","","","","","","","75","K","2","","","67","main_expt","",""
"","bandit","153","444231","0.0-109.0-0.0","40356409","wem/bandit_party_1","A2XLTGDI5Q0VD","either","6","38","","","","","","","0","0","1","","0.1863602012","0.8","0.6","0.4","0.2","0.1646421129","0.115871946","0.1863602012","0.05648132023","","","","","","","","","","","","","","75","K","2","","","68","main_expt","",""
"","bandit","154","445744","0.0-110.0-0.0","40356409","wem/bandit_party_1","A2XLTGDI5Q0VD","either","6","7","","","","","","","0","0","1","0.1879918005","","0.8","0.6","0.4","0.2","","","","","0.1879918005","0.1049465522","0.1481768435","0.07427448495","","","","","","","","","","72","H","0","img/none_selected.jpg","","69","main_expt","",""
"","bandit","155","447296","0.0-111.0-0.0","40356409","wem/bandit_party_1","A2XLTGDI5Q0VD","either","6","47","","","","","","","0","0","1","","0.2062415021","0.8","0.6","0.4","0.2","0.1708527721","0.1224614501","0.2062415021","0.1052870039","","","","","","","","","","","","","","75","K","2","","","70","main_expt","",""
"","bandit","156","448927","0.0-112.0-0.0","40356409","wem/bandit_party_1","A2XLTGDI5Q0VD","either","6","126","","","","","","","0","0","1","0.1930923514","","0.8","0.6","0.4","0.2","","","","","0.1930923514","0.1687358413","0.2175562698","0.1114501371","","","","","","","","","","72","H","0","img/none_selected.jpg","","71","main_expt","",""
"","bandit","157","451151","0.0-113.0-0.0","40356409","wem/bandit_party_1","A2XLTGDI5Q0VD","either","6","720","","","","","","","0","0","1","0.2289396243","","0.8","0.6","0.4","0.2","","","","","0.2289396243","0.1902964731","0.2182173038","0.1282799478","","","","","","","","","","72","H","0","img/none_selected.jpg","","72","main_expt","",""
"","bandit","158","452712","0.0-114.0-0.0","40356409","wem/bandit_party_1","A2XLTGDI5Q0VD","either","6","55","","","","","","","1","0","0","0.2223781067","","0.8","0.6","0.4","0.2","","","","","0.2223781067","0.1764690901","0.1629952044","0.1113050996","","","","","","","","","","72","H","0","img/none_selected.jpg","","73","main_expt","",""
"","bandit","159","454218","0.0-115.0-0.0","40356409","wem/bandit_party_1","A2XLTGDI5Q0VD","either","6","0","","","","","","","0","0","1","","0.2291178652","0.8","0.6","0.4","0.2","0.1664819569","0.1720288853","0.2291178652","0.1573287606","","","","","","","","","","","","","","75","K","2","","","74","main_expt","",""
"","bandit","160","455823","0.0-116.0-0.0","40356409","wem/bandit_party_1","A2XLTGDI5Q0VD","either","6","101","","","","","","","0","0","1","","0.168318459","0.8","0.6","0.4","0.2","0.1157276324","0.098780463","0.2087405931","0.168318459","","","","","","","","","","","","","","76","L","3","","","75","main_expt","",""
"","bandit","161","457351","0.0-117.0-0.0","40356409","wem/bandit_party_1","A2XLTGDI5Q0VD","either","6","23","","","","","","","0","0","1","","0.131742089","0.8","0.6","0.4","0.2","0.06912044911","0.08192786134","0.1981976751","0.131742089","","","","","","","","","","","","","","76","L","3","","","76","main_expt","",""
"","bandit","162","458927","0.0-118.0-0.0","40356409","wem/bandit_party_1","A2XLTGDI5Q0VD","either","6","71","","","","","","","0","0","1","0.2302368041","","0.8","0.6","0.4","0.2","","","","","0.06151132513","0.03620126105","0.2302368041","0.1382621175","","","","","","","","","","75","K","2","","","77","main_expt","",""
"","bandit","163","460486","0.0-119.0-0.0","40356409","wem/bandit_party_1","A2XLTGDI5Q0VD","either","6","55","","","","","","","0","0","1","0.1351161864","","0.8","0.6","0.4","0.2","","","","","0.08824794056","0.03362754592","0.2538269909","0.1351161864","","","","","","","","","","76","L","3","","","78","main_expt","",""
"","bandit","164","462031","0.0-120.0-0.0","40356409","wem/bandit_party_1","A2XLTGDI5Q0VD","either","6","40","","","","","","","0","1","0","","0.221492582","0.8","0.6","0.4","0.2","0.08425003046","0.03917851348","0.221492582","0.1125986002","","","","","","","","","","","","","","75","K","2","","","79","main_expt","",""
"","bandit","165","463703","0.0-121.0-0.0","40356409","wem/bandit_party_1","A2XLTGDI5Q0VD","either","6","167","","","","","","","0","0","1","0.1071358869","","0.8","0.6","0.4","0.2","","","","","0.1059393704","0.06916691586","0.2126184008","0.1071358869","","","","","","","","","","76","L","3","","","80","main_expt","",""
"","bandit","166","465232","0.0-122.0-0.0","40356409","wem/bandit_party_1","A2XLTGDI5Q0VD","either","6","24","","","","","","","0","0","1","","0.1110223174","0.8","0.6","0.4","0.2","0.114990546","0.1110223174","0.1803612399","0.1410751298","","","","","","","","","","","","","","74","J","1","","","81","main_expt","",""
"","bandit","167","466800","0.0-123.0-0.0","40356409","wem/bandit_party_1","A2XLTGDI5Q0VD","either","6","63","","","","","","","0","0","1","0.1518454263","","0.8","0.6","0.4","0.2","","","","","0.1246300745","0.08899533144","0.1883980103","0.1518454263","","","","","","","","","","76","L","3","","","82","main_expt","",""
"","bandit","168","468495","0.0-124.0-0.0","40356409","wem/bandit_party_1","A2XLTGDI5Q0VD","either","6","190","","","","","","","0","0","1","0.1383499545","","0.8","0.6","0.4","0.2","","","","","0.1523433176","0.1383499545","0.2099895667","0.1285150734","","","","","","","","","","74","J","1","","","83","main_expt","",""
"","bandit","169","470127","0.0-125.0-0.0","40356409","wem/bandit_party_1","A2XLTGDI5Q0VD","either","6","127","","","","","","","0","0","1","","0.1815119679","0.8","0.6","0.4","0.2","0.1230513595","0.1815119679","0.1760666055","0.1083679187","","","","","","","","","","","","","","74","J","1","","","84","main_expt","",""
"","bandit","170","471632","0.0-126.0-0.0","40356409","wem/bandit_party_1","A2XLTGDI5Q0VD","either","6","0","","","","","","","0","0","1","","0.2121304898","0.8","0.6","0.4","0.2","0.1460595132","0.2121304898","0.2077415988","0.08985983991","","","","","","","","","","","","","","74","J","1","","","85","main_expt","",""
"","bandit","171","473232","0.0-127.0-0.0","40356409","wem/bandit_party_1","A2XLTGDI5Q0VD","either","6","94","","","","","","","0","0","1","","0.08377758623","0.8","0.6","0.4","0.2","0.1578730034","0.1931166697","0.1940704576","0.08377758623","","","","","","","","","","","","","","76","L","3","","","86","main_expt","",""
"","bandit","172","474823","0.0-128.0-0.0","40356409","wem/bandit_party_1","A2XLTGDI5Q0VD","either","6","86","","","","","","","0","0","1","0.1908876969","","0.8","0.6","0.4","0.2","","","","","0.1329566931","0.1908876969","0.1920524506","0.08340742779","","","","","","","","","","74","J","1","","","87","main_expt","",""
"","bandit","173","476399","0.0-129.0-0.0","40356409","wem/bandit_party_1","A2XLTGDI5Q0VD","either","6","71","","","","","","","0","0","1","0.1727332377","","0.8","0.6","0.4","0.2","","","","","0.1156353122","0.1727332377","0.2525081946","0.06937011617","","","","","","","","","","74","J","1","","","88","main_expt","",""
"","bandit","174","477983","0.0-130.0-0.0","40356409","wem/bandit_party_1","A2XLTGDI5Q0VD","either","6","78","","","","","","","0","0","1","","0.1747664758","0.8","0.6","0.4","0.2","0.1169245856","0.1747664758","0.2476280913","0.08556693901","","","","","","","","","","","","","","74","J","1","","","89","main_expt","",""
"","bandit","175","479511","0.0-131.0-0.0","40356409","wem/bandit_party_1","A2XLTGDI5Q0VD","either","6","23","","","","","","","0","0","1","","0.1302891894","0.8","0.6","0.4","0.2","0.1276927611","0.1302891894","0.2476417222","0.1013294801","","","","","","","","","","","","","","74","J","1","","","90","main_expt","",""
"","bandit","176","481104","0.0-132.0-0.0","40356409","wem/bandit_party_1","A2XLTGDI5Q0VD","either","6","87","","","","","","","0","0","1","","0.1143331172","0.8","0.6","0.4","0.2","0.1633868825","0.1143331172","0.1875867431","0.1567130635","","","","","","","","","","","","","","74","J","1","","","91","main_expt","",""
"","bandit","177","482623","0.0-133.0-0.0","40356409","wem/bandit_party_1","A2XLTGDI5Q0VD","either","6","14","","","","","","","0","0","1","0.2172033847","","0.8","0.6","0.4","0.2","","","","","0.2172033847","0.1674068059","0.1804963823","0.1214255195","","","","","","","","","","72","H","0","img/none_selected.jpg","","92","main_expt","",""
"","bandit","178","484129","0.0-134.0-0.0","40356409","wem/bandit_party_1","A2XLTGDI5Q0VD","either","6","0","","","","","","","0","0","1","","0.1468121695","0.8","0.6","0.4","0.2","0.2178255547","0.1405005834","0.1468121695","0.1317465968","","","","","","","","","","","","","","75","K","2","","","93","main_expt","",""
"","bandit","179","485952","0.0-135.0-0.0","40356409","wem/bandit_party_1","A2XLTGDI5Q0VD","either","6","318","","","","","","","0","0","1","0.1270151289","","0.8","0.6","0.4","0.2","","","","","0.2058786334","0.1338278818","0.1270151289","0.1810196293","","","","","","","","","","75","K","2","","","94","main_expt","",""
"","bandit","180","487607","0.0-136.0-0.0","40356409","wem/bandit_party_1","A2XLTGDI5Q0VD","either","6","151","","","","","","","0","0","1","","0.1049494322","0.8","0.6","0.4","0.2","0.2009860572","0.16416917","0.1049494322","0.1537803575","","","","","","","","","","","","","","75","K","2","","","95","main_expt","",""
"","bandit","181","489200","0.0-137.0-0.0","40356409","wem/bandit_party_1","A2XLTGDI5Q0VD","either","6","88","","","","","","","0","0","1","","0.1242023773","0.8","0.6","0.4","0.2","0.2792576191","0.1075549125","0.1242023773","0.2255368078","","","","","","","","","","","","","","75","K","2","","","96","main_expt","",""
"","bandit","182","490815","0.0-138.0-0.0","40356409","wem/bandit_party_1","A2XLTGDI5Q0VD","either","6","110","","","","","","","0","0","1","0.291042229","","0.8","0.6","0.4","0.2","","","","","0.291042229","0.07285617598","0.101802889","0.1881791955","","","","","","","","","","72","H","0","img/none_selected.jpg","","97","main_expt","",""
"","bandit","183","492375","0.0-139.0-0.0","40356409","wem/bandit_party_1","A2XLTGDI5Q0VD","either","6","55","","","","","","","0","0","1","0.2919937097","","0.8","0.6","0.4","0.2","","","","","0.2919937097","0.1128802937","0.08559904752","0.1722186849","","","","","","","","","","72","H","0","img/none_selected.jpg","","98","main_expt","",""
"","bandit","184","493936","0.0-140.0-0.0","40356409","wem/bandit_party_1","A2XLTGDI5Q0VD","either","6","55","","","","","","","0","0","1","","0.2581810796","0.8","0.6","0.4","0.2","0.338066437","0.07338875894","0.04480153982","0.2581810796","","","","","","","","","","","","","","76","L","3","","","99","main_expt","",""
"","bandit","185","495550","0.0-141.0-0.0","40356409","wem/bandit_party_1","A2XLTGDI5Q0VD","either","6","110","","","","","","","0","0","1","","0.03694367041","0.8","0.6","0.4","0.2","0.3466775547","0.06256672301","0.03694367041","0.3094702251","","","","","","","","","","","","","","75","K","2","","","100","main_expt","",""
"","bandit","186","497134","0.0-142.0-0.0","40356409","wem/bandit_party_1","A2XLTGDI5Q0VD","either","6","79","","","","","","","0","0","1","0.3776837944","","0.8","0.6","0.4","0.2","","","","","0.3776837944","0.06765033746","0.02534596886","0.3217449289","","","","","","","","","","72","H","0","img/none_selected.jpg","","101","main_expt","",""
"","bandit","187","498729","0.0-143.0-0.0","40356409","wem/bandit_party_1","A2XLTGDI5Q0VD","either","6","87","","","","","","","0","1","0","","0.3988278911","0.8","0.6","0.4","0.2","0.3988278911","0.08460413752","0.03456503798","0.3656493725","","","","","","","","","","","","","","72","H","0","img/none_selected.jpg","","102","main_expt","",""
"","bandit","188","500352","0.0-144.0-0.0","40356409","wem/bandit_party_1","A2XLTGDI5Q0VD","either","6","119","","","","","","","1","0","0","0.3642388176","","0.8","0.6","0.4","0.2","","","","","0.3642388176","0.1149622558","0.03116272615","0.4097417878","","","","","","","","","","72","H","0","img/none_selected.jpg","","103","main_expt","",""
"","bandit","189","501992","0.0-145.0-0.0","40356409","wem/bandit_party_1","A2XLTGDI5Q0VD","either","6","136","","","","","","","1","0","0","0.3059376685","","0.8","0.6","0.4","0.2","","","","","0.3059376685","0.1223821921","0.04034009898","0.4005896235","","","","","","","","","","72","H","0","img/none_selected.jpg","","104","main_expt","",""
"","bandit","190","503592","0.0-146.0-0.0","40356409","wem/bandit_party_1","A2XLTGDI5Q0VD","either","6","94","","","","","","","0","0","1","0.06132200156","","0.8","0.6","0.4","0.2","","","","","0.2658022239","0.1302837569","0.06132200156","0.3967946647","","","","","","","","","","75","K","2","","","105","main_expt","",""
"","bandit","191","505167","0.0-147.0-0.0","40356409","wem/bandit_party_1","A2XLTGDI5Q0VD","either","6","71","","","","","","","0","0","1","","0.03171667797","0.8","0.6","0.4","0.2","0.2583534607","0.1405927316","0.03171667797","0.3920329447","","","","","","","","","","","","","","75","K","2","","","106","main_expt","",""
"","bandit","192","506673","0.0-148.0-0.0","40356409","wem/bandit_party_1","A2XLTGDI5Q0VD","either","6","0","","","","","","","0","0","1","","0.06603394544","0.8","0.6","0.4","0.2","0.2402432731","0.1835021143","0.06603394544","0.3973329777","","","","","","","","","","","","","","75","K","2","","","107","main_expt","",""
"","bandit","193","508343","0.0-149.0-0.0","40356409","wem/bandit_party_1","A2XLTGDI5Q0VD","either","6","165","","","","","","","0","0","1","0.2364509509","","0.8","0.6","0.4","0.2","","","","","0.2364509509","0.2124513917","0.08137973005","0.3839010997","","","","","","","","","","72","H","0","img/none_selected.jpg","","108","main_expt","",""
"","bandit","194","509911","0.0-150.0-0.0","40356409","wem/bandit_party_1","A2XLTGDI5Q0VD","either","6","63","","","","","","","0","0","1","0.2164051194","","0.8","0.6","0.4","0.2","","","","","0.2164051194","0.218007314","0.04765661509","0.3879107289","","","","","","","","","","72","H","0","img/none_selected.jpg","","109","main_expt","",""
"","bandit","195","511423","0.0-151.0-0.0","40356409","wem/bandit_party_1","A2XLTGDI5Q0VD","either","6","8","","","","","","","0","0","1","0.1611838666","","0.8","0.6","0.4","0.2","","","","","0.1611838666","0.229469423","0.06789381979","0.3989855113","","","","","","","","","","72","H","0","img/none_selected.jpg","","110","main_expt","",""
"","bandit","196","512935","0.0-152.0-0.0","40356409","wem/bandit_party_1","A2XLTGDI5Q0VD","either","6","7","","","","","","","1","0","0","0.2042622235","","0.8","0.6","0.4","0.2","","","","","0.2042622235","0.2923436213","0.08972795074","0.3959495959","","","","","","","","","","72","H","0","img/none_selected.jpg","","111","main_expt","",""
"","bandit","197","514447","0.0-153.0-0.0","40356409","wem/bandit_party_1","A2XLTGDI5Q0VD","either","6","6","","","","","","","0","0","1","0.2113733305","","0.8","0.6","0.4","0.2","","","","","0.2113733305","0.2778802509","0.1176683061","0.335596647","","","","","","","","","","72","H","0","img/none_selected.jpg","","112","main_expt","",""
"","bandit","198","516040","0.0-154.0-0.0","40356409","wem/bandit_party_1","A2XLTGDI5Q0VD","either","6","86","","","","","","","0","0","1","0.1973953549","","0.8","0.6","0.4","0.2","","","","","0.220236308","0.2852166322","0.1973953549","0.2876347753","","","","","","","","","","75","K","2","","","113","main_expt","",""
"","bandit","199","517631","0.0-155.0-0.0","40356409","wem/bandit_party_1","A2XLTGDI5Q0VD","either","6","86","","","","","","","0","0","1","","0.2811359795","0.8","0.6","0.4","0.2","0.2453392608","0.3222351196","0.200840576","0.2811359795","","","","","","","","","","","","","","76","L","3","","","114","main_expt","",""
"","bandit","200","519327","0.0-156.0-0.0","40356409","wem/bandit_party_1","A2XLTGDI5Q0VD","either","6","191","","","","","","","0","0","1","0.2311931225","","0.8","0.6","0.4","0.2","","","","","0.2311931225","0.2865303103","0.2544006126","0.2056035349","","","","","","","","","","72","H","0","img/none_selected.jpg","","115","main_expt","",""
"","bandit","201","520833","0.0-157.0-0.0","40356409","wem/bandit_party_1","A2XLTGDI5Q0VD","either","6","1","","","","","","","0","0","1","","0.2290532582","0.8","0.6","0.4","0.2","0.2290532582","0.1901772154","0.2264812366","0.2435386161","","","","","","","","","","","","","","72","H","0","img/none_selected.jpg","","116","main_expt","",""
"","bandit","202","522439","0.0-158.0-0.0","40356409","wem/bandit_party_1","A2XLTGDI5Q0VD","either","6","101","","","","","","","0","1","0","","0.2523066444","0.8","0.6","0.4","0.2","0.2610634121","0.1854727963","0.2535822563","0.2523066444","","","","","","","","","","","","","","76","L","3","","","117","main_expt","",""
"","bandit","203","525167","0.0-159.0-0.0","40356409","wem/bandit_party_1","A2XLTGDI5Q0VD","either","6","1223","","","","","","","0","0","1","0.2915584027","","0.8","0.6","0.4","0.2","","","","","0.2915584027","0.223078523","0.288462609","0.258758296","","","","","","","","","","72","H","0","img/none_selected.jpg","","118","main_expt","",""
"","bandit","204","526999","0.0-160.0-0.0","40356409","wem/bandit_party_1","A2XLTGDI5Q0VD","either","6","327","","","","","","","0","0","1","0.3240034744","","0.8","0.6","0.4","0.2","","","","","0.3240034744","0.2157898803","0.3077733757","0.2513882557","","","","","","","","","","72","H","0","img/none_selected.jpg","","119","main_expt","",""
"","bandit","205","528535","0.0-161.0-0.0","40356409","wem/bandit_party_1","A2XLTGDI5Q0VD","either","6","31","","","","","","","0","0","1","0.2178230887","","0.8","0.6","0.4","0.2","","","","","0.3584552205","0.2055853597","0.3470363664","0.2178230887","","","","","","","","","","76","L","3","","","120","main_expt","",""
"","bandit","206","530191","0.0-162.0-0.0","40356409","wem/bandit_party_1","A2XLTGDI5Q0VD","either","6","151","","","","","","","0","0","1","","0.36369082","0.8","0.6","0.4","0.2","0.3392259721","0.2308362602","0.36369082","0.2249913612","","","","","","","","","","","","","","75","K","2","","","121","main_expt","",""
"","bandit","207","531799","0.0-163.0-0.0","40356409","wem/bandit_party_1","A2XLTGDI5Q0VD","either","6","102","","","","","","","0","0","1","","0.2135386538","0.8","0.6","0.4","0.2","0.3211990091","0.1858821776","0.3740977319","0.2135386538","","","","","","","","","","","","","","76","L","3","","","122","main_expt","",""
"","bandit","208","533344","0.0-164.0-0.0","40356409","wem/bandit_party_1","A2XLTGDI5Q0VD","either","6","39","","","","","","","0","0","1","","0.3617230251","0.8","0.6","0.4","0.2","0.3082515077","0.1948645322","0.3617230251","0.2742148462","","","","","","","","","","","","","","75","K","2","","","123","main_expt","",""
"","bandit","209","534959","0.0-165.0-0.0","40356409","wem/bandit_party_1","A2XLTGDI5Q0VD","either","6","110","","","","","","","0","0","1","0.1875433284","","0.8","0.6","0.4","0.2","","","","","0.3337980485","0.1875433284","0.3189133642","0.3092488957","","","","","","","","","","74","J","1","","","124","main_expt","",""
"","bandit","210","536512","0.0-166.0-0.0","40356409","wem/bandit_party_1","A2XLTGDI5Q0VD","either","6","47","","","","","","","0","1","0","","0.2832498899","0.8","0.6","0.4","0.2","0.2815584253","0.1805360773","0.3134342975","0.2832498899","","","","","","","","","","","","","","76","L","3","","","125","main_expt","",""
"","bandit","211","538024","0.0-167.0-0.0","40356409","wem/bandit_party_1","A2XLTGDI5Q0VD","either","6","6","","","","","","","1","0","0","0.321902755","","0.8","0.6","0.4","0.2","","","","","0.2544389989","0.2199741614","0.2889117865","0.321902755","","","","","","","","","","76","L","3","","","126","main_expt","",""
"","bandit","212","539624","0.0-168.0-0.0","40356409","wem/bandit_party_1","A2XLTGDI5Q0VD","either","6","95","","","","","","","0","0","1","","0.3163630435","0.8","0.6","0.4","0.2","0.217883989","0.212963778","0.3101500906","0.3163630435","","","","","","","","","","","","","","76","L","3","","","127","main_expt","",""
"","bandit","213","541407","0.0-169.0-0.0","40356409","wem/bandit_party_1","A2XLTGDI5Q0VD","either","6","278","","","","","","","0","0","1","","0.3257933697","0.8","0.6","0.4","0.2","0.1941215274","0.1853882534","0.3257933697","0.3242789072","","","","","","","","","","","","","","75","K","2","","","128","main_expt","",""
"","bandit","214","543055","0.0-170.0-0.0","40356409","wem/bandit_party_1","A2XLTGDI5Q0VD","either","6","144","","","","","","","0","0","1","0.2767822115","","0.8","0.6","0.4","0.2","","","","","0.2093197904","0.1486900389","0.2767822115","0.3430844202","","","","","","","","","","75","K","2","","","129","main_expt","",""
"","bandit","215","544615","0.0-171.0-0.0","40356409","wem/bandit_party_1","A2XLTGDI5Q0VD","either","6","55","","","","","","","0","0","1","","0.3389859305","0.8","0.6","0.4","0.2","0.2325895014","0.1581202816","0.3389859305","0.3487272729","","","","","","","","","","","","","","75","K","2","","","130","main_expt","",""
"","bandit","216","546191","0.0-172.0-0.0","40356409","wem/bandit_party_1","A2XLTGDI5Q0VD","either","6","72","","","","","","","0","0","1","","0.2807576759","0.8","0.6","0.4","0.2","0.2680880231","0.1189605486","0.2807576759","0.3850752379","","","","","","","","","","","","","","75","K","2","","","131","main_expt","",""
"","bandit","217","547759","0.0-173.0-0.0","40356409","wem/bandit_party_1","A2XLTGDI5Q0VD","either","6","63","","","","","","","0","1","0","","0.2053564998","0.8","0.6","0.4","0.2","0.2053564998","0.08638656351","0.2044414959","0.3547422913","","","","","","","","","","","","","","72","H","0","img/none_selected.jpg","","132","main_expt","",""
"","bandit","218","550144","0.0-174.0-0.0","40356409","wem/bandit_party_1","A2XLTGDI5Q0VD","either","6","879","","","","","","","1","0","0","0.2102644512","","0.8","0.6","0.4","0.2","","","","","0.2102644512","0.104542274","0.2352631215","0.3256782816","","","","","","","","","","72","H","0","img/none_selected.jpg","","133","main_expt","",""
"","bandit","219","551704","0.0-175.0-0.0","40356409","wem/bandit_party_1","A2XLTGDI5Q0VD","either","6","54","","","","","","","0","0","1","0.1401790922","","0.8","0.6","0.4","0.2","","","","","0.2028105977","0.1401790922","0.2808822736","0.2479378245","","","","","","","","","","74","J","1","","","134","main_expt","",""
"","bandit","220","553288","0.0-176.0-0.0","40356409","wem/bandit_party_1","A2XLTGDI5Q0VD","either","6","80","","","","","","","0","0","1","0.1556880781","","0.8","0.6","0.4","0.2","","","","","0.1556880781","0.1818128853","0.3053704558","0.24301602","","","","","","","","","","72","H","0","img/none_selected.jpg","","135","main_expt","",""
"","bandit","221","554823","0.0-177.0-0.0","40356409","wem/bandit_party_1","A2XLTGDI5Q0VD","either","6","30","","","","","","","0","1","0","","0.2630427063","0.8","0.6","0.4","0.2","0.1428421262","0.1583738081","0.3140058771","0.2630427063","","","","","","","","","","","","","","76","L","3","","","136","main_expt","",""
"","bandit","222","556336","0.0-178.0-0.0","40356409","wem/bandit_party_1","A2XLTGDI5Q0VD","either","6","7","","","","","","","0","0","1","","0.1497920091","0.8","0.6","0.4","0.2","0.1039390038","0.1497920091","0.323699752","0.3053425806","","","","","","","","","","","","","","74","J","1","","","137","main_expt","",""
"","bandit","223","557959","0.0-179.0-0.0","40356409","wem/bandit_party_1","A2XLTGDI5Q0VD","either","6","118","","","","","","","0","0","1","","0.3588623722","0.8","0.6","0.4","0.2","0.07132433681","0.1128601551","0.3435108126","0.3588623722","","","","","","","","","","","","","","76","L","3","","","138","main_expt","",""
"","bandit","224","559503","0.0-180.0-0.0","40356409","wem/bandit_party_1","A2XLTGDI5Q0VD","either","6","39","","","","","","","0","0","1","","0.2762704672","0.8","0.6","0.4","0.2","0.1047165976","0.1073604677","0.3505637202","0.2762704672","","","","","","","","","","","","","","76","L","3","","","139","main_expt","",""
"","bandit","225","561031","0.0-181.0-0.0","40356409","wem/bandit_party_1","A2XLTGDI5Q0VD","either","6","23","","","","","","","1","0","0","0.2475753012","","0.8","0.6","0.4","0.2","","","","","0.09043849554","0.1376710563","0.4185251601","0.2475753012","","","","","","","","","","76","L","3","","","140","main_expt","",""
"","bandit","226","562591","0.0-182.0-0.0","40356409","wem/bandit_party_1","A2XLTGDI5Q0VD","either","6","55","","","","","","","0","0","1","","0.4225289085","0.8","0.6","0.4","0.2","0.05096505815","0.1412662962","0.4225289085","0.2436306075","","","","","","","","","","","","","","75","K","2","","","141","main_expt","",""
"","bandit","227","564199","0.0-183.0-0.0","40356409","wem/bandit_party_1","A2XLTGDI5Q0VD","either","6","103","","","","","","","0","0","1","0.02973759478","","0.8","0.6","0.4","0.2","","","","","0.02973759478","0.1543424817","0.455259632","0.1998899021","","","","","","","","","","72","H","0","img/none_selected.jpg","","142","main_expt","",""
"","bandit","228","565719","0.0-184.0-0.0","40356409","wem/bandit_party_1","A2XLTGDI5Q0VD","either","6","14","","","","","","","0","0","1","0.04457260366","","0.8","0.6","0.4","0.2","","","","","0.04457260366","0.1552636118","0.4287003803","0.2568100034","","","","","","","","","","72","H","0","img/none_selected.jpg","","143","main_expt","",""
"","bandit","229","567296","0.0-185.0-0.0","40356409","wem/bandit_party_1","A2XLTGDI5Q0VD","either","6","71","","","","","","","0","0","1","","0.2859833531","0.8","0.6","0.4","0.2","0.04060115041","0.2241753426","0.4260506414","0.2859833531","","","","","","","","","","","","","","76","L","3","","","144","main_expt","",""
"","bandit","230","568888","0.0-186.0-0.0","40356409","wem/bandit_party_1","A2XLTGDI5Q0VD","either","6","87","","","","","","","0","0","1","0.2080640158","","0.8","0.6","0.4","0.2","","","","","0.06712401514","0.2484131349","0.4202170594","0.2080640158","","","","","","","","","","76","L","3","","","145","main_expt","",""
"","bandit","231","570400","0.0-187.0-0.0","40356409","wem/bandit_party_1","A2XLTGDI5Q0VD","either","6","7","","","","","","","0","0","1","","0.4333226383","0.8","0.6","0.4","0.2","0.08780921534","0.2905032103","0.4333226383","0.2469639643","","","","","","","","","","","","","","75","K","2","","","146","main_expt","",""
"","bandit","232","572056","0.0-188.0-0.0","40356409","wem/bandit_party_1","A2XLTGDI5Q0VD","either","6","150","","","","","","","1","0","0","0.2169279296","","0.8","0.6","0.4","0.2","","","","","0.1333368233","0.2846703457","0.4340954059","0.2169279296","","","","","","","","","","76","L","3","","","147","main_expt","",""
"","bandit","233","573583","0.0-189.0-0.0","40356409","wem/bandit_party_1","A2XLTGDI5Q0VD","either","6","22","","","","","","","0","0","1","","0.1248284812","0.8","0.6","0.4","0.2","0.09264147873","0.3010433131","0.3903754431","0.1248284812","","","","","","","","","","","","","","76","L","3","","","148","main_expt","",""
"","bandit","234","575231","0.0-190.0-0.0","40356409","wem/bandit_party_1","A2XLTGDI5Q0VD","either","6","143","","","","","","","0","0","1","0.123708687","","0.8","0.6","0.4","0.2","","","","","0.123708687","0.3421268102","0.4161192262","0.1498862571","","","","","","","","","","72","H","0","img/none_selected.jpg","","149","main_expt","",""
"","bandit","235","576743","0.0-191.0-0.0","40356409","wem/bandit_party_1","A2XLTGDI5Q0VD","either","6","7","","","","","","","0","1","0","","0.3382865341","0.8","0.6","0.4","0.2","0.1087811601","0.3382865341","0.4545257836","0.2044632824","","","","","","","","","","","","","","74","J","1","","","150","main_expt","",""
"","bandit","236","578264","0.0-192.0-0.0","40356409","wem/bandit_party_1","A2XLTGDI5Q0VD","either","6","15","","","","","","","0","0","1","","0.1630699797","0.8","0.6","0.4","0.2","0.1640336927","0.3031951358","0.4553704948","0.1630699797","","","","","","","","","","","","","","76","L","3","","","151","main_expt","",""
"","bandit","237","579791","0.0-193.0-0.0","40356409","wem/bandit_party_1","A2XLTGDI5Q0VD","either","6","22","","","","","","","0","1","0","","0.4692720684","0.8","0.6","0.4","0.2","0.1474195158","0.3163498213","0.4692720684","0.1534962237","","","","","","","","","","","","","","75","K","2","","","152","main_expt","",""
"","bandit","238","581343","0.0-194.0-0.0","40356409","wem/bandit_party_1","A2XLTGDI5Q0VD","either","6","47","","","","","","","0","1","0","","0.1506701345","0.8","0.6","0.4","0.2","0.1200421148","0.3205280093","0.4794448159","0.1506701345","","","","","","","","","","","","","","76","L","3","","","153","main_expt","",""
"","bandit","239","585600","0.0-195.0-0.0","40356409","wem/bandit_party_1","A2XLTGDI5Q0VD","either","6","2750","","","","","","","0","0","1","0.1295208369","","0.8","0.6","0.4","0.2","","","","","0.1295208369","0.2780981807","0.4762011242","0.1810992197","","","","","","","","","","72","H","0","img/none_selected.jpg","","154","main_expt","",""
"","bandit","240","587160","0.0-196.0-0.0","40356409","wem/bandit_party_1","A2XLTGDI5Q0VD","either","6","55","","","","","","","0","0","1","0.2574031695","","0.8","0.6","0.4","0.2","","","","","0.1189574303","0.2543788853","0.4797315341","0.2574031695","","","","","","","","","","76","L","3","","","155","main_expt","",""
"","bandit","241","588752","0.0-197.0-0.0","40356409","wem/bandit_party_1","A2XLTGDI5Q0VD","either","6","87","","","","","","","0","1","0","","0.4815153028","0.8","0.6","0.4","0.2","0.1511338071","0.2601772157","0.4815153028","0.1838662476","","","","","","","","","","","","","","75","K","2","","","156","main_expt","",""
"","bandit","242","590344","0.0-198.0-0.0","40356409","wem/bandit_party_1","A2XLTGDI5Q0VD","either","6","86","","","","","","","1","0","0","0.4769669351","","0.8","0.6","0.4","0.2","","","","","0.1494559257","0.27050514","0.4769669351","0.1951262555","","","","","","","","","","75","K","2","","","157","main_expt","",""
"","bandit","243","591943","0.0-199.0-0.0","40356409","wem/bandit_party_1","A2XLTGDI5Q0VD","either","6","93","","","","","","","0","0","1","0.1711173681","","0.8","0.6","0.4","0.2","","","","","0.1398300683","0.2912044809","0.4819637572","0.1711173681","","","","","","","","","","76","L","3","","","158","main_expt","",""
"","bandit","244","593455","0.0-200.0-0.0","40356409","wem/bandit_party_1","A2XLTGDI5Q0VD","either","6","7","","","","","","","0","0","1","","0.1262927185","0.8","0.6","0.4","0.2","0.1482700517","0.2863852675","0.4802617926","0.1262927185","","","","","","","","","","","","","","76","L","3","","","159","main_expt","",""
"","bandit","245","595191","0.0-201.0-0.0","40356409","wem/bandit_party_1","A2XLTGDI5Q0VD","either","6","231","","","","","","","0","0","1","0.4834703177","","0.8","0.6","0.4","0.2","","","","","0.1327856751","0.3188379944","0.4834703177","0.1289005464","","","","","","","","","","75","K","2","","","160","main_expt","",""
"","bandit","246","596697","0.0-202.0-0.0","40356409","wem/bandit_party_1","A2XLTGDI5Q0VD","either","6","0","","","","","","","0","1","0","","0.07062595825","0.8","0.6","0.4","0.2","0.1936248495","0.3918259889","0.4783639554","0.07062595825","","","","","","","","","","","","","","76","L","3","","","161","main_expt","",""
"","bandit","247","598343","0.0-203.0-0.0","40356409","wem/bandit_party_1","A2XLTGDI5Q0VD","either","6","141","","","","","","","0","0","1","0.3825352776","","0.8","0.6","0.4","0.2","","","","","0.1917288119","0.3825352776","0.4702379588","0.08554885259","","","","","","","","","","74","J","1","","","162","main_expt","",""
"","bandit","248","599903","0.0-204.0-0.0","40356409","wem/bandit_party_1","A2XLTGDI5Q0VD","either","6","55","","","","","","","0","0","1","0.05790820845","","0.8","0.6","0.4","0.2","","","","","0.2410074379","0.3500114378","0.4761999765","0.05790820845","","","","","","","","","","76","L","3","","","163","main_expt","",""
"","bandit","249","601423","0.0-205.0-0.0","40356409","wem/bandit_party_1","A2XLTGDI5Q0VD","either","6","15","","","","","","","0","0","1","","0.4683988395","0.8","0.6","0.4","0.2","0.2717164652","0.3138306729","0.4683988395","0.04744410613","","","","","","","","","","","","","","75","K","2","","","164","main_expt","",""
"","bandit","250","603128","0.0-206.0-0.0","40356409","wem/bandit_party_1","A2XLTGDI5Q0VD","either","6","198","","","","","","","0","1","0","","0.4594806004","0.8","0.6","0.4","0.2","0.3360488911","0.3066591237","0.4594806004","0.07721988326","","","","","","","","","","","","","","75","K","2","","","165","main_expt","",""
"","bandit","251","604664","0.0-207.0-0.0","40356409","wem/bandit_party_1","A2XLTGDI5Q0VD","either","6","31","","","","","","","0","0","1","","0.09276645858","0.8","0.6","0.4","0.2","0.3288768439","0.359337808","0.4769271284","0.09276645858","","","","","","","","","","","","","","76","L","3","","","166","main_expt","",""
"","bandit","252","606552","0.0-208.0-0.0","40356409","wem/bandit_party_1","A2XLTGDI5Q0VD","either","6","382","","","","","","","0","0","1","","0.1092251717","0.8","0.6","0.4","0.2","0.341079324","0.3888119778","0.4824675089","0.1092251717","","","","","","","","","","","","","","76","L","3","","","167","main_expt","",""
"","bandit","253","608192","0.0-209.0-0.0","40356409","wem/bandit_party_1","A2XLTGDI5Q0VD","either","6","135","","","","","","","0","1","0","","0.09704797424","0.8","0.6","0.4","0.2","0.2972081376","0.3188253523","0.4731218304","0.09704797424","","","","","","","","","","","","","","76","L","3","","","168","main_expt","",""
"","bandit","254","609791","0.0-210.0-0.0","40356409","wem/bandit_party_1","A2XLTGDI5Q0VD","either","6","94","","","","","","","0","0","1","0.2716537329","","0.8","0.6","0.4","0.2","","","","","0.2716537329","0.3035082617","0.4558692975","0.1131958007","","","","","","","","","","72","H","0","img/none_selected.jpg","","169","main_expt","",""
"","bandit","255","611471","0.0-211.0-0.0","40356409","wem/bandit_party_1","A2XLTGDI5Q0VD","either","6","175","","","","","","","0","1","0","","0.424927817","0.8","0.6","0.4","0.2","0.3705489528","0.3540810543","0.424927817","0.1636150477","","","","","","","","","","","","","","75","K","2","","","170","main_expt","",""
"","bandit","256","613095","0.0-212.0-0.0","40356409","wem/bandit_party_1","A2XLTGDI5Q0VD","either","6","119","","","","","","","0","1","0","","0.1889182236","0.8","0.6","0.4","0.2","0.3259531709","0.2912941695","0.4254050478","0.1889182236","","","","","","","","","","","","","","76","L","3","","","171","main_expt","",""
"","bandit","257","614631","0.0-213.0-0.0","40356409","wem/bandit_party_1","A2XLTGDI5Q0VD","either","6","31","","","","","","","0","0","1","","0.1494540944","0.8","0.6","0.4","0.2","0.3253578443","0.2964718019","0.4319935488","0.1494540944","","","","","","","","","","","","","","76","L","3","","","172","main_expt","",""
"","bandit","258","616335","0.0-214.0-0.0","40356409","wem/bandit_party_1","A2XLTGDI5Q0VD","either","6","198","","","","","","","0","0","1","0.1700291406","","0.8","0.6","0.4","0.2","","","","","0.3133285256","0.2411205861","0.4157756128","0.1700291406","","","","","","","","","","76","L","3","","","173","main_expt","",""
"","bandit","259","618255","0.0-215.0-0.0","40356409","wem/bandit_party_1","A2XLTGDI5Q0VD","either","6","414","","","","","","","0","0","1","","0.2007600912","0.8","0.6","0.4","0.2","0.3470844982","0.2132737127","0.3650518631","0.2007600912","","","","","","","","","","","","","","76","L","3","","","174","main_expt","",""
"","bandit","260","620600","0.0-216.0-0.0","40356409","wem/bandit_party_1","A2XLTGDI5Q0VD","either","6","838","","","","","","","0","0","1","0.3583375904","","0.8","0.6","0.4","0.2","","","","","0.3615725976","0.2722172758","0.3583375904","0.1613291475","","","","","","","","","","75","K","2","","","175","main_expt","",""
"","bandit","261","622136","0.0-217.0-0.0","40356409","wem/bandit_party_1","A2XLTGDI5Q0VD","either","6","29","","","","","","","0","0","1","","0.1618540135","0.8","0.6","0.4","0.2","0.3592449917","0.3158297255","0.3849487833","0.1618540135","","","","","","","","","","","","","","76","L","3","","","176","main_expt","",""
"","bandit","262","623656","0.0-218.0-0.0","40356409","wem/bandit_party_1","A2XLTGDI5Q0VD","either","6","14","","","","","","","0","0","1","","0.1337509382","0.8","0.6","0.4","0.2","0.3614776984","0.3033070912","0.3741193846","0.1337509382","","","","","","","","","","","","","","76","L","3","","","177","main_expt","",""
"","bandit","263","625239","0.0-219.0-0.0","40356409","wem/bandit_party_1","A2XLTGDI5Q0VD","either","6","78","","","","","","","0","0","1","","0.3704436283","0.8","0.6","0.4","0.2","0.4042649322","0.3070990366","0.3704436283","0.172909152","","","","","","","","","","","","","","75","K","2","","","178","main_expt","",""
"","bandit","264","626767","0.0-220.0-0.0","40356409","wem/bandit_party_1","A2XLTGDI5Q0VD","either","6","22","","","","","","","0","0","1","0.2306318455","","0.8","0.6","0.4","0.2","","","","","0.3626499081","0.349206168","0.3718647044","0.2306318455","","","","","","","","","","76","L","3","","","179","main_expt","",""
"","bandit","265","628351","0.0-221.0-0.0","40356409","wem/bandit_party_1","A2XLTGDI5Q0VD","either","6","78","","","","","","","0","0","1","0.3144845341","","0.8","0.6","0.4","0.2","","","","","0.365831292","0.3533593609","0.3144845341","0.2531752843","","","","","","","","","","75","K","2","","","180","main_expt","",""
"","bandit","266","629959","0.0-222.0-0.0","40356409","wem/bandit_party_1","A2XLTGDI5Q0VD","either","6","102","","","","","","","1","0","0","0.3328992573","","0.8","0.6","0.4","0.2","","","","","0.3720079561","0.3792633926","0.3328992573","0.2995137733","","","","","","","","","","75","K","2","","","181","main_expt","",""
"","bandit","267","631559","0.0-223.0-0.0","40356409","wem/bandit_party_1","A2XLTGDI5Q0VD","either","6","94","","","","","","","0","0","1","0.3443004049","","0.8","0.6","0.4","0.2","","","","","0.3747751333","0.4170401524","0.3443004049","0.2818604164","","","","","","","","","","75","K","2","","","182","main_expt","",""
"","bandit","268","633223","0.0-224.0-0.0","40356409","wem/bandit_party_1","A2XLTGDI5Q0VD","either","6","158","","","","","","","0","1","0","","0.3572445505","0.8","0.6","0.4","0.2","0.3772869326","0.4349898381","0.3572445505","0.2706787236","","","","","","","","","","","","","","75","K","2","","","183","main_expt","",""
"","bandit","269","634887","0.0-225.0-0.0","40356409","wem/bandit_party_1","A2XLTGDI5Q0VD","either","6","158","","","","","","","0","0","1","0.3719200221","","0.8","0.6","0.4","0.2","","","","","0.3719200221","0.4355724899","0.358140682","0.2788381055","","","","","","","","","","72","H","0","img/none_selected.jpg","","184","main_expt","",""
"","bandit","270","636559","0.0-226.0-0.0","40356409","wem/bandit_party_1","A2XLTGDI5Q0VD","either","6","165","","","","","","","0","0","1","0.2938856532","","0.8","0.6","0.4","0.2","","","","","0.3759280431","0.443517249","0.2938856532","0.2591604306","","","","","","","","","","75","K","2","","","185","main_expt","",""
"","bandit","271","638112","0.0-227.0-0.0","40356409","wem/bandit_party_1","A2XLTGDI5Q0VD","either","6","46","","","","","","","1","0","0","0.1717283936","","0.8","0.6","0.4","0.2","","","","","0.3686405037","0.4185550765","0.2570442146","0.1717283936","","","","","","","","","","76","L","3","","","186","main_expt","",""
"","bandit","272","639696","0.0-228.0-0.0","40356409","wem/bandit_party_1","A2XLTGDI5Q0VD","either","6","77","","","","","","","0","0","1","0.1399016055","","0.8","0.6","0.4","0.2","","","","","0.3693778387","0.4582246802","0.2781151114","0.1399016055","","","","","","","","","","76","L","3","","","187","main_expt","",""
"","bandit","273","641447","0.0-229.0-0.0","40356409","wem/bandit_party_1","A2XLTGDI5Q0VD","either","6","245","","","","","","","0","0","1","0.116743447","","0.8","0.6","0.4","0.2","","","","","0.3858781765","0.4499637214","0.2510368257","0.116743447","","","","","","","","","","76","L","3","","","188","main_expt","",""
"","bandit","274","643199","0.0-230.0-0.0","40356409","wem/bandit_party_1","A2XLTGDI5Q0VD","either","6","246","","","","","","","0","0","1","","0.09810356538","0.8","0.6","0.4","0.2","0.353665234","0.4681283031","0.2299291889","0.09810356538","","","","","","","","","","","","","","76","L","3","","","189","main_expt","",""
"","bandit","275","644807","0.0-231.0-0.0","40356409","wem/bandit_party_1","A2XLTGDI5Q0VD","either","6","102","","","","","","","0","0","1","","0.1333212727","0.8","0.6","0.4","0.2","0.3702546744","0.4672384316","0.2957770397","0.1333212727","","","","","","","","","","","","","","76","L","3","","","190","main_expt","",""
"","bandit","276","646503","0.0-232.0-0.0","40356409","wem/bandit_party_1","A2XLTGDI5Q0VD","either","6","190","","","","","","","0","0","1","0.07289491444","","0.8","0.6","0.4","0.2","","","","","0.3373283559","0.4633056668","0.2806998676","0.07289491444","","","","","","","","","","76","L","3","","","191","main_expt","",""
"","bandit","277","648191","0.0-233.0-0.0","40356409","wem/bandit_party_1","A2XLTGDI5Q0VD","either","6","183","","","","","","","0","0","1","0.2578649702","","0.8","0.6","0.4","0.2","","","","","0.3717228864","0.4701423021","0.2578649702","0.09060717316","","","","","","","","","","75","K","2","","","192","main_expt","",""
"","bandit","278","649959","0.0-234.0-0.0","40356409","wem/bandit_party_1","A2XLTGDI5Q0VD","either","6","262","","","","","","","0","0","1","0.1038106097","","0.8","0.6","0.4","0.2","","","","","0.3861484819","0.4625827917","0.3019093773","0.1038106097","","","","","","","","","","76","L","3","","","193","main_expt","",""
"","bandit","279","651727","0.0-235.0-0.0","40356409","wem/bandit_party_1","A2XLTGDI5Q0VD","either","6","262","","","","","","","0","0","1","","0.1222204007","0.8","0.6","0.4","0.2","0.3884838939","0.4480064119","0.3028603149","0.1222204007","","","","","","","","","","","","","","76","L","3","","","194","main_expt","",""
"","bandit","280","653415","0.0-236.0-0.0","40356409","wem/bandit_party_1","A2XLTGDI5Q0VD","either","6","181","","","","","","","0","0","1","","0.2933095063","0.8","0.6","0.4","0.2","0.4058549971","0.4263193963","0.2933095063","0.1230179676","","","","","","","","","","","","","","75","K","2","","","195","main_expt","",""
"","bandit","281","655320","0.0-237.0-0.0","40356409","wem/bandit_party_1","A2XLTGDI5Q0VD","either","6","397","","","","","","","0","0","1","","0.1972068901","0.8","0.6","0.4","0.2","0.3894648227","0.4399191733","0.3333663608","0.1972068901","","","","","","","","","","","","","","76","L","3","","","196","main_expt","",""
"","bandit","282","656936","0.0-238.0-0.0","40356409","wem/bandit_party_1","A2XLTGDI5Q0VD","either","6","109","","","","","","","0","0","1","","0.2091218652","0.8","0.6","0.4","0.2","0.3452919481","0.4303685687","0.3472763543","0.2091218652","","","","","","","","","","","","","","76","L","3","","","197","main_expt","",""
"","bandit","283","658462","0.0-239.0-0.0","40356409","wem/bandit_party_1","A2XLTGDI5Q0VD","either","6","21","","","","","","","0","1","0","","0.3420385624","0.8","0.6","0.4","0.2","0.3571156804","0.4166638701","0.3420385624","0.2316117542","","","","","","","","","","","","","","75","K","2","","","198","main_expt","",""
"","bandit","284","660190","0.0-240.0-0.0","40356409","wem/bandit_party_1","A2XLTGDI5Q0VD","either","6","222","","","","","","","0","0","1","","0.1983173389","0.8","0.6","0.4","0.2","0.3761278261","0.4166192342","0.3009927129","0.1983173389","","","","","","","","","","","","","","76","L","3","","","199","main_expt","",""
"","bandit","285","661774","0.0-241.0-0.0","40356409","wem/bandit_party_1","A2XLTGDI5Q0VD","either","6","78","","","","","","","0","0","1","0.2834367318","","0.8","0.6","0.4","0.2","","","","","0.3623939384","0.4065109498","0.2834367318","0.2275108597","","","","","","","","","","75","K","2","","","200","main_expt","",""
"","bandit","286","663398","0.0-242.0-0.0","40356409","wem/bandit_party_1","A2XLTGDI5Q0VD","either","6","118","","","","","","","0","1","0","","0.2753755663","0.8","0.6","0.4","0.2","0.3470966653","0.4210367682","0.2305195973","0.2753755663","","","","","","","","","","","","","","76","L","3","","","201","main_expt","",""
"","bandit","287","665126","0.0-243.0-0.0","40356409","wem/bandit_party_1","A2XLTGDI5Q0VD","either","6","222","","","","","","","1","0","0","0.236439039","","0.8","0.6","0.4","0.2","","","","","0.3738670455","0.4059774394","0.236439039","0.2867984519","","","","","","","","","","75","K","2","","","202","main_expt","",""
"","bandit","288","666646","0.0-244.0-0.0","40356409","wem/bandit_party_1","A2XLTGDI5Q0VD","either","6","14","","","","","","","0","1","0","","0.227681123","0.8","0.6","0.4","0.2","0.4434414113","0.4217634448","0.207292508","0.227681123","","","","","","","","","","","","","","76","L","3","","","203","main_expt","",""
"","bandit","289","668206","0.0-245.0-0.0","40356409","wem/bandit_party_1","A2XLTGDI5Q0VD","either","6","54","","","","","","","0","0","1","","0.2421814767","0.8","0.6","0.4","0.2","0.4363530878","0.417590799","0.2706274655","0.2421814767","","","","","","","","","","","","","","76","L","3","","","204","main_expt","",""
"","bandit","290","669799","0.0-246.0-0.0","40356409","wem/bandit_party_1","A2XLTGDI5Q0VD","either","6","86","","","","","","","0","1","0","","0.3892328218","0.8","0.6","0.4","0.2","0.4390009565","0.3892328218","0.2688171721","0.2250127273","","","","","","","","","","","","","","74","J","1","","","205","main_expt","",""
"","bandit","291","671614","0.0-247.0-0.0","40356409","wem/bandit_party_1","A2XLTGDI5Q0VD","either","6","308","","","","","","","0","0","1","","0.2148063869","0.8","0.6","0.4","0.2","0.4606838579","0.3877758809","0.2774640617","0.2148063869","","","","","","","","","","","","","","76","L","3","","","206","main_expt","",""
"","bandit","292","673375","0.0-248.0-0.0","40356409","wem/bandit_party_1","A2XLTGDI5Q0VD","either","6","254","","","","","","","1","0","0","0.31303597","","0.8","0.6","0.4","0.2","","","","","0.4679198071","0.3344078408","0.31303597","0.2370073307","","","","","","","","","","75","K","2","","","207","main_expt","",""
"","bandit","293","674959","0.0-249.0-0.0","40356409","wem/bandit_party_1","A2XLTGDI5Q0VD","either","6","77","","","","","","","0","1","0","","0.1736764344","0.8","0.6","0.4","0.2","0.4731710197","0.3285414067","0.3187850143","0.1736764344","","","","","","","","","","","","","","76","L","3","","","208","main_expt","",""
"","bandit","294","676695","0.0-250.0-0.0","40356409","wem/bandit_party_1","A2XLTGDI5Q0VD","either","6","229","","","","","","","0","0","1","0.3031297305","","0.8","0.6","0.4","0.2","","","","","0.472507437","0.337659841","0.3031297305","0.2033963155","","","","","","","","","","75","K","2","","","209","main_expt","",""
"","bandit","295","678202","0.0-251.0-0.0","40356409","wem/bandit_party_1","A2XLTGDI5Q0VD","either","6","1","","","","","","","0","0","1","","0.1849029676","0.8","0.6","0.4","0.2","0.4759946166","0.322880172","0.3593083662","0.1849029676","","","","","","","","","","","","","","76","L","3","","","210","main_expt","",""
"","bandit","296","679982","0.0-252.0-0.0","40356409","wem/bandit_party_1","A2XLTGDI5Q0VD","either","6","274","","","","","","","0","0","1","","0.08033524441","0.8","0.6","0.4","0.2","0.4838002785","0.3440981268","0.3758292662","0.08033524441","","","","","","","","","","","","","","76","L","3","","","211","main_expt","",""
"","bandit","297","681582","0.0-253.0-0.0","40356409","wem/bandit_party_1","A2XLTGDI5Q0VD","either","6","94","","","","","","","0","0","1","","0.3771764803","0.8","0.6","0.4","0.2","0.4871609062","0.3135232579","0.3771764803","0.1024936548","","","","","","","","","","","","","","75","K","2","","","212","main_expt","",""
"","bandit","298","683327","0.0-254.0-0.0","40356409","wem/bandit_party_1","A2XLTGDI5Q0VD","either","6","239","","","","","","","0","0","1","","0.3935517348","0.8","0.6","0.4","0.2","0.4829725273","0.328558382","0.3935517348","0.1380366818","","","","","","","","","","","","","","75","K","2","","","213","main_expt","",""
"","bandit","299","684974","0.0-255.0-0.0","40356409","wem/bandit_party_1","A2XLTGDI5Q0VD","either","6","141","","","","","","","0","0","1","","0.1206441992","0.8","0.6","0.4","0.2","0.4742933803","0.3024402918","0.3792377037","0.1206441992","","","","","","","","","","","","","","76","L","3","","","214","main_expt","",""
"","bandit","300","686598","0.0-256.0-0.0","40356409","wem/bandit_party_1","A2XLTGDI5Q0VD","either","6","118","","","","","","","0","0","1","","0.1320715796","0.8","0.6","0.4","0.2","0.4754417465","0.3024001881","0.3364308411","0.1320715796","","","","","","","","","","","","","","76","L","3","","","215","main_expt","",""
"","bandit","301","688478","0.0-257.0-0.0","40356409","wem/bandit_party_1","A2XLTGDI5Q0VD","either","6","374","","","","","","","0","0","1","","0.1152906885","0.8","0.6","0.4","0.2","0.4764866221","0.2975117226","0.3348871659","0.1152906885","","","","","","","","","","","","","","76","L","3","","","216","main_expt","",""
"","bandit","302","690175","0.0-258.0-0.0","40356409","wem/bandit_party_1","A2XLTGDI5Q0VD","either","6","190","","","","","","","0","0","1","","0.1191406027","0.8","0.6","0.4","0.2","0.4727866334","0.3331298207","0.321293363","0.1191406027","","","","","","","","","","","","","","76","L","3","","","217","main_expt","",""
"","bandit","303","691687","0.0-259.0-0.0","40356409","wem/bandit_party_1","A2XLTGDI5Q0VD","either","6","6","","","","","","","0","0","1","0.2905667849","","0.8","0.6","0.4","0.2","","","","","0.4664653133","0.2905667849","0.3530973922","0.1177717736","","","","","","","","","","74","J","1","","","218","main_expt","",""
"","bandit","304","693430","0.0-260.0-0.0","40356409","wem/bandit_party_1","A2XLTGDI5Q0VD","either","6","237","","","","","","","0","0","1","","0.1178729669","0.8","0.6","0.4","0.2","0.4636837267","0.2701708387","0.3837093308","0.1178729669","","","","","","","","","","","","","","76","L","3","","","219","main_expt","",""
"","bandit","305","695551","0.0-261.0-0.0","40356409","wem/bandit_party_1","A2XLTGDI5Q0VD","either","6","615","","","","","","","0","0","1","","0.1284790336","0.8","0.6","0.4","0.2","0.4599900571","0.2395453957","0.3651541458","0.1284790336","","","","","","","","","","","","","","76","L","3","","","220","main_expt","",""
"","bandit","306","697406","0.0-262.0-0.0","40356409","wem/bandit_party_1","A2XLTGDI5Q0VD","either","6","349","","","","","","","0","0","1","","0.147465279","0.8","0.6","0.4","0.2","0.4490722186","0.2770622605","0.254085412","0.147465279","","","","","","","","","","","","","","76","L","3","","","221","main_expt","",""
"","bandit","307","698913","0.0-263.0-0.0","40356409","wem/bandit_party_1","A2XLTGDI5Q0VD","either","6","0","","","","","","","0","0","1","","0.1441925756","0.8","0.6","0.4","0.2","0.4253353094","0.3390746663","0.2590796483","0.1441925756","","","","","","","","","","","","","","76","L","3","","","222","main_expt","",""
"","bandit","308","700439","0.0-264.0-0.0","40356409","wem/bandit_party_1","A2XLTGDI5Q0VD","either","6","20","","","","","","","0","0","1","0.2640852941","","0.8","0.6","0.4","0.2","","","","","0.4559825987","0.384843876","0.2640852941","0.1731110736","","","","","","","","","","75","K","2","","","223","main_expt","",""
"","bandit","309","702054","0.0-265.0-0.0","40356409","wem/bandit_party_1","A2XLTGDI5Q0VD","either","6","109","","","","","","","0","0","1","0.2636590797","","0.8","0.6","0.4","0.2","","","","","0.464560515","0.4367619307","0.2636590797","0.1124600034","","","","","","","","","","75","K","2","","","224","main_expt","",""
"","bandit","310","703694","0.0-266.0-0.0","40356409","wem/bandit_party_1","A2XLTGDI5Q0VD","either","6","134","","","","","","","0","1","0","","0.1174510337","0.8","0.6","0.4","0.2","0.4528378766","0.42055701","0.3110444069","0.1174510337","","","","","","","","","","","","","","76","L","3","","","225","main_expt","",""
"","bandit","311","705366","0.0-267.0-0.0","40356409","wem/bandit_party_1","A2XLTGDI5Q0VD","either","6","166","","","","","","","0","1","0","","0.3268768972","0.8","0.6","0.4","0.2","0.4585160156","0.4282593698","0.3268768972","0.1494320736","","","","","","","","","","","","","","75","K","2","","","226","main_expt","",""
"","bandit","312","706982","0.0-268.0-0.0","40356409","wem/bandit_party_1","A2XLTGDI5Q0VD","either","6","109","","","","","","","1","0","0","0.3112991039","","0.8","0.6","0.4","0.2","","","","","0.4525914875","0.4213985596","0.3112991039","0.1655037845","","","","","","","","","","75","K","2","","","227","main_expt","",""
"","bandit","313","708543","0.0-269.0-0.0","40356409","wem/bandit_party_1","A2XLTGDI5Q0VD","either","6","52","","","","","","","0","0","1","0.3481066565","","0.8","0.6","0.4","0.2","","","","","0.4618810074","0.4115599459","0.3481066565","0.1595877114","","","","","","","","","","75","K","2","","","228","main_expt","",""
"","bandit","314","710119","0.0-270.0-0.0","40356409","wem/bandit_party_1","A2XLTGDI5Q0VD","either","6","69","","","","","","","0","0","1","0.1811982871","","0.8","0.6","0.4","0.2","","","","","0.4661541784","0.375967734","0.3267856819","0.1811982871","","","","","","","","","","76","L","3","","","229","main_expt","",""
"","bandit","315","711831","0.0-271.0-0.0","40356409","wem/bandit_party_1","A2XLTGDI5Q0VD","either","6","205","","","","","","","0","0","1","0.2088208598","","0.8","0.6","0.4","0.2","","","","","0.4681373403","0.4172813036","0.3043034776","0.2088208598","","","","","","","","","","76","L","3","","","230","main_expt","",""
