"consent","trial_type","trial_index","time_elapsed","internal_node_id","subjID","study","MID","cond","drift","rt","responses","button_pressed","key_press","like","value","connected","gems","bombs","no_reward","GemPrChosen","BombPrChosen","GainOverPainPr_0","GainOverPainPr_1","GainOverPainPr_2","GainOverPainPr_3","LosePr_0","LosePr_1","LosePr_2","LosePr_3","WinPr_0","WinPr_1","WinPr_2","WinPr_3","Q0","Q1","Q2","gender","age","ethnicity","label","expt_phase","target","respCharCode","respKey","respChoiceNum","respChoice","practice","trial_counter","trial_label","Q0_index"
"GDM/GDM_behavioral_consent_30min_online.html","consent","0","25287","0.0-0.0","40567544","wem/bandit_party_1","A16OH8XXYY0AAS","either","7","","","","","","","","","","","","","","","","","","","","","","","","","","","","","","","","","","","","","","","","",""
"","survey-text","1","30688","0.0-1.0","40567544","wem/bandit_party_1","A16OH8XXYY0AAS","either","7","4393","{""Q0"":""A16OH8XXYY0AAS""}","","","","","","","","","","","","","","","","","","","","","","","","","","","","","","","","","","","","","","",""
"","button-response","2","33519","0.0-2.0","40567544","wem/bandit_party_1","A16OH8XXYY0AAS","either","7","1824","","2","","","","","","","","","","","","","","","","","","","","","","","","","","","","","","","","","","","","","",""
"","text-replacement","3","42490","0.0-3.0","40567544","wem/bandit_party_1","A16OH8XXYY0AAS","either","7","7969","","","32","","","","","","","","","","","","","","","","","","","","","","","","","","","","","","","","","","","","",""
"","text-replacement","4","51898","0.0-4.0","40567544","wem/bandit_party_1","A16OH8XXYY0AAS","either","7","9406","","","32","","","","","","","","","","","","","","","","","","","","","","","","","","","","","","","","","","","","",""
"","text-replacement","5","66289","0.0-5.0-0.0","40567544","wem/bandit_party_1","A16OH8XXYY0AAS","either","7","14391","","","32","","","","","","","","","","","","","","","","","","","","","","","","","","","","","","","","","","","","",""
"","identification","6","71215","0.0-6.0-0.0","40567544","wem/bandit_party_1","A16OH8XXYY0AAS","either","7","4912","","","","0","0","0","","","","","","","","","","","","","","","","","","","","","","","","pre","identification_pre","the Democratic Party","","","","","","","",""
"","identification","7","76039","0.0-6.0-1.0","40567544","wem/bandit_party_1","A16OH8XXYY0AAS","either","7","3811","","","","0","0","0","","","","","","","","","","","","","","","","","","","","","","","","pre","identification_pre","the Republican party","","","","","","","",""
"","text-replacement","8","81425","0.0-7.0","40567544","wem/bandit_party_1","A16OH8XXYY0AAS","either","7","4385","","","32","","","","","","","","","","","","","","","","","","","","","","","","","","","","","","","","","","","","",""
"","text-replacement","9","84978","0.0-8.0","40567544","wem/bandit_party_1","A16OH8XXYY0AAS","either","7","3551","","","32","","","","","","","","","","","","","","","","","","","","","","","","","","","","","","","","","","","","",""
"","text-replacement","10","90353","0.0-9.0","40567544","wem/bandit_party_1","A16OH8XXYY0AAS","either","7","5373","","","32","","","","","","","","","","","","","","","","","","","","","","","","","","","","","","","","","","","","",""
"","text-replacement","11","93689","0.0-10.0","40567544","wem/bandit_party_1","A16OH8XXYY0AAS","either","7","3334","","","32","","","","","","","","","","","","","","","","","","","","","","","","","","","","","","","","","","","","",""
"","text-replacement","12","98505","0.0-11.0","40567544","wem/bandit_party_1","A16OH8XXYY0AAS","either","7","4815","","","32","","","","","","","","","","","","","","","","","","","","","","","","","","","","","","","","","","","","",""
"","bandit","13","101649","0.0-12.0-0.0","40567544","wem/bandit_party_1","A16OH8XXYY0AAS","either","7","1636","","","","","","","0","0","1","0","0","","","","","0","","","","0","","","","","","","","","","","","","74","J","0","img/none_selected_demo.jpg","true","0","",""
"","bandit","14","103623","0.0-13.0-0.0","40567544","wem/bandit_party_1","A16OH8XXYY0AAS","either","7","470","","","","","","","0","0","1","0","0","","","","","0","","","","0","","","","","","","","","","","","","75","K","0","img/none_selected_demo.jpg","true","0","",""
"","text-replacement","15","107033","0.0-14.0","40567544","wem/bandit_party_1","A16OH8XXYY0AAS","either","7","3408","","","32","","","","","","","","","","","","","","","","","","","","","","","","","","","","","","","","","","","","",""
"","text-replacement","16","114049","0.0-15.0","40567544","wem/bandit_party_1","A16OH8XXYY0AAS","either","7","7015","","","32","","","","","","","","","","","","","","","","","","","","","","","","","","","","","","","","","","","","",""
"","text-replacement","17","120025","0.0-16.0","40567544","wem/bandit_party_1","A16OH8XXYY0AAS","either","7","5975","","","32","","","","","","","","","","","","","","","","","","","","","","","","","","","","","","","","","","","","",""
"","text-replacement","18","122441","0.0-17.0","40567544","wem/bandit_party_1","A16OH8XXYY0AAS","either","7","2414","","","32","","","","","","","","","","","","","","","","","","","","","","","","","","","","","","","","","","","","",""
"","bandit","19","124511","0.0-18.0-0.0","40567544","wem/bandit_party_1","A16OH8XXYY0AAS","either","7","566","","","","","","","0","1","0","","0.8","0.5","0.5","","","0.8","0.2","","","","","","","","","","","","","","","","74","J","0","img/none_selected_demo.jpg","true","0","80_20_practice",""
"","bandit","20","126768","0.0-18.0-1.0","40567544","wem/bandit_party_1","A16OH8XXYY0AAS","either","7","752","","","","","","","0","0","1","","0.2","0.5","0.5","","","0.8","0.2","","","","","","","","","","","","","","","","75","K","1","","true","0","80_20_practice",""
"","bandit","21","128561","0.0-18.0-2.0","40567544","wem/bandit_party_1","A16OH8XXYY0AAS","either","7","287","","","","","","","0","1","0","","0.8","0.5","0.5","","","0.8","0.2","","","","","","","","","","","","","","","","74","J","0","img/none_selected_demo.jpg","true","0","80_20_practice",""
"","bandit","22","130335","0.0-18.0-3.0","40567544","wem/bandit_party_1","A16OH8XXYY0AAS","either","7","270","","","","","","","0","1","0","","0.8","0.5","0.5","","","0.8","0.2","","","","","","","","","","","","","","","","74","J","0","img/none_selected_demo.jpg","true","0","80_20_practice",""
"","bandit","23","132080","0.0-18.0-4.0","40567544","wem/bandit_party_1","A16OH8XXYY0AAS","either","7","239","","","","","","","1","0","0","0.8","","0.5","0.5","","","","","","","0.8","0.2","","","","","","","","","","","","74","J","0","img/none_selected_demo.jpg","true","0","80_20_practice",""
"","bandit","24","133744","0.0-18.0-5.0","40567544","wem/bandit_party_1","A16OH8XXYY0AAS","either","7","158","","","","","","","1","0","0","0.8","","0.5","0.5","","","","","","","0.8","0.2","","","","","","","","","","","","74","J","0","img/none_selected_demo.jpg","true","0","80_20_practice",""
"","bandit","25","135512","0.0-18.0-6.0","40567544","wem/bandit_party_1","A16OH8XXYY0AAS","either","7","262","","","","","","","0","0","1","0.8","","0.5","0.5","","","","","","","0.8","0.2","","","","","","","","","","","","74","J","0","img/none_selected_demo.jpg","true","0","80_20_practice",""
"","bandit","26","137384","0.0-18.0-7.0","40567544","wem/bandit_party_1","A16OH8XXYY0AAS","either","7","367","","","","","","","0","0","1","","0.2","0.5","0.5","","","0.8","0.2","","","","","","","","","","","","","","","","75","K","1","","true","0","80_20_practice",""
"","bandit","27","139169","0.0-18.0-8.0","40567544","wem/bandit_party_1","A16OH8XXYY0AAS","either","7","278","","","","","","","1","0","0","0.8","","0.5","0.5","","","","","","","0.8","0.2","","","","","","","","","","","","74","J","0","img/none_selected_demo.jpg","true","0","80_20_practice",""
"","bandit","28","140855","0.0-18.0-9.0","40567544","wem/bandit_party_1","A16OH8XXYY0AAS","either","7","182","","","","","","","1","0","0","0.8","","0.5","0.5","","","","","","","0.8","0.2","","","","","","","","","","","","74","J","0","img/none_selected_demo.jpg","true","0","80_20_practice",""
"","bandit","29","142648","0.0-18.0-10.0","40567544","wem/bandit_party_1","A16OH8XXYY0AAS","either","7","288","","","","","","","1","0","0","0.8","","0.5","0.5","","","","","","","0.8","0.2","","","","","","","","","","","","74","J","0","img/none_selected_demo.jpg","true","0","80_20_practice",""
"","bandit","30","144432","0.0-18.0-11.0","40567544","wem/bandit_party_1","A16OH8XXYY0AAS","either","7","279","","","","","","","0","0","1","","0.8","0.5","0.5","","","0.8","0.2","","","","","","","","","","","","","","","","74","J","0","img/none_selected_demo.jpg","true","0","80_20_practice",""
"","bandit","31","146495","0.0-18.0-12.0","40567544","wem/bandit_party_1","A16OH8XXYY0AAS","either","7","559","","","","","","","0","1","0","","0.8","0.5","0.5","","","0.8","0.2","","","","","","","","","","","","","","","","74","J","0","img/none_selected_demo.jpg","true","0","80_20_practice",""
"","bandit","32","148233","0.0-18.0-13.0","40567544","wem/bandit_party_1","A16OH8XXYY0AAS","either","7","231","","","","","","","1","0","0","0.8","","0.5","0.5","","","","","","","0.8","0.2","","","","","","","","","","","","74","J","0","img/none_selected_demo.jpg","true","0","80_20_practice",""
"","bandit","33","150016","0.0-18.0-14.0","40567544","wem/bandit_party_1","A16OH8XXYY0AAS","either","7","277","","","","","","","0","1","0","","0.8","0.5","0.5","","","0.8","0.2","","","","","","","","","","","","","","","","74","J","0","img/none_selected_demo.jpg","true","0","80_20_practice",""
"","bandit","34","152000","0.0-18.0-15.0","40567544","wem/bandit_party_1","A16OH8XXYY0AAS","either","7","478","","","","","","","0","1","0","","0.8","0.5","0.5","","","0.8","0.2","","","","","","","","","","","","","","","","74","J","0","img/none_selected_demo.jpg","true","0","80_20_practice",""
"","bandit","35","154098","0.0-18.0-16.0","40567544","wem/bandit_party_1","A16OH8XXYY0AAS","either","7","590","","","","","","","0","1","0","","0.8","0.5","0.5","","","0.8","0.2","","","","","","","","","","","","","","","","74","J","0","img/none_selected_demo.jpg","true","0","80_20_practice",""
"","bandit","36","155993","0.0-18.0-17.0","40567544","wem/bandit_party_1","A16OH8XXYY0AAS","either","7","389","","","","","","","1","0","0","0.8","","0.5","0.5","","","","","","","0.8","0.2","","","","","","","","","","","","74","J","0","img/none_selected_demo.jpg","true","0","80_20_practice",""
"","bandit","37","158057","0.0-18.0-18.0","40567544","wem/bandit_party_1","A16OH8XXYY0AAS","either","7","558","","","","","","","1","0","0","0.8","","0.5","0.5","","","","","","","0.8","0.2","","","","","","","","","","","","74","J","0","img/none_selected_demo.jpg","true","0","80_20_practice",""
"","bandit","38","160049","0.0-18.0-19.0","40567544","wem/bandit_party_1","A16OH8XXYY0AAS","either","7","486","","","","","","","0","1","0","","0.8","0.5","0.5","","","0.8","0.2","","","","","","","","","","","","","","","","74","J","0","img/none_selected_demo.jpg","true","0","80_20_practice",""
"","text-replacement","39","162817","0.0-19.0","40567544","wem/bandit_party_1","A16OH8XXYY0AAS","either","7","2766","","","32","","","","","","","","","","","","","","","","","","","","","","","","","","","","","","","","","","","","",""
"","bandit","40","164743","0.0-20.0-0.0","40567544","wem/bandit_party_1","A16OH8XXYY0AAS","either","7","421","","","","","","","1","0","0","1","0","","","","","0","1","","","1","0","","","","","","","","","","","","74","J","0","img/none_selected_demo.jpg","true","0","",""
"","text-replacement","41","168465","0.0-21.0","40567544","wem/bandit_party_1","A16OH8XXYY0AAS","either","7","3720","","","32","","","","","","","","","","","","","","","","","","","","","","","","","","","","","","","","","","","","",""
"","text-replacement","42","170490","0.0-22.0","40567544","wem/bandit_party_1","A16OH8XXYY0AAS","either","7","2023","","","32","","","","","","","","","","","","","","","","","","","","","","","","","","","","","","","","","","","","",""
"","text-replacement","43","172362","0.0-23.0","40567544","wem/bandit_party_1","A16OH8XXYY0AAS","either","7","1870","","","32","","","","","","","","","","","","","","","","","","","","","","","","","","","","","","","","","","","","",""
"","text-replacement","44","175993","0.0-24.0","40567544","wem/bandit_party_1","A16OH8XXYY0AAS","either","7","3630","","","32","","","","","","","","","","","","","","","","","","","","","","","","","","","","","","","","","","","","",""
"","text-replacement","45","181314","0.0-25.0","40567544","wem/bandit_party_1","A16OH8XXYY0AAS","either","7","5319","","","32","","","","","","","","","","","","","","","","","","","","","","","","","","","","","","","","","","","","",""
"","text-replacement","46","183633","0.0-26.0","40567544","wem/bandit_party_1","A16OH8XXYY0AAS","either","7","2317","","","32","","","","","","","","","","","","","","","","","","","","","","","","","","","","","","","","","","","","",""
"","text-replacement","47","186953","0.0-27.0","40567544","wem/bandit_party_1","A16OH8XXYY0AAS","either","7","3318","","","32","","","","","","","","","","","","","","","","","","","","","","","","","","","","","","","","","","","","",""
"","text-replacement","48","190072","0.0-28.0","40567544","wem/bandit_party_1","A16OH8XXYY0AAS","either","7","3119","","","32","","","","","","","","","","","","","","","","","","","","","","","","","","","","","","","","","","","","",""
"","text-replacement","49","192577","0.0-29.0","40567544","wem/bandit_party_1","A16OH8XXYY0AAS","either","7","2504","","","32","","","","","","","","","","","","","","","","","","","","","","","","","","","","","","","","","","","","",""
"","text-replacement","50","194048","0.0-30.0","40567544","wem/bandit_party_1","A16OH8XXYY0AAS","either","7","1469","","","32","","","","","","","","","","","","","","","","","","","","","","","","","","","","","","","","","","","","",""
"","text-replacement","51","196800","0.0-31.0","40567544","wem/bandit_party_1","A16OH8XXYY0AAS","either","7","2750","","","32","","","","","","","","","","","","","","","","","","","","","","","","","","","","","","","","","","","","",""
"","bandit","52","199222","0.0-32.0-0.0","40567544","wem/bandit_party_1","A16OH8XXYY0AAS","either","7","917","","","","","","","1","0","0","0.8","","0.5","0.5","0.5","0.5","","","","","0.8","0.2","0.6","0.2","","","","","","","","","","72","H","0","img/none_selected.jpg","true","0","full_practice",""
"","bandit","53","201080","0.0-32.0-1.0","40567544","wem/bandit_party_1","A16OH8XXYY0AAS","either","7","350","","","","","","","0","0","1","","0.2","0.5","0.5","0.5","0.5","0.8","0.2","0.6","0.2","","","","","","","","","","","","","","74","J","1","","true","0","full_practice",""
"","bandit","54","202662","0.0-32.0-2.0","40567544","wem/bandit_party_1","A16OH8XXYY0AAS","either","7","77","","","","","","","0","0","1","","0.6","0.5","0.5","0.5","0.5","0.8","0.2","0.6","0.2","","","","","","","","","","","","","","75","K","2","","true","0","full_practice",""
"","bandit","55","204335","0.0-32.0-3.0","40567544","wem/bandit_party_1","A16OH8XXYY0AAS","either","7","167","","","","","","","0","0","1","0.2","","0.5","0.5","0.5","0.5","","","","","0.8","0.2","0.6","0.2","","","","","","","","","","76","L","3","","true","0","full_practice",""
"","bandit","56","206006","0.0-32.0-4.0","40567544","wem/bandit_party_1","A16OH8XXYY0AAS","either","7","166","","","","","","","1","0","0","0.8","","0.5","0.5","0.5","0.5","","","","","0.8","0.2","0.6","0.2","","","","","","","","","","72","H","0","img/none_selected.jpg","true","0","full_practice",""
"","bandit","57","207695","0.0-32.0-5.0","40567544","wem/bandit_party_1","A16OH8XXYY0AAS","either","7","183","","","","","","","0","1","0","","0.8","0.5","0.5","0.5","0.5","0.8","0.2","0.6","0.2","","","","","","","","","","","","","","72","H","0","img/none_selected.jpg","true","0","full_practice",""
"","bandit","58","209518","0.0-32.0-6.0","40567544","wem/bandit_party_1","A16OH8XXYY0AAS","either","7","317","","","","","","","0","0","1","","0.8","0.5","0.5","0.5","0.5","0.8","0.2","0.6","0.2","","","","","","","","","","","","","","72","H","0","img/none_selected.jpg","true","0","full_practice",""
"","bandit","59","211310","0.0-32.0-7.0","40567544","wem/bandit_party_1","A16OH8XXYY0AAS","either","7","286","","","","","","","0","0","1","0.8","","0.5","0.5","0.5","0.5","","","","","0.8","0.2","0.6","0.2","","","","","","","","","","72","H","0","img/none_selected.jpg","true","0","full_practice",""
"","bandit","60","212982","0.0-32.0-8.0","40567544","wem/bandit_party_1","A16OH8XXYY0AAS","either","7","165","","","","","","","0","1","0","","0.2","0.5","0.5","0.5","0.5","0.8","0.2","0.6","0.2","","","","","","","","","","","","","","74","J","1","","true","0","full_practice",""
"","bandit","61","214712","0.0-32.0-9.0","40567544","wem/bandit_party_1","A16OH8XXYY0AAS","either","7","223","","","","","","","0","0","1","0.2","","0.5","0.5","0.5","0.5","","","","","0.8","0.2","0.6","0.2","","","","","","","","","","74","J","1","","true","0","full_practice",""
"","bandit","62","216351","0.0-32.0-10.0","40567544","wem/bandit_party_1","A16OH8XXYY0AAS","either","7","133","","","","","","","0","1","0","","0.6","0.5","0.5","0.5","0.5","0.8","0.2","0.6","0.2","","","","","","","","","","","","","","75","K","2","","true","0","full_practice",""
"","bandit","63","218102","0.0-32.0-11.0","40567544","wem/bandit_party_1","A16OH8XXYY0AAS","either","7","245","","","","","","","0","0","1","0.6","","0.5","0.5","0.5","0.5","","","","","0.8","0.2","0.6","0.2","","","","","","","","","","75","K","2","","true","0","full_practice",""
"","bandit","64","219925","0.0-32.0-12.0","40567544","wem/bandit_party_1","A16OH8XXYY0AAS","either","7","318","","","","","","","0","0","1","","0.2","0.5","0.5","0.5","0.5","0.8","0.2","0.6","0.2","","","","","","","","","","","","","","76","L","3","","true","0","full_practice",""
"","bandit","65","221606","0.0-32.0-13.0","40567544","wem/bandit_party_1","A16OH8XXYY0AAS","either","7","175","","","","","","","0","1","0","","0.8","0.5","0.5","0.5","0.5","0.8","0.2","0.6","0.2","","","","","","","","","","","","","","72","H","0","img/none_selected.jpg","true","0","full_practice",""
"","bandit","66","223191","0.0-32.0-14.0","40567544","wem/bandit_party_1","A16OH8XXYY0AAS","either","7","79","","","","","","","0","0","1","0.2","","0.5","0.5","0.5","0.5","","","","","0.8","0.2","0.6","0.2","","","","","","","","","","74","J","1","","true","0","full_practice",""
"","bandit","67","224800","0.0-32.0-15.0","40567544","wem/bandit_party_1","A16OH8XXYY0AAS","either","7","103","","","","","","","0","1","0","","0.8","0.5","0.5","0.5","0.5","0.8","0.2","0.6","0.2","","","","","","","","","","","","","","72","H","0","img/none_selected.jpg","true","0","full_practice",""
"","bandit","68","226654","0.0-32.0-16.0","40567544","wem/bandit_party_1","A16OH8XXYY0AAS","either","7","348","","","","","","","0","0","1","","0.8","0.5","0.5","0.5","0.5","0.8","0.2","0.6","0.2","","","","","","","","","","","","","","72","H","0","img/none_selected.jpg","true","0","full_practice",""
"","bandit","69","228270","0.0-32.0-17.0","40567544","wem/bandit_party_1","A16OH8XXYY0AAS","either","7","110","","","","","","","0","0","1","0.2","","0.5","0.5","0.5","0.5","","","","","0.8","0.2","0.6","0.2","","","","","","","","","","74","J","1","","true","0","full_practice",""
"","bandit","70","230134","0.0-32.0-18.0","40567544","wem/bandit_party_1","A16OH8XXYY0AAS","either","7","358","","","","","","","0","0","1","0.2","","0.5","0.5","0.5","0.5","","","","","0.8","0.2","0.6","0.2","","","","","","","","","","76","L","3","","true","0","full_practice",""
"","bandit","71","231702","0.0-32.0-19.0","40567544","wem/bandit_party_1","A16OH8XXYY0AAS","either","7","59","","","","","","","0","1","0","","0.6","0.5","0.5","0.5","0.5","0.8","0.2","0.6","0.2","","","","","","","","","","","","","","75","K","2","","true","0","full_practice",""
"","text","72","234888","0.0-33.0","40567544","wem/bandit_party_1","A16OH8XXYY0AAS","either","7","3181","","","32","","","","","","","","","","","","","","","","","","","","","","","","","","","","","","","","","","","","",""
"","text-replacement","73","244224","0.0-34.0","40567544","wem/bandit_party_1","A16OH8XXYY0AAS","either","7","8333","","","32","","","","","","","","","","","","","","","","","","","","","","","","","","","","","","","","","","","","",""
"","text-replacement","74","252713","0.0-35.0","40567544","wem/bandit_party_1","A16OH8XXYY0AAS","either","7","8486","","","32","","","","","","","","","","","","","","","","","","","","","","","","","","","","","","","","","","","","",""
"","text-replacement","75","257073","0.0-36.0","40567544","wem/bandit_party_1","A16OH8XXYY0AAS","either","7","4357","","","32","","","","","","","","","","","","","","","","","","","","","","","","","","","","","","","","","","","","",""
"","text-replacement","76","261729","0.0-37.0","40567544","wem/bandit_party_1","A16OH8XXYY0AAS","either","7","4654","","","32","","","","","","","","","","","","","","","","","","","","","","","","","","","","","","","","","","","","",""
"","text-replacement","77","264777","0.0-38.0","40567544","wem/bandit_party_1","A16OH8XXYY0AAS","either","7","3046","","","32","","","","","","","","","","","","","","","","","","","","","","","","","","","","","","","","","","","","",""
"","survey-multi-choice-replacement","78","269751","0.0-39.0-0.0","40567544","wem/bandit_party_1","A16OH8XXYY0AAS","either","7","4965","","","","","","","","","","","","","","","","","","","","","","","","Money will be added to the pool for <span style='color:blue;'>DEMOCRATS</span>","","","","","","","attn_check","","","","","","","","","0"
"","survey-multi-choice-replacement","79","275935","0.0-40.0-0.0","40567544","wem/bandit_party_1","A16OH8XXYY0AAS","either","7","5175","","","","","","","","","","","","","","","","","","","","","","","","Equal amounts of money will be added to the pool for <span style='color:blue;'>DEMOCRATS</span> and subtracted from the pool for <span style='color:red;'>REPUBLICANS</span>","","","","","","","attn_check","","","","","","","","","2"
"","survey-multi-choice-replacement","80","279182","0.0-41.0-0.0","40567544","wem/bandit_party_1","A16OH8XXYY0AAS","either","7","2238","","","","","","","","","","","","","","","","","","","","","","","","No money will be added to either pool","","","","","","","attn_check","","","","","","","","","3"
"","bandit","81","283398","0.0-42.0-0.0","40567544","wem/bandit_party_1","A16OH8XXYY0AAS","either","7","1708","","","","","","","0","0","1","","0.1952616071","0.8","0.2","0.4","0.6","0.1952616071","0.06530018083","0.01738065524","0.1480066451","","","","","","","","","","","","","","72","H","0","img/none_selected.jpg","","1","main_expt",""
"","bandit","82","285222","0.0-43.0-0.0","40567544","wem/bandit_party_1","A16OH8XXYY0AAS","either","7","318","","","","","","","0","0","1","0.0196943787","","0.8","0.2","0.4","0.6","","","","","0.1652234336","0.1011701763","0.0196943787","0.1053714073","","","","","","","","","","75","K","2","","","2","main_expt",""
"","bandit","83","286831","0.0-44.0-0.0","40567544","wem/bandit_party_1","A16OH8XXYY0AAS","either","7","101","","","","","","","0","0","1","","0.09486719381","0.8","0.2","0.4","0.6","0.1347382479","0.09486719381","0.01678573497","0.1460078221","","","","","","","","","","","","","","74","J","1","","","3","main_expt",""
"","bandit","84","288487","0.0-45.0-0.0","40567544","wem/bandit_party_1","A16OH8XXYY0AAS","either","7","151","","","","","","","0","0","1","0.1866138214","","0.8","0.2","0.4","0.6","","","","","0.1684625442","0.06705802814","0.02981965743","0.1866138214","","","","","","","","","","76","L","3","","","4","main_expt",""
"","bandit","85","290071","0.0-46.0-0.0","40567544","wem/bandit_party_1","A16OH8XXYY0AAS","either","7","76","","","","","","","1","0","0","0.1792029032","","0.8","0.2","0.4","0.6","","","","","0.1792029032","0.0822298525","0.02600208211","0.2445348717","","","","","","","","","","72","H","0","img/none_selected.jpg","","5","main_expt",""
"","bandit","86","291719","0.0-47.0-0.0","40567544","wem/bandit_party_1","A16OH8XXYY0AAS","either","7","141","","","","","","","1","0","0","0.2153873139","","0.8","0.2","0.4","0.6","","","","","0.2153873139","0.09162209411","0.02332436933","0.2546962146","","","","","","","","","","72","H","0","img/none_selected.jpg","","6","main_expt",""
"","bandit","87","293527","0.0-48.0-0.0","40567544","wem/bandit_party_1","A16OH8XXYY0AAS","either","7","301","","","","","","","0","0","1","","0.1757762721","0.8","0.2","0.4","0.6","0.1757762721","0.1028820098","0.02864040813","0.2344841702","","","","","","","","","","","","","","72","H","0","img/none_selected.jpg","","7","main_expt",""
"","bandit","88","295263","0.0-49.0-0.0","40567544","wem/bandit_party_1","A16OH8XXYY0AAS","either","7","229","","","","","","","0","0","1","","0.1532270122","0.8","0.2","0.4","0.6","0.2241229746","0.1532270122","0.02951264166","0.2473344203","","","","","","","","","","","","","","74","J","1","","","8","main_expt",""
"","bandit","89","298087","0.0-50.0-0.0","40567544","wem/bandit_party_1","A16OH8XXYY0AAS","either","7","1316","","","","","","","1","0","0","0.2642160399","","0.8","0.2","0.4","0.6","","","","","0.2199426203","0.2131450397","0.02997011939","0.2642160399","","","","","","","","","","76","L","3","","","9","main_expt",""
"","bandit","90","300087","0.0-51.0-0.0","40567544","wem/bandit_party_1","A16OH8XXYY0AAS","either","7","494","","","","","","","0","0","1","0.2104627424","","0.8","0.2","0.4","0.6","","","","","0.1520686932","0.2985754635","0.02489651457","0.2104627424","","","","","","","","","","76","L","3","","","10","main_expt",""
"","bandit","91","301878","0.0-52.0-0.0","40567544","wem/bandit_party_1","A16OH8XXYY0AAS","either","7","286","","","","","","","0","0","1","","0.01651058827","0.8","0.2","0.4","0.6","0.2013349999","0.2924640086","0.01651058827","0.219372878","","","","","","","","","","","","","","75","K","2","","","11","main_expt",""
"","bandit","92","303878","0.0-53.0-0.0","40567544","wem/bandit_party_1","A16OH8XXYY0AAS","either","7","494","","","","","","","0","0","1","0.2156800105","","0.8","0.2","0.4","0.6","","","","","0.2156800105","0.3264291113","0.02341729431","0.2105839871","","","","","","","","","","72","H","0","img/none_selected.jpg","","12","main_expt",""
"","bandit","93","305679","0.0-54.0-0.0","40567544","wem/bandit_party_1","A16OH8XXYY0AAS","either","7","292","","","","","","","1","0","0","0.1833947696","","0.8","0.2","0.4","0.6","","","","","0.1833947696","0.3254913314","0.0257410372","0.2511698571","","","","","","","","","","72","H","0","img/none_selected.jpg","","13","main_expt",""
"","bandit","94","308125","0.0-55.0-0.0","40567544","wem/bandit_party_1","A16OH8XXYY0AAS","either","7","940","","","","","","","0","0","1","0.2158977649","","0.8","0.2","0.4","0.6","","","","","0.243643366","0.3428504842","0.02570014082","0.2158977649","","","","","","","","","","76","L","3","","","14","main_expt",""
"","bandit","95","309830","0.0-56.0-0.0","40567544","wem/bandit_party_1","A16OH8XXYY0AAS","either","7","199","","","","","","","0","1","0","","0.2265365198","0.8","0.2","0.4","0.6","0.2265365198","0.3244047679","0.04268316416","0.2762480727","","","","","","","","","","","","","","72","H","0","img/none_selected.jpg","","15","main_expt",""
"","bandit","96","311624","0.0-57.0-0.0","40567544","wem/bandit_party_1","A16OH8XXYY0AAS","either","7","287","","","","","","","1","0","0","0.2484951132","","0.8","0.2","0.4","0.6","","","","","0.2484951132","0.3025313629","0.04667408308","0.3202890724","","","","","","","","","","72","H","0","img/none_selected.jpg","","16","main_expt",""
"","bandit","97","313421","0.0-58.0-0.0","40567544","wem/bandit_party_1","A16OH8XXYY0AAS","either","7","293","","","","","","","0","0","1","0.2570267238","","0.8","0.2","0.4","0.6","","","","","0.2570267238","0.3291216938","0.0506688767","0.3680552247","","","","","","","","","","72","H","0","img/none_selected.jpg","","17","main_expt",""
"","bandit","98","315166","0.0-59.0-0.0","40567544","wem/bandit_party_1","A16OH8XXYY0AAS","either","7","236","","","","","","","0","0","1","0.287418789","","0.8","0.2","0.4","0.6","","","","","0.287418789","0.2987881532","0.02988526167","0.3968593921","","","","","","","","","","72","H","0","img/none_selected.jpg","","18","main_expt",""
"","bandit","99","317077","0.0-60.0-0.0","40567544","wem/bandit_party_1","A16OH8XXYY0AAS","either","7","406","","","","","","","0","0","1","0.281207523","","0.8","0.2","0.4","0.6","","","","","0.2338710899","0.281207523","0.03476350355","0.4192996399","","","","","","","","","","74","J","1","","","19","main_expt",""
"","bandit","100","318717","0.0-61.0-0.0","40567544","wem/bandit_party_1","A16OH8XXYY0AAS","either","7","133","","","","","","","0","0","1","0.0233687216","","0.8","0.2","0.4","0.6","","","","","0.2335293464","0.291129981","0.0233687216","0.4362768361","","","","","","","","","","75","K","2","","","20","main_expt",""
"","bandit","101","320670","0.0-62.0-0.0","40567544","wem/bandit_party_1","A16OH8XXYY0AAS","either","7","444","","","","","","","0","0","1","0.01272547494","","0.8","0.2","0.4","0.6","","","","","0.2434826965","0.2729578326","0.01272547494","0.4599691003","","","","","","","","","","75","K","2","","","21","main_expt",""
"","bandit","102","322430","0.0-63.0-0.0","40567544","wem/bandit_party_1","A16OH8XXYY0AAS","either","7","254","","","","","","","0","0","1","0.44353765","","0.8","0.2","0.4","0.6","","","","","0.2702300591","0.2805141014","0.01739491555","0.44353765","","","","","","","","","","76","L","3","","","22","main_expt",""
"","bandit","103","324182","0.0-64.0-0.0","40567544","wem/bandit_party_1","A16OH8XXYY0AAS","either","7","245","","","","","","","0","0","1","0.2424740502","","0.8","0.2","0.4","0.6","","","","","0.2424740502","0.3016389313","0.006692102231","0.4105594395","","","","","","","","","","72","H","0","img/none_selected.jpg","","23","main_expt",""
"","bandit","104","325983","0.0-65.0-0.0","40567544","wem/bandit_party_1","A16OH8XXYY0AAS","either","7","291","","","","","","","0","0","1","0.1754503809","","0.8","0.2","0.4","0.6","","","","","0.1754503809","0.2475621169","0.01209419849","0.4243351486","","","","","","","","","","72","H","0","img/none_selected.jpg","","24","main_expt",""
"","bandit","105","327813","0.0-66.0-0.0","40567544","wem/bandit_party_1","A16OH8XXYY0AAS","either","7","321","","","","","","","0","0","1","0.2023019753","","0.8","0.2","0.4","0.6","","","","","0.2023019753","0.2607476102","0.009734580702","0.4172780312","","","","","","","","","","72","H","0","img/none_selected.jpg","","25","main_expt",""
"","bandit","106","329693","0.0-67.0-0.0","40567544","wem/bandit_party_1","A16OH8XXYY0AAS","either","7","373","","","","","","","0","0","1","0.292589008","","0.8","0.2","0.4","0.6","","","","","0.1887270612","0.292589008","0.008596148908","0.3981062588","","","","","","","","","","74","J","1","","","26","main_expt",""
"","bandit","107","331461","0.0-68.0-0.0","40567544","wem/bandit_party_1","A16OH8XXYY0AAS","either","7","262","","","","","","","0","0","1","0.3889188119","","0.8","0.2","0.4","0.6","","","","","0.2526986378","0.2978950393","0.01380650739","0.3889188119","","","","","","","","","","76","L","3","","","27","main_expt",""
"","bandit","108","333078","0.0-69.0-0.0","40567544","wem/bandit_party_1","A16OH8XXYY0AAS","either","7","110","","","","","","","0","0","1","0.01160852189","","0.8","0.2","0.4","0.6","","","","","0.2536033627","0.337392419","0.01160852189","0.3699095679","","","","","","","","","","75","K","2","","","28","main_expt",""
"","bandit","109","334725","0.0-70.0-0.0","40567544","wem/bandit_party_1","A16OH8XXYY0AAS","either","7","141","","","","","","","0","0","1","","0.02858314752","0.8","0.2","0.4","0.6","0.258258936","0.3830759015","0.02858314752","0.4087832773","","","","","","","","","","","","","","75","K","2","","","29","main_expt",""
"","bandit","110","336477","0.0-71.0-0.0","40567544","wem/bandit_party_1","A16OH8XXYY0AAS","either","7","245","","","","","","","0","0","1","0.4162513677","","0.8","0.2","0.4","0.6","","","","","0.3152574144","0.3778881599","0.0265596094","0.4162513677","","","","","","","","","","76","L","3","","","30","main_expt",""
"","bandit","111","338310","0.0-72.0-0.0","40567544","wem/bandit_party_1","A16OH8XXYY0AAS","either","7","325","","","","","","","0","1","0","","0.43337534","0.8","0.2","0.4","0.6","0.3508579725","0.3585458117","0.02828816112","0.43337534","","","","","","","","","","","","","","76","L","3","","","31","main_expt",""
"","bandit","112","340076","0.0-73.0-0.0","40567544","wem/bandit_party_1","A16OH8XXYY0AAS","either","7","261","","","","","","","0","0","1","0.4399105216","","0.8","0.2","0.4","0.6","","","","","0.3902021543","0.3511664436","0.03857304495","0.4399105216","","","","","","","","","","76","L","3","","","32","main_expt",""
"","bandit","113","341693","0.0-74.0-0.0","40567544","wem/bandit_party_1","A16OH8XXYY0AAS","either","7","109","","","","","","","1","0","0","0.3859623535","","0.8","0.2","0.4","0.6","","","","","0.4112626521","0.3924960189","0.02642959278","0.3859623535","","","","","","","","","","76","L","3","","","33","main_expt",""
"","bandit","114","343465","0.0-75.0-0.0","40567544","wem/bandit_party_1","A16OH8XXYY0AAS","either","7","262","","","","","","","0","1","0","","0.4231921331","0.8","0.2","0.4","0.6","0.3912589523","0.3713907517","0.06800028167","0.4231921331","","","","","","","","","","","","","","76","L","3","","","34","main_expt",""
"","bandit","115","345254","0.0-76.0-0.0","40567544","wem/bandit_party_1","A16OH8XXYY0AAS","either","7","282","","","","","","","0","1","0","","0.3950458867","0.8","0.2","0.4","0.6","0.3663646496","0.3929004689","0.05710280771","0.3950458867","","","","","","","","","","","","","","76","L","3","","","35","main_expt",""
"","bandit","116","346998","0.0-77.0-0.0","40567544","wem/bandit_party_1","A16OH8XXYY0AAS","either","7","238","","","","","","","0","1","0","","0.4005306787","0.8","0.2","0.4","0.6","0.3045225128","0.3820467604","0.07756943076","0.4005306787","","","","","","","","","","","","","","76","L","3","","","36","main_expt",""
"","bandit","117","348557","0.0-78.0-0.0","40567544","wem/bandit_party_1","A16OH8XXYY0AAS","either","7","54","","","","","","","1","0","0","0.3972735937","","0.8","0.2","0.4","0.6","","","","","0.2806474599","0.3948022939","0.06074629621","0.3972735937","","","","","","","","","","76","L","3","","","37","main_expt",""
"","bandit","118","350157","0.0-79.0-0.0","40567544","wem/bandit_party_1","A16OH8XXYY0AAS","either","7","94","","","","","","","1","0","0","0.38339591","","0.8","0.2","0.4","0.6","","","","","0.3558759705","0.3769579019","0.07063042774","0.38339591","","","","","","","","","","76","L","3","","","38","main_expt",""
"","bandit","119","351733","0.0-80.0-0.0","40567544","wem/bandit_party_1","A16OH8XXYY0AAS","either","7","69","","","","","","","0","0","1","0.3906354184","","0.8","0.2","0.4","0.6","","","","","0.3194138052","0.4030344636","0.06209293178","0.3906354184","","","","","","","","","","76","L","3","","","39","main_expt",""
"","bandit","120","353910","0.0-81.0-0.0","40567544","wem/bandit_party_1","A16OH8XXYY0AAS","either","7","670","","","","","","","1","0","0","0.3623676206","","0.8","0.2","0.4","0.6","","","","","0.3549086085","0.3622335218","0.06952578958","0.3623676206","","","","","","","","","","76","L","3","","","40","main_expt",""
"","bandit","121","355748","0.0-82.0-0.0","40567544","wem/bandit_party_1","A16OH8XXYY0AAS","either","7","332","","","","","","","1","0","0","0.3873704927","","0.8","0.2","0.4","0.6","","","","","0.3452113815","0.3911596719","0.1291245709","0.3873704927","","","","","","","","","","76","L","3","","","41","main_expt",""
"","bandit","122","357524","0.0-83.0-0.0","40567544","wem/bandit_party_1","A16OH8XXYY0AAS","either","7","270","","","","","","","0","1","0","","0.359823116","0.8","0.2","0.4","0.6","0.3522960267","0.3921858285","0.1174523948","0.359823116","","","","","","","","","","","","","","76","L","3","","","42","main_expt",""
"","bandit","123","359310","0.0-84.0-0.0","40567544","wem/bandit_party_1","A16OH8XXYY0AAS","either","7","278","","","","","","","1","0","0","0.3710191411","","0.8","0.2","0.4","0.6","","","","","0.3093122096","0.3831213528","0.1201484523","0.3710191411","","","","","","","","","","76","L","3","","","43","main_expt",""
"","bandit","124","361165","0.0-85.0-0.0","40567544","wem/bandit_party_1","A16OH8XXYY0AAS","either","7","348","","","","","","","0","0","1","0.3874065465","","0.8","0.2","0.4","0.6","","","","","0.3026159556","0.3518708159","0.09958360536","0.3874065465","","","","","","","","","","76","L","3","","","44","main_expt",""
"","bandit","125","362965","0.0-86.0-0.0","40567544","wem/bandit_party_1","A16OH8XXYY0AAS","either","7","294","","","","","","","1","0","0","0.3851533971","","0.8","0.2","0.4","0.6","","","","","0.3336294247","0.3122870636","0.05173655998","0.3851533971","","","","","","","","","","76","L","3","","","45","main_expt",""
"","bandit","126","364632","0.0-87.0-0.0","40567544","wem/bandit_party_1","A16OH8XXYY0AAS","either","7","158","","","","","","","0","1","0","","0.4055883719","0.8","0.2","0.4","0.6","0.3400222736","0.2635721956","0.05945041096","0.4055883719","","","","","","","","","","","","","","76","L","3","","","46","main_expt",""
"","bandit","127","366365","0.0-88.0-0.0","40567544","wem/bandit_party_1","A16OH8XXYY0AAS","either","7","227","","","","","","","1","0","0","0.3671593179","","0.8","0.2","0.4","0.6","","","","","0.328707825","0.2856785865","0.04375763727","0.3671593179","","","","","","","","","","76","L","3","","","47","main_expt",""
"","bandit","128","368213","0.0-89.0-0.0","40567544","wem/bandit_party_1","A16OH8XXYY0AAS","either","7","340","","","","","","","0","0","1","0.3198203038","","0.8","0.2","0.4","0.6","","","","","0.3307690822","0.2649087478","0.0666370861","0.3198203038","","","","","","","","","","76","L","3","","","48","main_expt",""
"","bandit","129","370087","0.0-90.0-0.0","40567544","wem/bandit_party_1","A16OH8XXYY0AAS","either","7","365","","","","","","","1","0","0","0.3111357295","","0.8","0.2","0.4","0.6","","","","","0.3438067684","0.2462979357","0.08266213623","0.3111357295","","","","","","","","","","76","L","3","","","49","main_expt",""
"","bandit","130","371701","0.0-91.0-0.0","40567544","wem/bandit_party_1","A16OH8XXYY0AAS","either","7","106","","","","","","","0","0","1","0.3196682981","","0.8","0.2","0.4","0.6","","","","","0.4037002216","0.2490076798","0.08795051988","0.3196682981","","","","","","","","","","76","L","3","","","50","main_expt",""
"","bandit","131","373438","0.0-92.0-0.0","40567544","wem/bandit_party_1","A16OH8XXYY0AAS","either","7","229","","","","","","","1","0","0","0.3088596379","","0.8","0.2","0.4","0.6","","","","","0.3557518394","0.305209751","0.07533366945","0.3088596379","","","","","","","","","","76","L","3","","","51","main_expt",""
"","bandit","132","375238","0.0-93.0-0.0","40567544","wem/bandit_party_1","A16OH8XXYY0AAS","either","7","293","","","","","","","0","0","1","0.3060924957","","0.8","0.2","0.4","0.6","","","","","0.3254324358","0.3087204988","0.06506638851","0.3060924957","","","","","","","","","","76","L","3","","","52","main_expt",""
"","bandit","133","377213","0.0-94.0-0.0","40567544","wem/bandit_party_1","A16OH8XXYY0AAS","either","7","469","","","","","","","0","0","1","0.3229319808","","0.8","0.2","0.4","0.6","","","","","0.2952150256","0.2984188648","0.06562792832","0.3229319808","","","","","","","","","","76","L","3","","","53","main_expt",""
"","bandit","134","378754","0.0-95.0-0.0","40567544","wem/bandit_party_1","A16OH8XXYY0AAS","either","7","33","","","","","","","0","0","1","0.300320608","","0.8","0.2","0.4","0.6","","","","","0.300320608","0.3353917468","0.04630081711","0.3280138586","","","","","","","","","","72","H","0","img/none_selected.jpg","","54","main_expt",""
"","bandit","135","380374","0.0-96.0-0.0","40567544","wem/bandit_party_1","A16OH8XXYY0AAS","either","7","113","","","","","","","0","0","1","0.2985084879","","0.8","0.2","0.4","0.6","","","","","0.2985084879","0.3259144651","0.03868373719","0.2777260571","","","","","","","","","","72","H","0","img/none_selected.jpg","","55","main_expt",""
"","bandit","136","382142","0.0-97.0-0.0","40567544","wem/bandit_party_1","A16OH8XXYY0AAS","either","7","261","","","","","","","0","0","1","","0.3259049121","0.8","0.2","0.4","0.6","0.2607009345","0.3259049121","0.06235362297","0.1791004868","","","","","","","","","","","","","","74","J","1","","","56","main_expt",""
"","bandit","137","383975","0.0-98.0-0.0","40567544","wem/bandit_party_1","A16OH8XXYY0AAS","either","7","324","","","","","","","0","0","1","","0.3687904078","0.8","0.2","0.4","0.6","0.2565854794","0.3687904078","0.04639461243","0.2182265394","","","","","","","","","","","","","","74","J","1","","","57","main_expt",""
"","bandit","138","385727","0.0-99.0-0.0","40567544","wem/bandit_party_1","A16OH8XXYY0AAS","either","7","245","","","","","","","0","0","1","","0.08954448139","0.8","0.2","0.4","0.6","0.319121847","0.3422038875","0.08954448139","0.2970860181","","","","","","","","","","","","","","75","K","2","","","58","main_expt",""
"","bandit","139","387413","0.0-100.0-0.0","40567544","wem/bandit_party_1","A16OH8XXYY0AAS","either","7","179","","","","","","","0","0","1","","0.07390342289","0.8","0.2","0.4","0.6","0.3269923399","0.3771421139","0.07390342289","0.3249685468","","","","","","","","","","","","","","75","K","2","","","59","main_expt",""
"","bandit","140","388982","0.0-101.0-0.0","40567544","wem/bandit_party_1","A16OH8XXYY0AAS","either","7","62","","","","","","","0","0","1","","0.2931470039","0.8","0.2","0.4","0.6","0.3150968823","0.3620124399","0.05801548519","0.2931470039","","","","","","","","","","","","","","76","L","3","","","60","main_expt",""
"","bandit","141","390597","0.0-102.0-0.0","40567544","wem/bandit_party_1","A16OH8XXYY0AAS","either","7","108","","","","","","","0","1","0","","0.2646536279","0.8","0.2","0.4","0.6","0.324539239","0.3958116198","0.07333263924","0.2646536279","","","","","","","","","","","","","","76","L","3","","","61","main_expt",""
"","bandit","142","392397","0.0-103.0-0.0","40567544","wem/bandit_party_1","A16OH8XXYY0AAS","either","7","293","","","","","","","0","0","1","0.242461968","","0.8","0.2","0.4","0.6","","","","","0.3066306166","0.3615218546","0.07563430262","0.242461968","","","","","","","","","","76","L","3","","","62","main_expt",""
"","bandit","143","394206","0.0-104.0-0.0","40567544","wem/bandit_party_1","A16OH8XXYY0AAS","either","7","301","","","","","","","0","0","1","","0.2206683029","0.8","0.2","0.4","0.6","0.3068900116","0.3574266064","0.06826526778","0.2206683029","","","","","","","","","","","","","","76","L","3","","","63","main_expt",""
"","bandit","144","396015","0.0-105.0-0.0","40567544","wem/bandit_party_1","A16OH8XXYY0AAS","either","7","299","","","","","","","0","0","1","","0.2288959862","0.8","0.2","0.4","0.6","0.2936494982","0.3541915859","0.1175271989","0.2288959862","","","","","","","","","","","","","","76","L","3","","","64","main_expt",""
"","bandit","145","397831","0.0-106.0-0.0","40567544","wem/bandit_party_1","A16OH8XXYY0AAS","either","7","307","","","","","","","1","0","0","0.290236101","","0.8","0.2","0.4","0.6","","","","","0.290236101","0.3339820985","0.1273865191","0.2346523549","","","","","","","","","","72","H","0","img/none_selected.jpg","","65","main_expt",""
"","bandit","146","399638","0.0-107.0-0.0","40567544","wem/bandit_party_1","A16OH8XXYY0AAS","either","7","301","","","","","","","0","0","1","0.2512036594","","0.8","0.2","0.4","0.6","","","","","0.2512036594","0.3195467083","0.09075088943","0.1881688105","","","","","","","","","","72","H","0","img/none_selected.jpg","","66","main_expt",""
"","bandit","147","401422","0.0-108.0-0.0","40567544","wem/bandit_party_1","A16OH8XXYY0AAS","either","7","276","","","","","","","0","0","1","0.263747572","","0.8","0.2","0.4","0.6","","","","","0.263747572","0.3477383846","0.08077075725","0.231043846","","","","","","","","","","72","H","0","img/none_selected.jpg","","67","main_expt",""
"","bandit","148","403079","0.0-109.0-0.0","40567544","wem/bandit_party_1","A16OH8XXYY0AAS","either","7","149","","","","","","","0","0","1","","0.2892519303","0.8","0.2","0.4","0.6","0.2892519303","0.3365352069","0.08810311296","0.2576664243","","","","","","","","","","","","","","72","H","0","img/none_selected.jpg","","68","main_expt",""
"","bandit","149","404588","0.0-110.0-0.0","40567544","wem/bandit_party_1","A16OH8XXYY0AAS","either","7","0","","","","","","","0","0","1","0.3148812039","","0.8","0.2","0.4","0.6","","","","","0.2383664846","0.3148812039","0.1260156682","0.2183283259","","","","","","","","","","74","J","1","","","69","main_expt",""
"","bandit","150","406406","0.0-111.0-0.0","40567544","wem/bandit_party_1","A16OH8XXYY0AAS","either","7","312","","","","","","","0","0","1","","0.3154014692","0.8","0.2","0.4","0.6","0.2497111545","0.3154014692","0.08773951932","0.2260484764","","","","","","","","","","","","","","74","J","1","","","70","main_expt",""
"","bandit","151","408229","0.0-112.0-0.0","40567544","wem/bandit_party_1","A16OH8XXYY0AAS","either","7","317","","","","","","","0","0","1","0.219815459","","0.8","0.2","0.4","0.6","","","","","0.2095843002","0.219815459","0.1154304285","0.3196469567","","","","","","","","","","74","J","1","","","71","main_expt",""
"","bandit","152","410021","0.0-113.0-0.0","40567544","wem/bandit_party_1","A16OH8XXYY0AAS","either","7","285","","","","","","","0","0","1","","0.10097247","0.8","0.2","0.4","0.6","0.1972488467","0.2623730272","0.10097247","0.3644141189","","","","","","","","","","","","","","75","K","2","","","72","main_expt",""
"","bandit","153","411653","0.0-114.0-0.0","40567544","wem/bandit_party_1","A16OH8XXYY0AAS","either","7","124","","","","","","","0","0","1","","0.0746930591","0.8","0.2","0.4","0.6","0.15494396","0.2639805735","0.0746930591","0.4081842109","","","","","","","","","","","","","","75","K","2","","","73","main_expt",""
"","bandit","154","413446","0.0-115.0-0.0","40567544","wem/bandit_party_1","A16OH8XXYY0AAS","either","7","284","","","","","","","0","0","1","0.1124392477","","0.8","0.2","0.4","0.6","","","","","0.1324790415","0.2770925356","0.1124392477","0.4506698749","","","","","","","","","","75","K","2","","","74","main_expt",""
"","bandit","155","415046","0.0-116.0-0.0","40567544","wem/bandit_party_1","A16OH8XXYY0AAS","either","7","93","","","","","","","0","0","1","0.454520075","","0.8","0.2","0.4","0.6","","","","","0.179195356","0.2796652475","0.113494578","0.454520075","","","","","","","","","","76","L","3","","","75","main_expt",""
"","bandit","156","416854","0.0-117.0-0.0","40567544","wem/bandit_party_1","A16OH8XXYY0AAS","either","7","301","","","","","","","0","0","1","0.466199952","","0.8","0.2","0.4","0.6","","","","","0.215808919","0.3153427244","0.1469344428","0.466199952","","","","","","","","","","76","L","3","","","76","main_expt",""
"","bandit","157","418662","0.0-118.0-0.0","40567544","wem/bandit_party_1","A16OH8XXYY0AAS","either","7","301","","","","","","","0","1","0","","0.4402141775","0.8","0.2","0.4","0.6","0.2312347408","0.3676911864","0.2152215887","0.4402141775","","","","","","","","","","","","","","76","L","3","","","77","main_expt",""
"","bandit","158","420765","0.0-119.0-0.0","40567544","wem/bandit_party_1","A16OH8XXYY0AAS","either","7","596","","","","","","","1","0","0","0.4525957793","","0.8","0.2","0.4","0.6","","","","","0.2197025874","0.3434277392","0.2055177618","0.4525957793","","","","","","","","","","76","L","3","","","78","main_expt",""
"","bandit","159","422509","0.0-120.0-0.0","40567544","wem/bandit_party_1","A16OH8XXYY0AAS","either","7","238","","","","","","","0","0","1","0.4630799716","","0.8","0.2","0.4","0.6","","","","","0.2227420924","0.3758616161","0.222262525","0.4630799716","","","","","","","","","","76","L","3","","","79","main_expt",""
"","bandit","160","424261","0.0-121.0-0.0","40567544","wem/bandit_party_1","A16OH8XXYY0AAS","either","7","245","","","","","","","0","0","1","","0.2283057493","0.8","0.2","0.4","0.6","0.2283057493","0.3862393514","0.2700860438","0.423693353","","","","","","","","","","","","","","72","H","0","img/none_selected.jpg","","80","main_expt",""
"","bandit","161","426053","0.0-122.0-0.0","40567544","wem/bandit_party_1","A16OH8XXYY0AAS","either","7","284","","","","","","","0","0","1","0.4319112677","","0.8","0.2","0.4","0.6","","","","","0.2721525977","0.3593770893","0.2642688004","0.4319112677","","","","","","","","","","76","L","3","","","81","main_expt",""
"","bandit","162","428030","0.0-123.0-0.0","40567544","wem/bandit_party_1","A16OH8XXYY0AAS","either","7","468","","","","","","","0","0","1","0.4035110645","","0.8","0.2","0.4","0.6","","","","","0.2850237184","0.4035110645","0.2824164754","0.441827487","","","","","","","","","","74","J","1","","","82","main_expt",""
"","bandit","163","429741","0.0-124.0-0.0","40567544","wem/bandit_party_1","A16OH8XXYY0AAS","either","7","203","","","","","","","1","0","0","0.2819095575","","0.8","0.2","0.4","0.6","","","","","0.3236436683","0.3719627038","0.2819095575","0.4288861504","","","","","","","","","","75","K","2","","","83","main_expt",""
"","bandit","164","431527","0.0-125.0-0.0","40567544","wem/bandit_party_1","A16OH8XXYY0AAS","either","7","277","","","","","","","1","0","0","0.2589745902","","0.8","0.2","0.4","0.6","","","","","0.3339638593","0.3349288927","0.2589745902","0.4350385517","","","","","","","","","","75","K","2","","","84","main_expt",""
"","bandit","165","433270","0.0-126.0-0.0","40567544","wem/bandit_party_1","A16OH8XXYY0AAS","either","7","232","","","","","","","0","0","1","","0.3626504113","0.8","0.2","0.4","0.6","0.3795022601","0.3247899262","0.3626504113","0.4255505645","","","","","","","","","","","","","","75","K","2","","","85","main_expt",""
"","bandit","166","435085","0.0-127.0-0.0","40567544","wem/bandit_party_1","A16OH8XXYY0AAS","either","7","306","","","","","","","1","0","0","0.3598915268","","0.8","0.2","0.4","0.6","","","","","0.3835523064","0.3443557019","0.3598915268","0.4330938692","","","","","","","","","","75","K","2","","","86","main_expt",""
"","bandit","167","437005","0.0-128.0-0.0","40567544","wem/bandit_party_1","A16OH8XXYY0AAS","either","7","412","","","","","","","0","0","1","0.3433052933","","0.8","0.2","0.4","0.6","","","","","0.3772514457","0.3648776167","0.3433052933","0.4548398529","","","","","","","","","","75","K","2","","","87","main_expt",""
"","bandit","168","438645","0.0-129.0-0.0","40567544","wem/bandit_party_1","A16OH8XXYY0AAS","either","7","133","","","","","","","1","0","0","0.4493124031","","0.8","0.2","0.4","0.6","","","","","0.3766830519","0.3609631839","0.4022938878","0.4493124031","","","","","","","","","","76","L","3","","","88","main_expt",""
"","bandit","169","440308","0.0-130.0-0.0","40567544","wem/bandit_party_1","A16OH8XXYY0AAS","either","7","156","","","","","","","0","0","1","0.4141493151","","0.8","0.2","0.4","0.6","","","","","0.3537755119","0.3636167192","0.4141493151","0.4161110063","","","","","","","","","","75","K","2","","","89","main_expt",""
"","bandit","170","441876","0.0-131.0-0.0","40567544","wem/bandit_party_1","A16OH8XXYY0AAS","either","7","62","","","","","","","0","1","0","","0.405260856","0.8","0.2","0.4","0.6","0.3014761449","0.3563441379","0.4136124289","0.405260856","","","","","","","","","","","","","","76","L","3","","","90","main_expt",""
"","bandit","171","443676","0.0-132.0-0.0","40567544","wem/bandit_party_1","A16OH8XXYY0AAS","either","7","292","","","","","","","0","0","1","","0.3827048226","0.8","0.2","0.4","0.6","0.2694038268","0.3389138503","0.4184852842","0.3827048226","","","","","","","","","","","","","","76","L","3","","","91","main_expt",""
"","bandit","172","445437","0.0-133.0-0.0","40567544","wem/bandit_party_1","A16OH8XXYY0AAS","either","7","252","","","","","","","0","0","1","0.3552182969","","0.8","0.2","0.4","0.6","","","","","0.2651536323","0.3263360165","0.4456808576","0.3552182969","","","","","","","","","","76","L","3","","","92","main_expt",""
"","bandit","173","447077","0.0-134.0-0.0","40567544","wem/bandit_party_1","A16OH8XXYY0AAS","either","7","132","","","","","","","0","0","1","0.4355219805","","0.8","0.2","0.4","0.6","","","","","0.1997208586","0.2844131911","0.4355219805","0.3286897504","","","","","","","","","","75","K","2","","","93","main_expt",""
"","bandit","174","448694","0.0-135.0-0.0","40567544","wem/bandit_party_1","A16OH8XXYY0AAS","either","7","106","","","","","","","0","0","1","","0.2978465223","0.8","0.2","0.4","0.6","0.2442555344","0.2978465223","0.4609821192","0.3422490236","","","","","","","","","","","","","","74","J","1","","","94","main_expt",""
"","bandit","175","450366","0.0-136.0-0.0","40567544","wem/bandit_party_1","A16OH8XXYY0AAS","either","7","164","","","","","","","0","0","1","0.2638839348","","0.8","0.2","0.4","0.6","","","","","0.2638839348","0.2638723705","0.4419374505","0.3160161054","","","","","","","","","","72","H","0","img/none_selected.jpg","","95","main_expt",""
"","bandit","176","452086","0.0-137.0-0.0","40567544","wem/bandit_party_1","A16OH8XXYY0AAS","either","7","212","","","","","","","0","0","1","0.2945538732","","0.8","0.2","0.4","0.6","","","","","0.2265245807","0.2276010735","0.39438674","0.2945538732","","","","","","","","","","76","L","3","","","96","main_expt",""
"","bandit","177","453702","0.0-138.0-0.0","40567544","wem/bandit_party_1","A16OH8XXYY0AAS","either","7","108","","","","","","","0","0","1","","0.3617668419","0.8","0.2","0.4","0.6","0.1969189177","0.2045446072","0.3617668419","0.393563827","","","","","","","","","","","","","","75","K","2","","","97","main_expt",""
"","bandit","178","455277","0.0-139.0-0.0","40567544","wem/bandit_party_1","A16OH8XXYY0AAS","either","7","69","","","","","","","0","0","1","0.2436418828","","0.8","0.2","0.4","0.6","","","","","0.1761144245","0.2436418828","0.3737913853","0.4046254927","","","","","","","","","","74","J","1","","","98","main_expt",""
"","bandit","179","456925","0.0-140.0-0.0","40567544","wem/bandit_party_1","A16OH8XXYY0AAS","either","7","140","","","","","","","0","1","0","","0.1211630765","0.8","0.2","0.4","0.6","0.1211630765","0.2473144087","0.4221129479","0.3659012549","","","","","","","","","","","","","","72","H","0","img/none_selected.jpg","","99","main_expt",""
"","bandit","180","458725","0.0-141.0-0.0","40567544","wem/bandit_party_1","A16OH8XXYY0AAS","either","7","293","","","","","","","0","0","1","0.1257326749","","0.8","0.2","0.4","0.6","","","","","0.1257326749","0.2707360286","0.3857893684","0.400368336","","","","","","","","","","72","H","0","img/none_selected.jpg","","100","main_expt",""
"","bandit","181","460485","0.0-142.0-0.0","40567544","wem/bandit_party_1","A16OH8XXYY0AAS","either","7","251","","","","","","","0","0","1","0.09975532208","","0.8","0.2","0.4","0.6","","","","","0.09975532208","0.3250409822","0.3635527264","0.4367931528","","","","","","","","","","72","H","0","img/none_selected.jpg","","101","main_expt",""
"","bandit","182","462356","0.0-143.0-0.0","40567544","wem/bandit_party_1","A16OH8XXYY0AAS","either","7","363","","","","","","","0","0","1","","0.4371155326","0.8","0.2","0.4","0.6","0.1127414424","0.3088580598","0.3738375489","0.4371155326","","","","","","","","","","","","","","76","L","3","","","102","main_expt",""
"","bandit","183","464085","0.0-144.0-0.0","40567544","wem/bandit_party_1","A16OH8XXYY0AAS","either","7","219","","","","","","","0","0","1","","0.388648264","0.8","0.2","0.4","0.6","0.1232600734","0.2901001995","0.3860163181","0.388648264","","","","","","","","","","","","","","76","L","3","","","103","main_expt",""
"","bandit","184","465748","0.0-145.0-0.0","40567544","wem/bandit_party_1","A16OH8XXYY0AAS","either","7","152","","","","","","","0","0","1","0.3718469433","","0.8","0.2","0.4","0.6","","","","","0.08156843846","0.309645936","0.390692362","0.3718469433","","","","","","","","","","76","L","3","","","104","main_expt",""
"","bandit","185","467373","0.0-146.0-0.0","40567544","wem/bandit_party_1","A16OH8XXYY0AAS","either","7","118","","","","","","","0","0","1","0.3386062745","","0.8","0.2","0.4","0.6","","","","","0.08245659199","0.3386062745","0.4139082553","0.3920304628","","","","","","","","","","74","J","1","","","105","main_expt",""
"","bandit","186","468919","0.0-147.0-0.0","40567544","wem/bandit_party_1","A16OH8XXYY0AAS","either","7","37","","","","","","","0","0","1","","0.3295275825","0.8","0.2","0.4","0.6","0.1276639339","0.3827539061","0.3295275825","0.3733497125","","","","","","","","","","","","","","75","K","2","","","106","main_expt",""
"","bandit","187","470644","0.0-148.0-0.0","40567544","wem/bandit_party_1","A16OH8XXYY0AAS","either","7","219","","","","","","","0","0","1","0.1812689745","","0.8","0.2","0.4","0.6","","","","","0.1812689745","0.3401355396","0.3499712774","0.3878439861","","","","","","","","","","72","H","0","img/none_selected.jpg","","107","main_expt",""
"","bandit","188","472508","0.0-149.0-0.0","40567544","wem/bandit_party_1","A16OH8XXYY0AAS","either","7","357","","","","","","","0","0","1","","0.2187982558","0.8","0.2","0.4","0.6","0.2187982558","0.3258039352","0.2666891207","0.3529013302","","","","","","","","","","","","","","72","H","0","img/none_selected.jpg","","108","main_expt",""
"","bandit","189","474388","0.0-150.0-0.0","40567544","wem/bandit_party_1","A16OH8XXYY0AAS","either","7","372","","","","","","","0","0","1","","0.374919859","0.8","0.2","0.4","0.6","0.2201216928","0.374919859","0.2575067634","0.3457683734","","","","","","","","","","","","","","74","J","1","","","109","main_expt",""
"","bandit","190","476292","0.0-151.0-0.0","40567544","wem/bandit_party_1","A16OH8XXYY0AAS","either","7","396","","","","","","","0","1","0","","0.3656186065","0.8","0.2","0.4","0.6","0.1789817232","0.3656186065","0.2664913793","0.3316873257","","","","","","","","","","","","","","74","J","1","","","110","main_expt",""
"","bandit","191","478052","0.0-152.0-0.0","40567544","wem/bandit_party_1","A16OH8XXYY0AAS","either","7","252","","","","","","","0","0","1","0.3649701027","","0.8","0.2","0.4","0.6","","","","","0.2404947452","0.3649701027","0.2233446911","0.3434945318","","","","","","","","","","74","J","1","","","111","main_expt",""
"","bandit","192","479813","0.0-153.0-0.0","40567544","wem/bandit_party_1","A16OH8XXYY0AAS","either","7","252","","","","","","","0","0","1","","0.3371716456","0.8","0.2","0.4","0.6","0.2959558532","0.3371716456","0.2170082082","0.2729480053","","","","","","","","","","","","","","74","J","1","","","112","main_expt",""
"","bandit","193","481391","0.0-154.0-0.0","40567544","wem/bandit_party_1","A16OH8XXYY0AAS","either","7","69","","","","","","","0","0","1","0.1912277411","","0.8","0.2","0.4","0.6","","","","","0.2966985553","0.2587224119","0.1912277411","0.2579672073","","","","","","","","","","75","K","2","","","113","main_expt",""
"","bandit","194","482916","0.0-155.0-0.0","40567544","wem/bandit_party_1","A16OH8XXYY0AAS","either","7","17","","","","","","","0","1","0","","0.24654084","0.8","0.2","0.4","0.6","0.3289730608","0.2384324947","0.1691995451","0.24654084","","","","","","","","","","","","","","76","L","3","","","114","main_expt",""
"","bandit","195","484509","0.0-156.0-0.0","40567544","wem/bandit_party_1","A16OH8XXYY0AAS","either","7","85","","","","","","","0","0","1","0.246649757","","0.8","0.2","0.4","0.6","","","","","0.2783705844","0.2705755989","0.1263730162","0.246649757","","","","","","","","","","76","L","3","","","115","main_expt",""
"","bandit","196","486124","0.0-157.0-0.0","40567544","wem/bandit_party_1","A16OH8XXYY0AAS","either","7","108","","","","","","","0","0","1","0.2190482835","","0.8","0.2","0.4","0.6","","","","","0.2990421824","0.2666822","0.1130092975","0.2190482835","","","","","","","","","","76","L","3","","","116","main_expt",""
"","bandit","197","487678","0.0-158.0-0.0","40567544","wem/bandit_party_1","A16OH8XXYY0AAS","either","7","45","","","","","","","0","0","1","0.3214730448","","0.8","0.2","0.4","0.6","","","","","0.3214730448","0.2664749026","0.1317362661","0.1860086181","","","","","","","","","","72","H","0","img/none_selected.jpg","","117","main_expt",""
"","bandit","198","489332","0.0-159.0-0.0","40567544","wem/bandit_party_1","A16OH8XXYY0AAS","either","7","147","","","","","","","0","0","1","","0.08460291254","0.8","0.2","0.4","0.6","0.3996160597","0.285497096","0.08460291254","0.1765749983","","","","","","","","","","","","","","75","K","2","","","118","main_expt",""
"","bandit","199","490885","0.0-160.0-0.0","40567544","wem/bandit_party_1","A16OH8XXYY0AAS","either","7","46","","","","","","","0","0","1","0.1840588368","","0.8","0.2","0.4","0.6","","","","","0.4143362638","0.3004427434","0.09168363065","0.1840588368","","","","","","","","","","76","L","3","","","119","main_expt",""
"","bandit","200","492757","0.0-161.0-0.0","40567544","wem/bandit_party_1","A16OH8XXYY0AAS","either","7","362","","","","","","","0","0","1","0.2419855731","","0.8","0.2","0.4","0.6","","","","","0.372340151","0.2419855731","0.06729372802","0.1988357929","","","","","","","","","","74","J","1","","","120","main_expt",""
"","bandit","201","494404","0.0-162.0-0.0","40567544","wem/bandit_party_1","A16OH8XXYY0AAS","either","7","140","","","","","","","0","0","1","0.3910424524","","0.8","0.2","0.4","0.6","","","","","0.3910424524","0.3054132847","0.08346408207","0.2315674","","","","","","","","","","72","H","0","img/none_selected.jpg","","121","main_expt",""
"","bandit","202","495949","0.0-163.0-0.0","40567544","wem/bandit_party_1","A16OH8XXYY0AAS","either","7","36","","","","","","","0","0","1","","0.05632743158","0.8","0.2","0.4","0.6","0.3813410711","0.2473202095","0.05632743158","0.2041322171","","","","","","","","","","","","","","75","K","2","","","122","main_expt",""
"","bandit","203","497741","0.0-164.0-0.0","40567544","wem/bandit_party_1","A16OH8XXYY0AAS","either","7","283","","","","","","","1","0","0","0.1945268209","","0.8","0.2","0.4","0.6","","","","","0.4247291795","0.2909195989","0.05516745574","0.1945268209","","","","","","","","","","76","L","3","","","123","main_expt",""
"","bandit","204","499757","0.0-165.0-0.0","40567544","wem/bandit_party_1","A16OH8XXYY0AAS","either","7","509","","","","","","","0","0","1","0.2206749142","","0.8","0.2","0.4","0.6","","","","","0.4311179713","0.3493750294","0.05528311039","0.2206749142","","","","","","","","","","76","L","3","","","124","main_expt",""
"","bandit","205","501614","0.0-166.0-0.0","40567544","wem/bandit_party_1","A16OH8XXYY0AAS","either","7","349","","","","","","","0","1","0","","0.212012295","0.8","0.2","0.4","0.6","0.4085782939","0.3883668019","0.07149807259","0.212012295","","","","","","","","","","","","","","76","L","3","","","125","main_expt",""
"","bandit","206","503343","0.0-167.0-0.0","40567544","wem/bandit_party_1","A16OH8XXYY0AAS","either","7","220","","","","","","","0","0","1","0.1656684785","","0.8","0.2","0.4","0.6","","","","","0.4110861309","0.3888129637","0.1137803622","0.1656684785","","","","","","","","","","76","L","3","","","126","main_expt",""
"","bandit","207","505206","0.0-168.0-0.0","40567544","wem/bandit_party_1","A16OH8XXYY0AAS","either","7","356","","","","","","","0","0","1","0.1685301808","","0.8","0.2","0.4","0.6","","","","","0.4214671818","0.3659195129","0.1003054442","0.1685301808","","","","","","","","","","76","L","3","","","127","main_expt",""
"","bandit","208","507021","0.0-169.0-0.0","40567544","wem/bandit_party_1","A16OH8XXYY0AAS","either","7","305","","","","","","","0","0","1","0.1703551811","","0.8","0.2","0.4","0.6","","","","","0.36889317","0.3689954399","0.1378169536","0.1703551811","","","","","","","","","","76","L","3","","","128","main_expt",""
"","bandit","209","508768","0.0-170.0-0.0","40567544","wem/bandit_party_1","A16OH8XXYY0AAS","either","7","236","","","","","","","0","0","1","","0.1333081235","0.8","0.2","0.4","0.6","0.3840267129","0.3600340942","0.1333081235","0.1624753709","","","","","","","","","","","","","","75","K","2","","","129","main_expt",""
"","bandit","210","511589","0.0-171.0-0.0","40567544","wem/bandit_party_1","A16OH8XXYY0AAS","either","7","1314","","","","","","","0","0","1","","0.1682212827","0.8","0.2","0.4","0.6","0.3809677701","0.3580797835","0.1682212827","0.2335662737","","","","","","","","","","","","","","75","K","2","","","130","main_expt",""
"","bandit","211","513605","0.0-172.0-0.0","40567544","wem/bandit_party_1","A16OH8XXYY0AAS","either","7","509","","","","","","","0","0","1","0.2193829955","","0.8","0.2","0.4","0.6","","","","","0.3681933818","0.3785893338","0.2193829955","0.240441026","","","","","","","","","","75","K","2","","","131","main_expt",""
"","bandit","212","515436","0.0-173.0-0.0","40567544","wem/bandit_party_1","A16OH8XXYY0AAS","either","7","323","","","","","","","0","0","1","0.3764735404","","0.8","0.2","0.4","0.6","","","","","0.3664045944","0.3764735404","0.2693349046","0.2266699971","","","","","","","","","","74","J","1","","","132","main_expt",""
"","bandit","213","517228","0.0-174.0-0.0","40567544","wem/bandit_party_1","A16OH8XXYY0AAS","either","7","285","","","","","","","0","0","1","0.4046437197","","0.8","0.2","0.4","0.6","","","","","0.4046437197","0.3433534211","0.2576546077","0.1994193025","","","","","","","","","","72","H","0","img/none_selected.jpg","","133","main_expt",""
"","bandit","214","519599","0.0-175.0-0.0","40567544","wem/bandit_party_1","A16OH8XXYY0AAS","either","7","860","","","","","","","0","0","1","0.1891464922","","0.8","0.2","0.4","0.6","","","","","0.364490756","0.3606247271","0.2412372273","0.1891464922","","","","","","","","","","76","L","3","","","134","main_expt",""
"","bandit","215","521285","0.0-176.0-0.0","40567544","wem/bandit_party_1","A16OH8XXYY0AAS","either","7","180","","","","","","","1","0","0","0.2198641054","","0.8","0.2","0.4","0.6","","","","","0.311914316","0.3268624306","0.2198641054","0.1614798668","","","","","","","","","","75","K","2","","","135","main_expt",""
"","bandit","216","523134","0.0-177.0-0.0","40567544","wem/bandit_party_1","A16OH8XXYY0AAS","either","7","339","","","","","","","0","0","1","0.2504132697","","0.8","0.2","0.4","0.6","","","","","0.2653901568","0.2854606769","0.2504132697","0.1880386222","","","","","","","","","","75","K","2","","","136","main_expt",""
"","bandit","217","524942","0.0-178.0-0.0","40567544","wem/bandit_party_1","A16OH8XXYY0AAS","either","7","301","","","","","","","0","0","1","","0.1912230989","0.8","0.2","0.4","0.6","0.2413295316","0.3311747399","0.1912230989","0.1961818793","","","","","","","","","","","","","","75","K","2","","","137","main_expt",""
"","bandit","218","526557","0.0-179.0-0.0","40567544","wem/bandit_party_1","A16OH8XXYY0AAS","either","7","106","","","","","","","0","0","1","0.2857678963","","0.8","0.2","0.4","0.6","","","","","0.2060295423","0.2570785188","0.1576256809","0.2857678963","","","","","","","","","","76","L","3","","","138","main_expt",""
"","bandit","219","528221","0.0-180.0-0.0","40567544","wem/bandit_party_1","A16OH8XXYY0AAS","either","7","155","","","","","","","0","1","0","","0.1019788138","0.8","0.2","0.4","0.6","0.1809645164","0.2858060749","0.1019788138","0.3449131854","","","","","","","","","","","","","","75","K","2","","","139","main_expt",""
"","bandit","220","530076","0.0-181.0-0.0","40567544","wem/bandit_party_1","A16OH8XXYY0AAS","either","7","347","","","","","","","0","0","1","","0.07754087054","0.8","0.2","0.4","0.6","0.1843216893","0.2975559752","0.07754087054","0.2537716732","","","","","","","","","","","","","","75","K","2","","","140","main_expt",""
"","bandit","221","531820","0.0-182.0-0.0","40567544","wem/bandit_party_1","A16OH8XXYY0AAS","either","7","237","","","","","","","0","0","1","","0.09489610577","0.8","0.2","0.4","0.6","0.1651876155","0.2802168405","0.09489610577","0.2858111263","","","","","","","","","","","","","","75","K","2","","","141","main_expt",""
"","bandit","222","533356","0.0-183.0-0.0","40567544","wem/bandit_party_1","A16OH8XXYY0AAS","either","7","29","","","","","","","0","1","0","","0.2231986748","0.8","0.2","0.4","0.6","0.1536427928","0.2231986748","0.09601428546","0.303049367","","","","","","","","","","","","","","74","J","1","","","142","main_expt",""
"","bandit","223","535189","0.0-184.0-0.0","40567544","wem/bandit_party_1","A16OH8XXYY0AAS","either","7","326","","","","","","","0","0","1","","0.2032880393","0.8","0.2","0.4","0.6","0.1546140226","0.2032880393","0.08301142993","0.2969419413","","","","","","","","","","","","","","74","J","1","","","143","main_expt",""
"","bandit","224","537013","0.0-185.0-0.0","40567544","wem/bandit_party_1","A16OH8XXYY0AAS","either","7","315","","","","","","","0","0","1","","0.1967741464","0.8","0.2","0.4","0.6","0.1746031107","0.1967741464","0.09599686985","0.3128690494","","","","","","","","","","","","","","74","J","1","","","144","main_expt",""
"","bandit","225","538774","0.0-186.0-0.0","40567544","wem/bandit_party_1","A16OH8XXYY0AAS","either","7","252","","","","","","","1","0","0","0.2021387556","","0.8","0.2","0.4","0.6","","","","","0.2021387556","0.2283154954","0.07499383622","0.2991796355","","","","","","","","","","72","H","0","img/none_selected.jpg","","145","main_expt",""
"","bandit","226","540557","0.0-187.0-0.0","40567544","wem/bandit_party_1","A16OH8XXYY0AAS","either","7","275","","","","","","","1","0","0","0.2504344391","","0.8","0.2","0.4","0.6","","","","","0.2504344391","0.2118700154","0.09566861","0.3163763193","","","","","","","","","","72","H","0","img/none_selected.jpg","","146","main_expt",""
"","bandit","227","542437","0.0-188.0-0.0","40567544","wem/bandit_party_1","A16OH8XXYY0AAS","either","7","372","","","","","","","0","0","1","0.2437718569","","0.8","0.2","0.4","0.6","","","","","0.2437718569","0.210437557","0.08578591382","0.3198025905","","","","","","","","","","72","H","0","img/none_selected.jpg","","147","main_expt",""
"","bandit","228","544237","0.0-189.0-0.0","40567544","wem/bandit_party_1","A16OH8XXYY0AAS","either","7","291","","","","","","","0","0","1","","0.2446677265","0.8","0.2","0.4","0.6","0.2446677265","0.2370661354","0.1147887709","0.2588245921","","","","","","","","","","","","","","72","H","0","img/none_selected.jpg","","148","main_expt",""
"","bandit","229","545918","0.0-190.0-0.0","40567544","wem/bandit_party_1","A16OH8XXYY0AAS","either","7","173","","","","","","","0","0","1","","0.2430363771","0.8","0.2","0.4","0.6","0.2911002833","0.2430363771","0.1378203382","0.248712437","","","","","","","","","","","","","","74","J","1","","","149","main_expt",""
"","bandit","230","547588","0.0-191.0-0.0","40567544","wem/bandit_party_1","A16OH8XXYY0AAS","either","7","161","","","","","","","0","0","1","0.3529655025","","0.8","0.2","0.4","0.6","","","","","0.3529655025","0.2242182381","0.1414499273","0.179144869","","","","","","","","","","72","H","0","img/none_selected.jpg","","150","main_expt",""
"","bandit","231","549172","0.0-192.0-0.0","40567544","wem/bandit_party_1","A16OH8XXYY0AAS","either","7","77","","","","","","","0","0","1","0.07852348772","","0.8","0.2","0.4","0.6","","","","","0.3885741111","0.1997145133","0.07852348772","0.1545669956","","","","","","","","","","75","K","2","","","151","main_expt",""
"","bandit","232","550941","0.0-193.0-0.0","40567544","wem/bandit_party_1","A16OH8XXYY0AAS","either","7","259","","","","","","","0","0","1","0.1651714415","","0.8","0.2","0.4","0.6","","","","","0.3690499696","0.2195927633","0.08485793113","0.1651714415","","","","","","","","","","76","L","3","","","152","main_expt",""
"","bandit","233","552916","0.0-194.0-0.0","40567544","wem/bandit_party_1","A16OH8XXYY0AAS","either","7","468","","","","","","","0","0","1","","0.2121816628","0.8","0.2","0.4","0.6","0.3710492515","0.2121816628","0.1083789561","0.2396245514","","","","","","","","","","","","","","74","J","1","","","153","main_expt",""
"","bandit","234","554591","0.0-195.0-0.0","40567544","wem/bandit_party_1","A16OH8XXYY0AAS","either","7","163","","","","","","","0","0","1","0.109098481","","0.8","0.2","0.4","0.6","","","","","0.3483335413","0.1830588608","0.109098481","0.2085838567","","","","","","","","","","75","K","2","","","154","main_expt",""
"","bandit","235","556385","0.0-196.0-0.0","40567544","wem/bandit_party_1","A16OH8XXYY0AAS","either","7","286","","","","","","","1","0","0","0.3343760247","","0.8","0.2","0.4","0.6","","","","","0.3343760247","0.2031423662","0.1758262092","0.1864274254","","","","","","","","","","72","H","0","img/none_selected.jpg","","155","main_expt",""
"","bandit","236","558470","0.0-197.0-0.0","40567544","wem/bandit_party_1","A16OH8XXYY0AAS","either","7","574","","","","","","","0","0","1","0.3742013553","","0.8","0.2","0.4","0.6","","","","","0.3742013553","0.2022731065","0.2046597001","0.1750870897","","","","","","","","","","72","H","0","img/none_selected.jpg","","156","main_expt",""
"","bandit","237","560324","0.0-198.0-0.0","40567544","wem/bandit_party_1","A16OH8XXYY0AAS","either","7","347","","","","","","","0","0","1","","0.1826661219","0.8","0.2","0.4","0.6","0.3620366094","0.1826661219","0.1774751899","0.1321985386","","","","","","","","","","","","","","74","J","1","","","157","main_expt",""
"","bandit","238","562547","0.0-199.0-0.0","40567544","wem/bandit_party_1","A16OH8XXYY0AAS","either","7","716","","","","","","","0","0","1","0.1341899746","","0.8","0.2","0.4","0.6","","","","","0.3671714071","0.1658993888","0.1612033886","0.1341899746","","","","","","","","","","76","L","3","","","158","main_expt",""
"","bandit","239","564347","0.0-200.0-0.0","40567544","wem/bandit_party_1","A16OH8XXYY0AAS","either","7","292","","","","","","","0","0","1","","0.1586838935","0.8","0.2","0.4","0.6","0.4015988616","0.1620079643","0.1586838935","0.1567784951","","","","","","","","","","","","","","75","K","2","","","159","main_expt",""
"","bandit","240","566012","0.0-201.0-0.0","40567544","wem/bandit_party_1","A16OH8XXYY0AAS","either","7","155","","","","","","","1","0","0","0.4004877553","","0.8","0.2","0.4","0.6","","","","","0.4004877553","0.2453635642","0.2159944071","0.1615549635","","","","","","","","","","72","H","0","img/none_selected.jpg","","160","main_expt",""
"","bandit","241","567924","0.0-202.0-0.0","40567544","wem/bandit_party_1","A16OH8XXYY0AAS","either","7","404","","","","","","","1","0","0","0.4095849454","","0.8","0.2","0.4","0.6","","","","","0.4095849454","0.2456373749","0.2105769377","0.1854631015","","","","","","","","","","72","H","0","img/none_selected.jpg","","161","main_expt",""
"","bandit","242","569675","0.0-203.0-0.0","40567544","wem/bandit_party_1","A16OH8XXYY0AAS","either","7","242","","","","","","","0","1","0","","0.3978002783","0.8","0.2","0.4","0.6","0.3978002783","0.2460125232","0.2006925765","0.21229469","","","","","","","","","","","","","","72","H","0","img/none_selected.jpg","","162","main_expt",""
"","bandit","243","571452","0.0-204.0-0.0","40567544","wem/bandit_party_1","A16OH8XXYY0AAS","either","7","267","","","","","","","0","0","1","0.4180552148","","0.8","0.2","0.4","0.6","","","","","0.4180552148","0.2013568893","0.2365124807","0.162194177","","","","","","","","","","72","H","0","img/none_selected.jpg","","163","main_expt",""
"","bandit","244","573341","0.0-205.0-0.0","40567544","wem/bandit_party_1","A16OH8XXYY0AAS","either","7","380","","","","","","","0","0","1","0.4407560021","","0.8","0.2","0.4","0.6","","","","","0.4407560021","0.1933595846","0.2157370886","0.1535707797","","","","","","","","","","72","H","0","img/none_selected.jpg","","164","main_expt",""
"","bandit","245","575107","0.0-206.0-0.0","40567544","wem/bandit_party_1","A16OH8XXYY0AAS","either","7","258","","","","","","","0","0","1","","0.2166787898","0.8","0.2","0.4","0.6","0.4582960521","0.167552211","0.2166787898","0.2315934193","","","","","","","","","","","","","","75","K","2","","","165","main_expt",""
"","bandit","246","577085","0.0-207.0-0.0","40567544","wem/bandit_party_1","A16OH8XXYY0AAS","either","7","468","","","","","","","0","0","1","","0.1311237951","0.8","0.2","0.4","0.6","0.4337500892","0.1311237951","0.1846262972","0.2579087381","","","","","","","","","","","","","","74","J","1","","","166","main_expt",""
"","bandit","247","579234","0.0-208.0-0.0","40567544","wem/bandit_party_1","A16OH8XXYY0AAS","either","7","637","","","","","","","0","0","1","","0.2496457694","0.8","0.2","0.4","0.6","0.4537582576","0.1714029316","0.1888750078","0.2496457694","","","","","","","","","","","","","","76","L","3","","","167","main_expt",""
"","bandit","248","581051","0.0-209.0-0.0","40567544","wem/bandit_party_1","A16OH8XXYY0AAS","either","7","309","","","","","","","0","0","1","","0.4473485534","0.8","0.2","0.4","0.6","0.4473485534","0.1494402723","0.2315683769","0.234558796","","","","","","","","","","","","","","72","H","0","img/none_selected.jpg","","168","main_expt",""
"","bandit","249","582875","0.0-210.0-0.0","40567544","wem/bandit_party_1","A16OH8XXYY0AAS","either","7","317","","","","","","","0","1","0","","0.4471591033","0.8","0.2","0.4","0.6","0.4471591033","0.1819888556","0.2018123945","0.2458600006","","","","","","","","","","","","","","72","H","0","img/none_selected.jpg","","169","main_expt",""
"","bandit","250","584995","0.0-211.0-0.0","40567544","wem/bandit_party_1","A16OH8XXYY0AAS","either","7","612","","","","","","","1","0","0","0.4581839475","","0.8","0.2","0.4","0.6","","","","","0.4581839475","0.2329206984","0.139238222","0.2214583157","","","","","","","","","","72","H","0","img/none_selected.jpg","","170","main_expt",""
"","bandit","251","587104","0.0-212.0-0.0","40567544","wem/bandit_party_1","A16OH8XXYY0AAS","either","7","596","","","","","","","0","1","0","","0.4674995421","0.8","0.2","0.4","0.6","0.4674995421","0.2000607923","0.1466511374","0.296208115","","","","","","","","","","","","","","72","H","0","img/none_selected.jpg","","171","main_expt",""
"","bandit","252","589100","0.0-213.0-0.0","40567544","wem/bandit_party_1","A16OH8XXYY0AAS","either","7","485","","","","","","","0","0","1","0.4455620345","","0.8","0.2","0.4","0.6","","","","","0.4455620345","0.2342957318","0.1348290388","0.3062379281","","","","","","","","","","72","H","0","img/none_selected.jpg","","172","main_expt",""
"","bandit","253","591063","0.0-214.0-0.0","40567544","wem/bandit_party_1","A16OH8XXYY0AAS","either","7","449","","","","","","","0","0","1","0.4471610379","","0.8","0.2","0.4","0.6","","","","","0.4471610379","0.2189308077","0.1521691919","0.2498067723","","","","","","","","","","72","H","0","img/none_selected.jpg","","173","main_expt",""
"","bandit","254","592893","0.0-215.0-0.0","40567544","wem/bandit_party_1","A16OH8XXYY0AAS","either","7","320","","","","","","","0","0","1","0.4496576915","","0.8","0.2","0.4","0.6","","","","","0.4496576915","0.2373932689","0.2191935525","0.1803522277","","","","","","","","","","72","H","0","img/none_selected.jpg","","174","main_expt",""
"","bandit","255","594517","0.0-216.0-0.0","40567544","wem/bandit_party_1","A16OH8XXYY0AAS","either","7","116","","","","","","","0","0","1","0.4715297358","","0.8","0.2","0.4","0.6","","","","","0.4715297358","0.2160264752","0.219961305","0.2014319342","","","","","","","","","","72","H","0","img/none_selected.jpg","","175","main_expt",""
"","bandit","256","596203","0.0-217.0-0.0","40567544","wem/bandit_party_1","A16OH8XXYY0AAS","either","7","178","","","","","","","0","0","1","","0.2122003168","0.8","0.2","0.4","0.6","0.477956151","0.1990604306","0.1882485239","0.2122003168","","","","","","","","","","","","","","76","L","3","","","176","main_expt",""
"","bandit","257","597883","0.0-218.0-0.0","40567544","wem/bandit_party_1","A16OH8XXYY0AAS","either","7","171","","","","","","","0","1","0","","0.4563721206","0.8","0.2","0.4","0.6","0.4563721206","0.1729978196","0.1644902553","0.2629069455","","","","","","","","","","","","","","72","H","0","img/none_selected.jpg","","177","main_expt",""
"","bandit","258","599683","0.0-219.0-0.0","40567544","wem/bandit_party_1","A16OH8XXYY0AAS","either","7","291","","","","","","","0","0","1","0.4409869931","","0.8","0.2","0.4","0.6","","","","","0.4409869931","0.1633080779","0.1713669852","0.2336104206","","","","","","","","","","72","H","0","img/none_selected.jpg","","178","main_expt",""
"","bandit","259","601534","0.0-220.0-0.0","40567544","wem/bandit_party_1","A16OH8XXYY0AAS","either","7","339","","","","","","","0","1","0","","0.4243126063","0.8","0.2","0.4","0.6","0.4243126063","0.1243251356","0.2263400462","0.1887504226","","","","","","","","","","","","","","72","H","0","img/none_selected.jpg","","179","main_expt",""
"","bandit","260","603571","0.0-221.0-0.0","40567544","wem/bandit_party_1","A16OH8XXYY0AAS","either","7","528","","","","","","","1","0","0","0.4312830743","","0.8","0.2","0.4","0.6","","","","","0.4312830743","0.1150149055","0.2036870175","0.138376641","","","","","","","","","","72","H","0","img/none_selected.jpg","","180","main_expt",""
"","bandit","261","605395","0.0-222.0-0.0","40567544","wem/bandit_party_1","A16OH8XXYY0AAS","either","7","315","","","","","","","1","0","0","0.4433127893","","0.8","0.2","0.4","0.6","","","","","0.4433127893","0.1407924877","0.1934599198","0.1883992559","","","","","","","","","","72","H","0","img/none_selected.jpg","","181","main_expt",""
"","bandit","262","607147","0.0-223.0-0.0","40567544","wem/bandit_party_1","A16OH8XXYY0AAS","either","7","244","","","","","","","0","0","1","0.440136403","","0.8","0.2","0.4","0.6","","","","","0.440136403","0.09672650852","0.2424515525","0.128889003","","","","","","","","","","72","H","0","img/none_selected.jpg","","182","main_expt",""
"","bandit","263","608987","0.0-224.0-0.0","40567544","wem/bandit_party_1","A16OH8XXYY0AAS","either","7","332","","","","","","","1","0","0","0.4347693449","","0.8","0.2","0.4","0.6","","","","","0.4347693449","0.09888002855","0.1961777535","0.1748769843","","","","","","","","","","72","H","0","img/none_selected.jpg","","183","main_expt",""
"","bandit","264","610715","0.0-225.0-0.0","40567544","wem/bandit_party_1","A16OH8XXYY0AAS","either","7","220","","","","","","","1","0","0","0.4277130926","","0.8","0.2","0.4","0.6","","","","","0.4277130926","0.07200145298","0.1489283113","0.1945994373","","","","","","","","","","72","H","0","img/none_selected.jpg","","184","main_expt",""
"","bandit","265","612372","0.0-226.0-0.0","40567544","wem/bandit_party_1","A16OH8XXYY0AAS","either","7","148","","","","","","","0","1","0","","0.3956248437","0.8","0.2","0.4","0.6","0.3956248437","0.09476413333","0.1499965078","0.1644748654","","","","","","","","","","","","","","72","H","0","img/none_selected.jpg","","185","main_expt",""
"","bandit","266","614107","0.0-227.0-0.0","40567544","wem/bandit_party_1","A16OH8XXYY0AAS","either","7","227","","","","","","","0","0","1","0.3748928266","","0.8","0.2","0.4","0.6","","","","","0.3748928266","0.06556422103","0.2169832988","0.1504635592","","","","","","","","","","72","H","0","img/none_selected.jpg","","186","main_expt",""
"","bandit","267","615876","0.0-228.0-0.0","40567544","wem/bandit_party_1","A16OH8XXYY0AAS","either","7","259","","","","","","","0","1","0","","0.3848139325","0.8","0.2","0.4","0.6","0.3848139325","0.08901149072","0.2655186329","0.1760039214","","","","","","","","","","","","","","72","H","0","img/none_selected.jpg","","187","main_expt",""
"","bandit","268","617692","0.0-229.0-0.0","40567544","wem/bandit_party_1","A16OH8XXYY0AAS","either","7","304","","","","","","","1","0","0","0.3990176401","","0.8","0.2","0.4","0.6","","","","","0.3990176401","0.09471428588","0.2738785118","0.1203267588","","","","","","","","","","72","H","0","img/none_selected.jpg","","188","main_expt",""
"","bandit","269","619533","0.0-230.0-0.0","40567544","wem/bandit_party_1","A16OH8XXYY0AAS","either","7","331","","","","","","","1","0","0","0.3581396838","","0.8","0.2","0.4","0.6","","","","","0.3581396838","0.05118235823","0.3041874674","0.1171540391","","","","","","","","","","72","H","0","img/none_selected.jpg","","189","main_expt",""
"","bandit","270","621644","0.0-231.0-0.0","40567544","wem/bandit_party_1","A16OH8XXYY0AAS","either","7","603","","","","","","","0","0","1","0.2882972244","","0.8","0.2","0.4","0.6","","","","","0.2882972244","0.05788318751","0.3229453735","0.1535230761","","","","","","","","","","72","H","0","img/none_selected.jpg","","190","main_expt",""
"","bandit","271","623662","0.0-232.0-0.0","40567544","wem/bandit_party_1","A16OH8XXYY0AAS","either","7","509","","","","","","","1","0","0","0.3145326233","","0.8","0.2","0.4","0.6","","","","","0.3145326233","0.08736915481","0.3818249757","0.1372750947","","","","","","","","","","72","H","0","img/none_selected.jpg","","191","main_expt",""
"","bandit","272","625572","0.0-233.0-0.0","40567544","wem/bandit_party_1","A16OH8XXYY0AAS","either","7","402","","","","","","","0","0","1","0.3270603702","","0.8","0.2","0.4","0.6","","","","","0.3270603702","0.08251019118","0.4157726243","0.1047771501","","","","","","","","","","72","H","0","img/none_selected.jpg","","192","main_expt",""
"","bandit","273","627500","0.0-234.0-0.0","40567544","wem/bandit_party_1","A16OH8XXYY0AAS","either","7","411","","","","","","","1","0","0","0.3604030797","","0.8","0.2","0.4","0.6","","","","","0.3604030797","0.06897628064","0.4611608212","0.1100845432","","","","","","","","","","72","H","0","img/none_selected.jpg","","193","main_expt",""
"","bandit","274","629308","0.0-235.0-0.0","40567544","wem/bandit_party_1","A16OH8XXYY0AAS","either","7","297","","","","","","","0","0","1","0.357423186","","0.8","0.2","0.4","0.6","","","","","0.357423186","0.06801266305","0.4508818777","0.1468163818","","","","","","","","","","72","H","0","img/none_selected.jpg","","194","main_expt",""
"","bandit","275","631229","0.0-236.0-0.0","40567544","wem/bandit_party_1","A16OH8XXYY0AAS","either","7","410","","","","","","","0","0","1","0.3697779856","","0.8","0.2","0.4","0.6","","","","","0.3697779856","0.09923709358","0.4278921451","0.1495594621","","","","","","","","","","72","H","0","img/none_selected.jpg","","195","main_expt",""
"","bandit","276","633116","0.0-237.0-0.0","40567544","wem/bandit_party_1","A16OH8XXYY0AAS","either","7","377","","","","","","","0","0","1","0.1103063831","","0.8","0.2","0.4","0.6","","","","","0.3617177512","0.1103063831","0.4256293003","0.2263220537","","","","","","","","","","74","J","1","","","196","main_expt",""
"","bandit","277","634677","0.0-238.0-0.0","40567544","wem/bandit_party_1","A16OH8XXYY0AAS","either","7","51","","","","","","","0","1","0","","0.4476975038","0.8","0.2","0.4","0.6","0.3775990084","0.07377144043","0.4476975038","0.2204718804","","","","","","","","","","","","","","75","K","2","","","197","main_expt",""
"","bandit","278","636492","0.0-239.0-0.0","40567544","wem/bandit_party_1","A16OH8XXYY0AAS","either","7","305","","","","","","","0","1","0","","0.4434357272","0.8","0.2","0.4","0.6","0.4144042571","0.08863448313","0.4434357272","0.2401118457","","","","","","","","","","","","","","75","K","2","","","198","main_expt",""
"","bandit","279","638381","0.0-240.0-0.0","40567544","wem/bandit_party_1","A16OH8XXYY0AAS","either","7","379","","","","","","","0","0","1","0.4245114622","","0.8","0.2","0.4","0.6","","","","","0.4081775392","0.1082179128","0.4245114622","0.2673724497","","","","","","","","","","75","K","2","","","199","main_expt",""
"","bandit","280","640035","0.0-241.0-0.0","40567544","wem/bandit_party_1","A16OH8XXYY0AAS","either","7","146","","","","","","","0","0","1","","0.4087100315","0.8","0.2","0.4","0.6","0.4166156547","0.09350688576","0.4087100315","0.3125307902","","","","","","","","","","","","","","75","K","2","","","200","main_expt",""
"","bandit","281","641740","0.0-242.0-0.0","40567544","wem/bandit_party_1","A16OH8XXYY0AAS","either","7","195","","","","","","","0","1","0","","0.4361521275","0.8","0.2","0.4","0.6","0.4306537176","0.1036625099","0.4361521275","0.2914574258","","","","","","","","","","","","","","75","K","2","","","201","main_expt",""
"","bandit","282","643524","0.0-243.0-0.0","40567544","wem/bandit_party_1","A16OH8XXYY0AAS","either","7","274","","","","","","","0","0","1","0.3332596158","","0.8","0.2","0.4","0.6","","","","","0.449382563","0.1216733889","0.3332596158","0.2550600684","","","","","","","","","","75","K","2","","","202","main_expt",""
"","bandit","283","645157","0.0-244.0-0.0","40567544","wem/bandit_party_1","A16OH8XXYY0AAS","either","7","123","","","","","","","0","0","1","","0.3581848779","0.8","0.2","0.4","0.6","0.4506576586","0.120655788","0.3581848779","0.2769745997","","","","","","","","","","","","","","75","K","2","","","203","main_expt",""
"","bandit","284","646893","0.0-245.0-0.0","40567544","wem/bandit_party_1","A16OH8XXYY0AAS","either","7","225","","","","","","","1","0","0","0.3597133043","","0.8","0.2","0.4","0.6","","","","","0.454839243","0.1082970726","0.3597133043","0.2752990059","","","","","","","","","","75","K","2","","","204","main_expt",""
"","bandit","285","648644","0.0-246.0-0.0","40567544","wem/bandit_party_1","A16OH8XXYY0AAS","either","7","242","","","","","","","0","0","1","","0.3630183988","0.8","0.2","0.4","0.6","0.4512889682","0.09143681274","0.3630183988","0.2901512169","","","","","","","","","","","","","","75","K","2","","","205","main_expt",""
"","bandit","286","650500","0.0-247.0-0.0","40567544","wem/bandit_party_1","A16OH8XXYY0AAS","either","7","346","","","","","","","0","0","1","0.3737494834","","0.8","0.2","0.4","0.6","","","","","0.4591490044","0.08377413986","0.3737494834","0.2823763913","","","","","","","","","","75","K","2","","","206","main_expt",""
"","bandit","287","652307","0.0-248.0-0.0","40567544","wem/bandit_party_1","A16OH8XXYY0AAS","either","7","298","","","","","","","0","1","0","","0.3668784438","0.8","0.2","0.4","0.6","0.4650593633","0.1585073664","0.3668784438","0.2708062506","","","","","","","","","","","","","","75","K","2","","","207","main_expt",""
"","bandit","288","654286","0.0-249.0-0.0","40567544","wem/bandit_party_1","A16OH8XXYY0AAS","either","7","467","","","","","","","0","0","1","","0.4045351895","0.8","0.2","0.4","0.6","0.4641513068","0.162299901","0.4045351895","0.2641553663","","","","","","","","","","","","","","75","K","2","","","208","main_expt",""
"","bandit","289","656212","0.0-250.0-0.0","40567544","wem/bandit_party_1","A16OH8XXYY0AAS","either","7","418","","","","","","","1","0","0","0.2704675845","","0.8","0.2","0.4","0.6","","","","","0.4567807332","0.1542266077","0.4402386934","0.2704675845","","","","","","","","","","76","L","3","","","209","main_expt",""
"","bandit","290","657998","0.0-251.0-0.0","40567544","wem/bandit_party_1","A16OH8XXYY0AAS","either","7","276","","","","","","","0","0","1","0.3420868926","","0.8","0.2","0.4","0.6","","","","","0.428253188","0.1890415559","0.4483623408","0.3420868926","","","","","","","","","","76","L","3","","","210","main_expt",""
"","bandit","291","659692","0.0-252.0-0.0","40567544","wem/bandit_party_1","A16OH8XXYY0AAS","either","7","184","","","","","","","0","0","1","","0.4471415093","0.8","0.2","0.4","0.6","0.410271385","0.1818133019","0.4471415093","0.3069688952","","","","","","","","","","","","","","75","K","2","","","211","main_expt",""
"","bandit","292","661244","0.0-253.0-0.0","40567544","wem/bandit_party_1","A16OH8XXYY0AAS","either","7","42","","","","","","","0","1","0","","0.4374655127","0.8","0.2","0.4","0.6","0.4065587724","0.1782747956","0.4374655127","0.3005379093","","","","","","","","","","","","","","75","K","2","","","212","main_expt",""
"","bandit","293","662884","0.0-254.0-0.0","40567544","wem/bandit_party_1","A16OH8XXYY0AAS","either","7","130","","","","","","","0","0","1","0.213882915","","0.8","0.2","0.4","0.6","","","","","0.4007116542","0.1935195711","0.4381457257","0.213882915","","","","","","","","","","76","L","3","","","213","main_expt",""
"","bandit","294","664781","0.0-255.0-0.0","40567544","wem/bandit_party_1","A16OH8XXYY0AAS","either","7","386","","","","","","","0","0","1","0.2138557204","","0.8","0.2","0.4","0.6","","","","","0.4246209323","0.2421176173","0.4643769008","0.2138557204","","","","","","","","","","76","L","3","","","214","main_expt",""
"","bandit","295","666956","0.0-256.0-0.0","40567544","wem/bandit_party_1","A16OH8XXYY0AAS","either","7","667","","","","","","","0","0","1","0.3993057066","","0.8","0.2","0.4","0.6","","","","","0.3993057066","0.2629876012","0.4328812357","0.2142566612","","","","","","","","","","72","H","0","img/none_selected.jpg","","215","main_expt",""
"","bandit","296","668895","0.0-257.0-0.0","40567544","wem/bandit_party_1","A16OH8XXYY0AAS","either","7","426","","","","","","","0","0","1","0.2977714141","","0.8","0.2","0.4","0.6","","","","","0.3987772474","0.2977714141","0.4064507999","0.1900351118","","","","","","","","","","74","J","1","","","216","main_expt",""
"","bandit","297","670667","0.0-258.0-0.0","40567544","wem/bandit_party_1","A16OH8XXYY0AAS","either","7","264","","","","","","","0","1","0","","0.4197961641","0.8","0.2","0.4","0.6","0.4101433534","0.3017601552","0.4197961641","0.2185169477","","","","","","","","","","","","","","75","K","2","","","217","main_expt",""
"","bandit","298","672619","0.0-259.0-0.0","40567544","wem/bandit_party_1","A16OH8XXYY0AAS","either","7","443","","","","","","","0","1","0","","0.4167397569","0.8","0.2","0.4","0.6","0.4448029092","0.2888566207","0.4167397569","0.2240895604","","","","","","","","","","","","","","75","K","2","","","218","main_expt",""
"","bandit","299","674611","0.0-260.0-0.0","40567544","wem/bandit_party_1","A16OH8XXYY0AAS","either","7","483","","","","","","","0","0","1","","0.4250944588","0.8","0.2","0.4","0.6","0.4454766299","0.2844008008","0.4250944588","0.1990808675","","","","","","","","","","","","","","75","K","2","","","219","main_expt",""
"","bandit","300","676172","0.0-261.0-0.0","40567544","wem/bandit_party_1","A16OH8XXYY0AAS","either","7","50","","","","","","","1","0","0","0.266602996","","0.8","0.2","0.4","0.6","","","","","0.4610997771","0.2225062479","0.4173336587","0.266602996","","","","","","","","","","76","L","3","","","220","main_expt",""
"","bandit","301","677899","0.0-262.0-0.0","40567544","wem/bandit_party_1","A16OH8XXYY0AAS","either","7","219","","","","","","","0","0","1","0.3944711005","","0.8","0.2","0.4","0.6","","","","","0.4642289789","0.2409900116","0.3944711005","0.2443661227","","","","","","","","","","75","K","2","","","221","main_expt",""
"","bandit","302","679563","0.0-263.0-0.0","40567544","wem/bandit_party_1","A16OH8XXYY0AAS","either","7","154","","","","","","","0","0","1","0.2205922116","","0.8","0.2","0.4","0.6","","","","","0.4641270597","0.1989678636","0.3619306912","0.2205922116","","","","","","","","","","76","L","3","","","222","main_expt",""
"","bandit","303","681236","0.0-264.0-0.0","40567544","wem/bandit_party_1","A16OH8XXYY0AAS","either","7","162","","","","","","","0","1","0","","0.1861223506","0.8","0.2","0.4","0.6","0.4697433819","0.1902867071","0.4117842179","0.1861223506","","","","","","","","","","","","","","76","L","3","","","223","main_expt",""
"","bandit","304","683234","0.0-265.0-0.0","40567544","wem/bandit_party_1","A16OH8XXYY0AAS","either","7","490","","","","","","","0","0","1","","0.1668884863","0.8","0.2","0.4","0.6","0.460898083","0.2076415522","0.3965092367","0.1668884863","","","","","","","","","","","","","","76","L","3","","","224","main_expt",""
"","bandit","305","684866","0.0-266.0-0.0","40567544","wem/bandit_party_1","A16OH8XXYY0AAS","either","7","123","","","","","","","0","0","1","0.1481472712","","0.8","0.2","0.4","0.6","","","","","0.4394890665","0.2393469174","0.4084477862","0.1481472712","","","","","","","","","","76","L","3","","","225","main_expt",""
"","bandit","306","686586","0.0-267.0-0.0","40567544","wem/bandit_party_1","A16OH8XXYY0AAS","either","7","211","","","","","","","0","1","0","","0.4104601526","0.8","0.2","0.4","0.6","0.4520955237","0.2425440376","0.4104601526","0.1140846591","","","","","","","","","","","","","","75","K","2","","","226","main_expt",""
"","bandit","307","688251","0.0-268.0-0.0","40567544","wem/bandit_party_1","A16OH8XXYY0AAS","either","7","156","","","","","","","0","0","1","","0.3899733519","0.8","0.2","0.4","0.6","0.4324220164","0.2365603363","0.3899733519","0.1074218354","","","","","","","","","","","","","","75","K","2","","","227","main_expt",""
"","bandit","308","689930","0.0-269.0-0.0","40567544","wem/bandit_party_1","A16OH8XXYY0AAS","either","7","170","","","","","","","0","0","1","0.08065165665","","0.8","0.2","0.4","0.6","","","","","0.4220482421","0.2127958296","0.3796730737","0.08065165665","","","","","","","","","","76","L","3","","","228","main_expt",""
"","bandit","309","691668","0.0-270.0-0.0","40567544","wem/bandit_party_1","A16OH8XXYY0AAS","either","7","227","","","","","","","0","1","0","","0.4046866514","0.8","0.2","0.4","0.6","0.3885749154","0.2207861463","0.4046866514","0.07774059362","","","","","","","","","","","","","","75","K","2","","","229","main_expt",""
"","bandit","310","694875","0.0-271.0-0.0","40567544","wem/bandit_party_1","A16OH8XXYY0AAS","either","7","1696","","","","","","","0","0","1","","0.3988793555","0.8","0.2","0.4","0.6","0.4023755806","0.2589226453","0.3988793555","0.1109483114","","","","","","","","","","","","","","75","K","2","","","230","main_expt",""
"","bandit","311","696459","0.0-272.0-0.0","40567544","wem/bandit_party_1","A16OH8XXYY0AAS","either","7","74","","","","","","","1","0","0","0.3768725222","","0.8","0.2","0.4","0.6","","","","","0.3768725222","0.2956158432","0.3981898202","0.05902300203","","","","","","","","","","72","H","0","img/none_selected.jpg","","231","main_expt",""
"","bandit","312","698324","0.0-273.0-0.0","40567544","wem/bandit_party_1","A16OH8XXYY0AAS","either","7","354","","","","","","","0","0","1","0.3619917427","","0.8","0.2","0.4","0.6","","","","","0.3619917427","0.3202484073","0.4411941832","0.06675855664","","","","","","","","","","72","H","0","img/none_selected.jpg","","232","main_expt",""
"","bandit","313","700146","0.0-274.0-0.0","40567544","wem/bandit_party_1","A16OH8XXYY0AAS","either","7","314","","","","","","","0","0","1","0.3833578816","","0.8","0.2","0.4","0.6","","","","","0.3833578816","0.2933644042","0.42967461","0.06703699679","","","","","","","","","","72","H","0","img/none_selected.jpg","","233","main_expt",""
"","bandit","314","701810","0.0-275.0-0.0","40567544","wem/bandit_party_1","A16OH8XXYY0AAS","either","7","155","","","","","","","1","0","0","0.3552131768","","0.8","0.2","0.4","0.6","","","","","0.3552131768","0.3106154811","0.4242798354","0.05331023031","","","","","","","","","","72","H","0","img/none_selected.jpg","","234","main_expt",""
"","bandit","315","703626","0.0-276.0-0.0","40567544","wem/bandit_party_1","A16OH8XXYY0AAS","either","7","307","","","","","","","1","0","0","0.3135084543","","0.8","0.2","0.4","0.6","","","","","0.3135084543","0.3158990995","0.4617388459","0.05187545802","","","","","","","","","","72","H","0","img/none_selected.jpg","","235","main_expt",""
