"consent","trial_type","trial_index","time_elapsed","internal_node_id","subjID","study","MID","cond","drift","rt","responses","button_pressed","key_press","like","value","connected","gems","bombs","no_reward","GemPrChosen","BombPrChosen","GainOverPainPr_0","GainOverPainPr_1","GainOverPainPr_2","GainOverPainPr_3","LosePr_0","LosePr_1","LosePr_2","LosePr_3","WinPr_0","WinPr_1","WinPr_2","WinPr_3","Q0","Q1","Q2","gender","age","ethnicity","label","expt_phase","target","respCharCode","respKey","respChoiceNum","respChoice","practice","trial_counter","trial_label","Q0_index"
"GDM/GDM_behavioral_consent_30min_online.html","consent","0","8625","0.0-0.0","40866623","wem/bandit_party_1","A271BMHV42XZPU","either","7","","","","","","","","","","","","","","","","","","","","","","","","","","","","","","","","","","","","","","","","",""
"","survey-text","1","18194","0.0-1.0","40866623","wem/bandit_party_1","A271BMHV42XZPU","either","7","8551","{""Q0"":""A271BMHV42XZPU""}","","","","","","","","","","","","","","","","","","","","","","","","","","","","","","","","","","","","","","",""
"","button-response","2","21141","0.0-2.0","40866623","wem/bandit_party_1","A271BMHV42XZPU","either","7","1938","","1","","","","","","","","","","","","","","","","","","","","","","","","","","","","","","","","","","","","","",""
"","text-replacement","3","28983","0.0-3.0","40866623","wem/bandit_party_1","A271BMHV42XZPU","either","7","6837","","","32","","","","","","","","","","","","","","","","","","","","","","","","","","","","","","","","","","","","",""
"","text-replacement","4","38070","0.0-4.0","40866623","wem/bandit_party_1","A271BMHV42XZPU","either","7","9083","","","32","","","","","","","","","","","","","","","","","","","","","","","","","","","","","","","","","","","","",""
"","identification","5","49807","0.0-6.0-0.0","40866623","wem/bandit_party_1","A271BMHV42XZPU","either","7","11708","","","","2","3","2","","","","","","","","","","","","","","","","","","","","","","","","pre","identification_pre","the Republican party","","","","","","","",""
"","identification","6","56046","0.0-6.0-1.0","40866623","wem/bandit_party_1","A271BMHV42XZPU","either","7","5211","","","","4","4","4","","","","","","","","","","","","","","","","","","","","","","","","pre","identification_pre","the Democratic Party","","","","","","","",""
"","text-replacement","7","62143","0.0-7.0","40866623","wem/bandit_party_1","A271BMHV42XZPU","either","7","5092","","","32","","","","","","","","","","","","","","","","","","","","","","","","","","","","","","","","","","","","",""
"","text-replacement","8","70693","0.0-8.0","40866623","wem/bandit_party_1","A271BMHV42XZPU","either","7","8546","","","32","","","","","","","","","","","","","","","","","","","","","","","","","","","","","","","","","","","","",""
"","text-replacement","9","85607","0.0-9.0","40866623","wem/bandit_party_1","A271BMHV42XZPU","either","7","14910","","","32","","","","","","","","","","","","","","","","","","","","","","","","","","","","","","","","","","","","",""
"","text-replacement","10","90216","0.0-10.0","40866623","wem/bandit_party_1","A271BMHV42XZPU","either","7","4606","","","32","","","","","","","","","","","","","","","","","","","","","","","","","","","","","","","","","","","","",""
"","text-replacement","11","95341","0.0-11.0","40866623","wem/bandit_party_1","A271BMHV42XZPU","either","7","5123","","","32","","","","","","","","","","","","","","","","","","","","","","","","","","","","","","","","","","","","",""
"","bandit","12","101184","0.0-12.0-0.0","40866623","wem/bandit_party_1","A271BMHV42XZPU","either","7","4323","","","","","","","0","0","1","0","0","","","","","0","","","","0","","","","","","","","","","","","","74","J","0","img/none_selected_demo.jpg","true","0","",""
"","bandit","13","105353","0.0-13.0-0.0","40866623","wem/bandit_party_1","A271BMHV42XZPU","either","7","2659","","","","","","","0","0","1","0","0","","","","","0","","","","0","","","","","","","","","","","","","75","K","0","img/none_selected_demo.jpg","true","0","",""
"","text-replacement","14","113013","0.0-14.0","40866623","wem/bandit_party_1","A271BMHV42XZPU","either","7","7657","","","32","","","","","","","","","","","","","","","","","","","","","","","","","","","","","","","","","","","","",""
"","text-replacement","15","117983","0.0-15.0","40866623","wem/bandit_party_1","A271BMHV42XZPU","either","7","4967","","","32","","","","","","","","","","","","","","","","","","","","","","","","","","","","","","","","","","","","",""
"","text-replacement","16","124540","0.0-16.0","40866623","wem/bandit_party_1","A271BMHV42XZPU","either","7","6554","","","32","","","","","","","","","","","","","","","","","","","","","","","","","","","","","","","","","","","","",""
"","text-replacement","17","128042","0.0-17.0","40866623","wem/bandit_party_1","A271BMHV42XZPU","either","7","3499","","","32","","","","","","","","","","","","","","","","","","","","","","","","","","","","","","","","","","","","",""
"","bandit","18","130613","0.0-18.0-0.0","40866623","wem/bandit_party_1","A271BMHV42XZPU","either","7","1061","","","","","","","1","0","0","0.8","","0.5","0.5","","","","","","","0.8","0.2","","","","","","","","","","","","74","J","0","img/none_selected_demo.jpg","true","0","80_20_practice",""
"","bandit","19","133002","0.0-18.0-1.0","40866623","wem/bandit_party_1","A271BMHV42XZPU","either","7","878","","","","","","","0","1","0","","0.8","0.5","0.5","","","0.8","0.2","","","","","","","","","","","","","","","","74","J","0","img/none_selected_demo.jpg","true","0","80_20_practice",""
"","bandit","20","135349","0.0-18.0-2.0","40866623","wem/bandit_party_1","A271BMHV42XZPU","either","7","839","","","","","","","1","0","0","0.8","","0.5","0.5","","","","","","","0.8","0.2","","","","","","","","","","","","74","J","0","img/none_selected_demo.jpg","true","0","80_20_practice",""
"","bandit","21","137554","0.0-18.0-3.0","40866623","wem/bandit_party_1","A271BMHV42XZPU","either","7","697","","","","","","","0","1","0","","0.8","0.5","0.5","","","0.8","0.2","","","","","","","","","","","","","","","","74","J","0","img/none_selected_demo.jpg","true","0","80_20_practice",""
"","bandit","22","139485","0.0-18.0-4.0","40866623","wem/bandit_party_1","A271BMHV42XZPU","either","7","421","","","","","","","0","0","1","","0.2","0.5","0.5","","","0.8","0.2","","","","","","","","","","","","","","","","75","K","1","","true","0","80_20_practice",""
"","bandit","23","141482","0.0-18.0-5.0","40866623","wem/bandit_party_1","A271BMHV42XZPU","either","7","487","","","","","","","0","0","1","0.8","","0.5","0.5","","","","","","","0.8","0.2","","","","","","","","","","","","74","J","0","img/none_selected_demo.jpg","true","0","80_20_practice",""
"","bandit","24","143253","0.0-18.0-6.0","40866623","wem/bandit_party_1","A271BMHV42XZPU","either","7","262","","","","","","","0","0","1","0.8","","0.5","0.5","","","","","","","0.8","0.2","","","","","","","","","","","","74","J","0","img/none_selected_demo.jpg","true","0","80_20_practice",""
"","bandit","25","145087","0.0-18.0-7.0","40866623","wem/bandit_party_1","A271BMHV42XZPU","either","7","324","","","","","","","0","1","0","","0.8","0.5","0.5","","","0.8","0.2","","","","","","","","","","","","","","","","74","J","0","img/none_selected_demo.jpg","true","0","80_20_practice",""
"","bandit","26","146824","0.0-18.0-8.0","40866623","wem/bandit_party_1","A271BMHV42XZPU","either","7","229","","","","","","","0","1","0","","0.8","0.5","0.5","","","0.8","0.2","","","","","","","","","","","","","","","","74","J","0","img/none_selected_demo.jpg","true","0","80_20_practice",""
"","bandit","27","148751","0.0-18.0-9.0","40866623","wem/bandit_party_1","A271BMHV42XZPU","either","7","417","","","","","","","1","0","0","0.8","","0.5","0.5","","","","","","","0.8","0.2","","","","","","","","","","","","74","J","0","img/none_selected_demo.jpg","true","0","80_20_practice",""
"","bandit","28","150612","0.0-18.0-10.0","40866623","wem/bandit_party_1","A271BMHV42XZPU","either","7","353","","","","","","","0","1","0","","0.8","0.5","0.5","","","0.8","0.2","","","","","","","","","","","","","","","","74","J","0","img/none_selected_demo.jpg","true","0","80_20_practice",""
"","bandit","29","152418","0.0-18.0-11.0","40866623","wem/bandit_party_1","A271BMHV42XZPU","either","7","297","","","","","","","0","0","1","","0.8","0.5","0.5","","","0.8","0.2","","","","","","","","","","","","","","","","74","J","0","img/none_selected_demo.jpg","true","0","80_20_practice",""
"","bandit","30","154279","0.0-18.0-12.0","40866623","wem/bandit_party_1","A271BMHV42XZPU","either","7","353","","","","","","","1","0","0","0.8","","0.5","0.5","","","","","","","0.8","0.2","","","","","","","","","","","","74","J","0","img/none_selected_demo.jpg","true","0","80_20_practice",""
"","bandit","31","156093","0.0-18.0-13.0","40866623","wem/bandit_party_1","A271BMHV42XZPU","either","7","303","","","","","","","0","1","0","","0.8","0.5","0.5","","","0.8","0.2","","","","","","","","","","","","","","","","74","J","0","img/none_selected_demo.jpg","true","0","80_20_practice",""
"","bandit","32","157882","0.0-18.0-14.0","40866623","wem/bandit_party_1","A271BMHV42XZPU","either","7","279","","","","","","","0","1","0","","0.8","0.5","0.5","","","0.8","0.2","","","","","","","","","","","","","","","","74","J","0","img/none_selected_demo.jpg","true","0","80_20_practice",""
"","bandit","33","159470","0.0-18.0-15.0","40866623","wem/bandit_party_1","A271BMHV42XZPU","either","7","78","","","","","","","0","1","0","","0.8","0.5","0.5","","","0.8","0.2","","","","","","","","","","","","","","","","74","J","0","img/none_selected_demo.jpg","true","0","80_20_practice",""
"","bandit","34","161267","0.0-18.0-16.0","40866623","wem/bandit_party_1","A271BMHV42XZPU","either","7","286","","","","","","","0","1","0","","0.8","0.5","0.5","","","0.8","0.2","","","","","","","","","","","","","","","","74","J","0","img/none_selected_demo.jpg","true","0","80_20_practice",""
"","bandit","35","163050","0.0-18.0-17.0","40866623","wem/bandit_party_1","A271BMHV42XZPU","either","7","273","","","","","","","0","0","1","","0.8","0.5","0.5","","","0.8","0.2","","","","","","","","","","","","","","","","74","J","0","img/none_selected_demo.jpg","true","0","80_20_practice",""
"","bandit","36","164958","0.0-18.0-18.0","40866623","wem/bandit_party_1","A271BMHV42XZPU","either","7","395","","","","","","","0","0","1","","0.2","0.5","0.5","","","0.8","0.2","","","","","","","","","","","","","","","","75","K","1","","true","0","80_20_practice",""
"","bandit","37","166595","0.0-18.0-19.0","40866623","wem/bandit_party_1","A271BMHV42XZPU","either","7","127","","","","","","","0","0","1","0.2","","0.5","0.5","","","","","","","0.8","0.2","","","","","","","","","","","","75","K","1","","true","0","80_20_practice",""
"","text-replacement","38","170128","0.0-19.0","40866623","wem/bandit_party_1","A271BMHV42XZPU","either","7","3529","","","32","","","","","","","","","","","","","","","","","","","","","","","","","","","","","","","","","","","","",""
"","bandit","39","173275","0.0-20.0-0.0","40866623","wem/bandit_party_1","A271BMHV42XZPU","either","7","1637","","","","","","","1","0","0","1","0","","","","","0","1","","","1","0","","","","","","","","","","","","74","J","0","img/none_selected_demo.jpg","true","0","",""
"","text-replacement","40","177968","0.0-21.0","40866623","wem/bandit_party_1","A271BMHV42XZPU","either","7","4689","","","32","","","","","","","","","","","","","","","","","","","","","","","","","","","","","","","","","","","","",""
"","text-replacement","41","192356","0.0-22.0","40866623","wem/bandit_party_1","A271BMHV42XZPU","either","7","14384","","","32","","","","","","","","","","","","","","","","","","","","","","","","","","","","","","","","","","","","",""
"","text-replacement","42","195069","0.0-23.0","40866623","wem/bandit_party_1","A271BMHV42XZPU","either","7","2706","","","32","","","","","","","","","","","","","","","","","","","","","","","","","","","","","","","","","","","","",""
"","text-replacement","43","198810","0.0-24.0","40866623","wem/bandit_party_1","A271BMHV42XZPU","either","7","3738","","","32","","","","","","","","","","","","","","","","","","","","","","","","","","","","","","","","","","","","",""
"","text-replacement","44","206341","0.0-25.0","40866623","wem/bandit_party_1","A271BMHV42XZPU","either","7","7527","","","32","","","","","","","","","","","","","","","","","","","","","","","","","","","","","","","","","","","","",""
"","text-replacement","45","213592","0.0-26.0","40866623","wem/bandit_party_1","A271BMHV42XZPU","either","7","7247","","","32","","","","","","","","","","","","","","","","","","","","","","","","","","","","","","","","","","","","",""
"","text-replacement","46","216925","0.0-27.0","40866623","wem/bandit_party_1","A271BMHV42XZPU","either","7","3329","","","32","","","","","","","","","","","","","","","","","","","","","","","","","","","","","","","","","","","","",""
"","text-replacement","47","219371","0.0-28.0","40866623","wem/bandit_party_1","A271BMHV42XZPU","either","7","2442","","","32","","","","","","","","","","","","","","","","","","","","","","","","","","","","","","","","","","","","",""
"","text-replacement","48","225104","0.0-29.0","40866623","wem/bandit_party_1","A271BMHV42XZPU","either","7","5729","","","32","","","","","","","","","","","","","","","","","","","","","","","","","","","","","","","","","","","","",""
"","text-replacement","49","226434","0.0-30.0","40866623","wem/bandit_party_1","A271BMHV42XZPU","either","7","1326","","","32","","","","","","","","","","","","","","","","","","","","","","","","","","","","","","","","","","","","",""
"","text-replacement","50","228273","0.0-31.0","40866623","wem/bandit_party_1","A271BMHV42XZPU","either","7","1835","","","32","","","","","","","","","","","","","","","","","","","","","","","","","","","","","","","","","","","","",""
"","bandit","51","231137","0.0-32.0-0.0","40866623","wem/bandit_party_1","A271BMHV42XZPU","either","7","1353","","","","","","","1","0","0","0.8","","0.5","0.5","0.5","0.5","","","","","0.8","0.2","0.6","0.2","","","","","","","","","","72","H","0","img/none_selected.jpg","true","0","full_practice",""
"","bandit","52","232965","0.0-32.0-1.0","40866623","wem/bandit_party_1","A271BMHV42XZPU","either","7","318","","","","","","","1","0","0","0.2","","0.5","0.5","0.5","0.5","","","","","0.8","0.2","0.6","0.2","","","","","","","","","","74","J","1","","true","0","full_practice",""
"","bandit","53","234845","0.0-32.0-2.0","40866623","wem/bandit_party_1","A271BMHV42XZPU","either","7","369","","","","","","","0","0","1","0.2","","0.5","0.5","0.5","0.5","","","","","0.8","0.2","0.6","0.2","","","","","","","","","","74","J","1","","true","0","full_practice",""
"","bandit","54","236653","0.0-32.0-3.0","40866623","wem/bandit_party_1","A271BMHV42XZPU","either","7","296","","","","","","","0","0","1","","0.6","0.5","0.5","0.5","0.5","0.8","0.2","0.6","0.2","","","","","","","","","","","","","","75","K","2","","true","0","full_practice",""
"","bandit","55","238374","0.0-32.0-4.0","40866623","wem/bandit_party_1","A271BMHV42XZPU","either","7","211","","","","","","","1","0","0","0.2","","0.5","0.5","0.5","0.5","","","","","0.8","0.2","0.6","0.2","","","","","","","","","","76","L","3","","true","0","full_practice",""
"","bandit","56","240105","0.0-32.0-5.0","40866623","wem/bandit_party_1","A271BMHV42XZPU","either","7","222","","","","","","","0","0","1","0.2","","0.5","0.5","0.5","0.5","","","","","0.8","0.2","0.6","0.2","","","","","","","","","","76","L","3","","true","0","full_practice",""
"","bandit","57","241864","0.0-32.0-6.0","40866623","wem/bandit_party_1","A271BMHV42XZPU","either","7","248","","","","","","","0","0","1","0.6","","0.5","0.5","0.5","0.5","","","","","0.8","0.2","0.6","0.2","","","","","","","","","","75","K","2","","true","0","full_practice",""
"","bandit","58","243557","0.0-32.0-7.0","40866623","wem/bandit_party_1","A271BMHV42XZPU","either","7","178","","","","","","","0","0","1","0.2","","0.5","0.5","0.5","0.5","","","","","0.8","0.2","0.6","0.2","","","","","","","","","","74","J","1","","true","0","full_practice",""
"","bandit","59","245229","0.0-32.0-8.0","40866623","wem/bandit_party_1","A271BMHV42XZPU","either","7","163","","","","","","","1","0","0","0.8","","0.5","0.5","0.5","0.5","","","","","0.8","0.2","0.6","0.2","","","","","","","","","","72","H","0","img/none_selected.jpg","true","0","full_practice",""
"","bandit","60","246952","0.0-32.0-9.0","40866623","wem/bandit_party_1","A271BMHV42XZPU","either","7","213","","","","","","","0","1","0","","0.8","0.5","0.5","0.5","0.5","0.8","0.2","0.6","0.2","","","","","","","","","","","","","","72","H","0","img/none_selected.jpg","true","0","full_practice",""
"","bandit","61","248691","0.0-32.0-10.0","40866623","wem/bandit_party_1","A271BMHV42XZPU","either","7","227","","","","","","","1","0","0","0.8","","0.5","0.5","0.5","0.5","","","","","0.8","0.2","0.6","0.2","","","","","","","","","","72","H","0","img/none_selected.jpg","true","0","full_practice",""
"","bandit","62","250465","0.0-32.0-11.0","40866623","wem/bandit_party_1","A271BMHV42XZPU","either","7","262","","","","","","","0","1","0","","0.8","0.5","0.5","0.5","0.5","0.8","0.2","0.6","0.2","","","","","","","","","","","","","","72","H","0","img/none_selected.jpg","true","0","full_practice",""
"","bandit","63","252207","0.0-32.0-12.0","40866623","wem/bandit_party_1","A271BMHV42XZPU","either","7","232","","","","","","","1","0","0","0.8","","0.5","0.5","0.5","0.5","","","","","0.8","0.2","0.6","0.2","","","","","","","","","","72","H","0","img/none_selected.jpg","true","0","full_practice",""
"","bandit","64","253844","0.0-32.0-13.0","40866623","wem/bandit_party_1","A271BMHV42XZPU","either","7","125","","","","","","","0","1","0","","0.8","0.5","0.5","0.5","0.5","0.8","0.2","0.6","0.2","","","","","","","","","","","","","","72","H","0","img/none_selected.jpg","true","0","full_practice",""
"","bandit","65","255501","0.0-32.0-14.0","40866623","wem/bandit_party_1","A271BMHV42XZPU","either","7","146","","","","","","","1","0","0","0.8","","0.5","0.5","0.5","0.5","","","","","0.8","0.2","0.6","0.2","","","","","","","","","","72","H","0","img/none_selected.jpg","true","0","full_practice",""
"","bandit","66","257134","0.0-32.0-15.0","40866623","wem/bandit_party_1","A271BMHV42XZPU","either","7","122","","","","","","","0","0","1","","0.8","0.5","0.5","0.5","0.5","0.8","0.2","0.6","0.2","","","","","","","","","","","","","","72","H","0","img/none_selected.jpg","true","0","full_practice",""
"","bandit","67","258745","0.0-32.0-16.0","40866623","wem/bandit_party_1","A271BMHV42XZPU","either","7","100","","","","","","","0","1","0","","0.8","0.5","0.5","0.5","0.5","0.8","0.2","0.6","0.2","","","","","","","","","","","","","","72","H","0","img/none_selected.jpg","true","0","full_practice",""
"","bandit","68","260443","0.0-32.0-17.0","40866623","wem/bandit_party_1","A271BMHV42XZPU","either","7","187","","","","","","","0","0","1","","0.8","0.5","0.5","0.5","0.5","0.8","0.2","0.6","0.2","","","","","","","","","","","","","","72","H","0","img/none_selected.jpg","true","0","full_practice",""
"","bandit","69","262114","0.0-32.0-18.0","40866623","wem/bandit_party_1","A271BMHV42XZPU","either","7","161","","","","","","","0","0","1","","0.2","0.5","0.5","0.5","0.5","0.8","0.2","0.6","0.2","","","","","","","","","","","","","","74","J","1","","true","0","full_practice",""
"","bandit","70","263824","0.0-32.0-19.0","40866623","wem/bandit_party_1","A271BMHV42XZPU","either","7","198","","","","","","","1","0","0","0.2","","0.5","0.5","0.5","0.5","","","","","0.8","0.2","0.6","0.2","","","","","","","","","","74","J","1","","true","0","full_practice",""
"","text","71","267091","0.0-33.0","40866623","wem/bandit_party_1","A271BMHV42XZPU","either","7","3249","","","32","","","","","","","","","","","","","","","","","","","","","","","","","","","","","","","","","","","","",""
"","text-replacement","72","278880","0.0-34.0","40866623","wem/bandit_party_1","A271BMHV42XZPU","either","7","10780","","","32","","","","","","","","","","","","","","","","","","","","","","","","","","","","","","","","","","","","",""
"","text-replacement","73","292429","0.0-35.0","40866623","wem/bandit_party_1","A271BMHV42XZPU","either","7","13544","","","32","","","","","","","","","","","","","","","","","","","","","","","","","","","","","","","","","","","","",""
"","text-replacement","74","298525","0.0-36.0","40866623","wem/bandit_party_1","A271BMHV42XZPU","either","7","6091","","","32","","","","","","","","","","","","","","","","","","","","","","","","","","","","","","","","","","","","",""
"","text-replacement","75","304480","0.0-37.0","40866623","wem/bandit_party_1","A271BMHV42XZPU","either","7","5947","","","32","","","","","","","","","","","","","","","","","","","","","","","","","","","","","","","","","","","","",""
"","text-replacement","76","309935","0.0-38.0","40866623","wem/bandit_party_1","A271BMHV42XZPU","either","7","5449","","","32","","","","","","","","","","","","","","","","","","","","","","","","","","","","","","","","","","","","",""
"","survey-multi-choice-replacement","77","316908","0.0-39.0-0.0","40866623","wem/bandit_party_1","A271BMHV42XZPU","either","7","6954","","","","","","","","","","","","","","","","","","","","","","","","Money will be added to the pool for <span style='color:blue;'>DEMOCRATS</span>","","","","","","","attn_check","","","","","","","","","0"
"","survey-multi-choice-replacement","78","325992","0.0-40.0-0.0","40866623","wem/bandit_party_1","A271BMHV42XZPU","either","7","8065","","","","","","","","","","","","","","","","","","","","","","","","Equal amounts of money will be added to the pool for <span style='color:blue;'>DEMOCRATS</span> and subtracted from the pool for <span style='color:red;'>REPUBLICANS</span>","","","","","","","attn_check","","","","","","","","","2"
"","survey-multi-choice-replacement","79","329712","0.0-41.0-0.0","40866623","wem/bandit_party_1","A271BMHV42XZPU","either","7","2703","","","","","","","","","","","","","","","","","","","","","","","","No money will be added to either pool","","","","","","","attn_check","","","","","","","","","3"
"","bandit","80","336300","0.0-42.0-0.0","40866623","wem/bandit_party_1","A271BMHV42XZPU","either","7","4068","","","","","","","0","1","0","","0.06530018083","0.4","0.8","0.2","0.6","0.06530018083","0.1480066451","0.1952616071","0.01738065524","","","","","","","","","","","","","","72","H","0","img/none_selected.jpg","","1","main_expt",""
"","bandit","81","338192","0.0-43.0-0.0","40866623","wem/bandit_party_1","A271BMHV42XZPU","either","7","382","","","","","","","0","0","1","","0.1011701763","0.4","0.8","0.2","0.6","0.1011701763","0.1053714073","0.1652234336","0.0196943787","","","","","","","","","","","","","","72","H","0","img/none_selected.jpg","","2","main_expt",""
"","bandit","82","339971","0.0-44.0-0.0","40866623","wem/bandit_party_1","A271BMHV42XZPU","either","7","267","","","","","","","0","0","1","","0.09486719381","0.4","0.8","0.2","0.6","0.09486719381","0.1460078221","0.1347382479","0.01678573497","","","","","","","","","","","","","","72","H","0","img/none_selected.jpg","","3","main_expt",""
"","bandit","83","341678","0.0-45.0-0.0","40866623","wem/bandit_party_1","A271BMHV42XZPU","either","7","195","","","","","","","0","0","1","0.1866138214","","0.4","0.8","0.2","0.6","","","","","0.06705802814","0.1866138214","0.1684625442","0.02981965743","","","","","","","","","","74","J","1","","","4","main_expt",""
"","bandit","84","343631","0.0-46.0-0.0","40866623","wem/bandit_party_1","A271BMHV42XZPU","either","7","441","","","","","","","0","0","1","0.2445348717","","0.4","0.8","0.2","0.6","","","","","0.0822298525","0.2445348717","0.1792029032","0.02600208211","","","","","","","","","","74","J","1","","","5","main_expt",""
"","bandit","85","345332","0.0-47.0-0.0","40866623","wem/bandit_party_1","A271BMHV42XZPU","either","7","189","","","","","","","1","0","0","0.2153873139","","0.4","0.8","0.2","0.6","","","","","0.09162209411","0.2546962146","0.2153873139","0.02332436933","","","","","","","","","","75","K","2","","","6","main_expt",""
"","bandit","86","347084","0.0-48.0-0.0","40866623","wem/bandit_party_1","A271BMHV42XZPU","either","7","242","","","","","","","0","0","1","","0.1757762721","0.4","0.8","0.2","0.6","0.1028820098","0.2344841702","0.1757762721","0.02864040813","","","","","","","","","","","","","","75","K","2","","","7","main_expt",""
"","bandit","87","348856","0.0-49.0-0.0","40866623","wem/bandit_party_1","A271BMHV42XZPU","either","7","260","","","","","","","0","0","1","","0.2241229746","0.4","0.8","0.2","0.6","0.1532270122","0.2473344203","0.2241229746","0.02951264166","","","","","","","","","","","","","","75","K","2","","","8","main_expt",""
"","bandit","88","350577","0.0-50.0-0.0","40866623","wem/bandit_party_1","A271BMHV42XZPU","either","7","205","","","","","","","0","0","1","","0.02997011939","0.4","0.8","0.2","0.6","0.2131450397","0.2642160399","0.2199426203","0.02997011939","","","","","","","","","","","","","","76","L","3","","","9","main_expt",""
"","bandit","89","352226","0.0-51.0-0.0","40866623","wem/bandit_party_1","A271BMHV42XZPU","either","7","131","","","","","","","0","0","1","0.02489651457","","0.4","0.8","0.2","0.6","","","","","0.2985754635","0.2104627424","0.1520686932","0.02489651457","","","","","","","","","","76","L","3","","","10","main_expt",""
"","bandit","90","354383","0.0-52.0-0.0","40866623","wem/bandit_party_1","A271BMHV42XZPU","either","7","646","","","","","","","0","1","0","","0.2924640086","0.4","0.8","0.2","0.6","0.2924640086","0.219372878","0.2013349999","0.01651058827","","","","","","","","","","","","","","72","H","0","img/none_selected.jpg","","11","main_expt",""
"","bandit","91","356121","0.0-53.0-0.0","40866623","wem/bandit_party_1","A271BMHV42XZPU","either","7","226","","","","","","","1","0","0","0.3264291113","","0.4","0.8","0.2","0.6","","","","","0.3264291113","0.2105839871","0.2156800105","0.02341729431","","","","","","","","","","72","H","0","img/none_selected.jpg","","12","main_expt",""
"","bandit","92","357879","0.0-54.0-0.0","40866623","wem/bandit_party_1","A271BMHV42XZPU","either","7","247","","","","","","","0","0","1","0.3254913314","","0.4","0.8","0.2","0.6","","","","","0.3254913314","0.2511698571","0.1833947696","0.0257410372","","","","","","","","","","72","H","0","img/none_selected.jpg","","13","main_expt",""
"","bandit","93","359569","0.0-55.0-0.0","40866623","wem/bandit_party_1","A271BMHV42XZPU","either","7","179","","","","","","","1","0","0","0.3428504842","","0.4","0.8","0.2","0.6","","","","","0.3428504842","0.2158977649","0.243643366","0.02570014082","","","","","","","","","","72","H","0","img/none_selected.jpg","","14","main_expt",""
"","bandit","94","361251","0.0-56.0-0.0","40866623","wem/bandit_party_1","A271BMHV42XZPU","either","7","170","","","","","","","0","0","1","0.3244047679","","0.4","0.8","0.2","0.6","","","","","0.3244047679","0.2762480727","0.2265365198","0.04268316416","","","","","","","","","","72","H","0","img/none_selected.jpg","","15","main_expt",""
"","bandit","95","362828","0.0-57.0-0.0","40866623","wem/bandit_party_1","A271BMHV42XZPU","either","7","66","","","","","","","0","0","1","","0.3025313629","0.4","0.8","0.2","0.6","0.3025313629","0.3202890724","0.2484951132","0.04667408308","","","","","","","","","","","","","","72","H","0","img/none_selected.jpg","","16","main_expt",""
"","bandit","96","364549","0.0-58.0-0.0","40866623","wem/bandit_party_1","A271BMHV42XZPU","either","7","210","","","","","","","0","0","1","0.3680552247","","0.4","0.8","0.2","0.6","","","","","0.3291216938","0.3680552247","0.2570267238","0.0506688767","","","","","","","","","","74","J","1","","","17","main_expt",""
"","bandit","97","366119","0.0-59.0-0.0","40866623","wem/bandit_party_1","A271BMHV42XZPU","either","7","52","","","","","","","1","0","0","0.3968593921","","0.4","0.8","0.2","0.6","","","","","0.2987881532","0.3968593921","0.287418789","0.02988526167","","","","","","","","","","74","J","1","","","18","main_expt",""
"","bandit","98","367831","0.0-60.0-0.0","40866623","wem/bandit_party_1","A271BMHV42XZPU","either","7","201","","","","","","","0","1","0","","0.4192996399","0.4","0.8","0.2","0.6","0.281207523","0.4192996399","0.2338710899","0.03476350355","","","","","","","","","","","","","","74","J","1","","","19","main_expt",""
"","bandit","99","369519","0.0-61.0-0.0","40866623","wem/bandit_party_1","A271BMHV42XZPU","either","7","176","","","","","","","1","0","0","0.4362768361","","0.4","0.8","0.2","0.6","","","","","0.291129981","0.4362768361","0.2335293464","0.0233687216","","","","","","","","","","74","J","1","","","20","main_expt",""
"","bandit","100","371182","0.0-62.0-0.0","40866623","wem/bandit_party_1","A271BMHV42XZPU","either","7","150","","","","","","","1","0","0","0.4599691003","","0.4","0.8","0.2","0.6","","","","","0.2729578326","0.4599691003","0.2434826965","0.01272547494","","","","","","","","","","74","J","1","","","21","main_expt",""
"","bandit","101","372776","0.0-63.0-0.0","40866623","wem/bandit_party_1","A271BMHV42XZPU","either","7","83","","","","","","","0","0","1","0.44353765","","0.4","0.8","0.2","0.6","","","","","0.2805141014","0.44353765","0.2702300591","0.01739491555","","","","","","","","","","74","J","1","","","22","main_expt",""
"","bandit","102","374316","0.0-64.0-0.0","40866623","wem/bandit_party_1","A271BMHV42XZPU","either","7","28","","","","","","","0","0","1","0.4105594395","","0.4","0.8","0.2","0.6","","","","","0.3016389313","0.4105594395","0.2424740502","0.006692102231","","","","","","","","","","74","J","1","","","23","main_expt",""
"","bandit","103","376045","0.0-65.0-0.0","40866623","wem/bandit_party_1","A271BMHV42XZPU","either","7","218","","","","","","","0","0","1","0.1754503809","","0.4","0.8","0.2","0.6","","","","","0.2475621169","0.4243351486","0.1754503809","0.01209419849","","","","","","","","","","75","K","2","","","24","main_expt",""
"","bandit","104","377729","0.0-66.0-0.0","40866623","wem/bandit_party_1","A271BMHV42XZPU","either","7","169","","","","","","","0","0","1","0.2023019753","","0.4","0.8","0.2","0.6","","","","","0.2607476102","0.4172780312","0.2023019753","0.009734580702","","","","","","","","","","75","K","2","","","25","main_expt",""
"","bandit","105","379465","0.0-67.0-0.0","40866623","wem/bandit_party_1","A271BMHV42XZPU","either","7","222","","","","","","","0","0","1","0.008596148908","","0.4","0.8","0.2","0.6","","","","","0.292589008","0.3981062588","0.1887270612","0.008596148908","","","","","","","","","","76","L","3","","","26","main_expt",""
"","bandit","106","381082","0.0-68.0-0.0","40866623","wem/bandit_party_1","A271BMHV42XZPU","either","7","105","","","","","","","0","0","1","0.01380650739","","0.4","0.8","0.2","0.6","","","","","0.2978950393","0.3889188119","0.2526986378","0.01380650739","","","","","","","","","","76","L","3","","","27","main_expt",""
"","bandit","107","382847","0.0-69.0-0.0","40866623","wem/bandit_party_1","A271BMHV42XZPU","either","7","253","","","","","","","0","0","1","","0.337392419","0.4","0.8","0.2","0.6","0.337392419","0.3699095679","0.2536033627","0.01160852189","","","","","","","","","","","","","","72","H","0","img/none_selected.jpg","","28","main_expt",""
"","bandit","108","384546","0.0-70.0-0.0","40866623","wem/bandit_party_1","A271BMHV42XZPU","either","7","187","","","","","","","0","1","0","","0.3830759015","0.4","0.8","0.2","0.6","0.3830759015","0.4087832773","0.258258936","0.02858314752","","","","","","","","","","","","","","72","H","0","img/none_selected.jpg","","29","main_expt",""
"","bandit","109","386251","0.0-71.0-0.0","40866623","wem/bandit_party_1","A271BMHV42XZPU","either","7","184","","","","","","","0","1","0","","0.3778881599","0.4","0.8","0.2","0.6","0.3778881599","0.4162513677","0.3152574144","0.0265596094","","","","","","","","","","","","","","72","H","0","img/none_selected.jpg","","30","main_expt",""
"","bandit","110","388019","0.0-72.0-0.0","40866623","wem/bandit_party_1","A271BMHV42XZPU","either","7","256","","","","","","","0","0","1","","0.3585458117","0.4","0.8","0.2","0.6","0.3585458117","0.43337534","0.3508579725","0.02828816112","","","","","","","","","","","","","","72","H","0","img/none_selected.jpg","","31","main_expt",""
"","bandit","111","390580","0.0-73.0-0.0","40866623","wem/bandit_party_1","A271BMHV42XZPU","either","7","1050","","","","","","","0","0","1","","0.3511664436","0.4","0.8","0.2","0.6","0.3511664436","0.4399105216","0.3902021543","0.03857304495","","","","","","","","","","","","","","72","H","0","img/none_selected.jpg","","32","main_expt",""
"","bandit","112","392094","0.0-74.0-0.0","40866623","wem/bandit_party_1","A271BMHV42XZPU","either","7","2","","","","","","","0","0","1","0.3859623535","","0.4","0.8","0.2","0.6","","","","","0.3924960189","0.3859623535","0.4112626521","0.02642959278","","","","","","","","","","74","J","1","","","33","main_expt",""
"","bandit","113","393696","0.0-75.0-0.0","40866623","wem/bandit_party_1","A271BMHV42XZPU","either","7","88","","","","","","","0","0","1","0.4231921331","","0.4","0.8","0.2","0.6","","","","","0.3713907517","0.4231921331","0.3912589523","0.06800028167","","","","","","","","","","74","J","1","","","34","main_expt",""
"","bandit","114","395317","0.0-76.0-0.0","40866623","wem/bandit_party_1","A271BMHV42XZPU","either","7","101","","","","","","","0","0","1","","0.3663646496","0.4","0.8","0.2","0.6","0.3929004689","0.3950458867","0.3663646496","0.05710280771","","","","","","","","","","","","","","75","K","2","","","35","main_expt",""
"","bandit","115","396898","0.0-77.0-0.0","40866623","wem/bandit_party_1","A271BMHV42XZPU","either","7","70","","","","","","","0","1","0","","0.3045225128","0.4","0.8","0.2","0.6","0.3820467604","0.4005306787","0.3045225128","0.07756943076","","","","","","","","","","","","","","75","K","2","","","36","main_expt",""
"","bandit","116","398572","0.0-78.0-0.0","40866623","wem/bandit_party_1","A271BMHV42XZPU","either","7","158","","","","","","","0","0","1","0.2806474599","","0.4","0.8","0.2","0.6","","","","","0.3948022939","0.3972735937","0.2806474599","0.06074629621","","","","","","","","","","75","K","2","","","37","main_expt",""
"","bandit","117","400191","0.0-79.0-0.0","40866623","wem/bandit_party_1","A271BMHV42XZPU","either","7","108","","","","","","","0","0","1","0.3558759705","","0.4","0.8","0.2","0.6","","","","","0.3769579019","0.38339591","0.3558759705","0.07063042774","","","","","","","","","","75","K","2","","","38","main_expt",""
"","bandit","118","401865","0.0-80.0-0.0","40866623","wem/bandit_party_1","A271BMHV42XZPU","either","7","161","","","","","","","1","0","0","0.06209293178","","0.4","0.8","0.2","0.6","","","","","0.4030344636","0.3906354184","0.3194138052","0.06209293178","","","","","","","","","","76","L","3","","","39","main_expt",""
"","bandit","119","403460","0.0-81.0-0.0","40866623","wem/bandit_party_1","A271BMHV42XZPU","either","7","82","","","","","","","0","0","1","0.06952578958","","0.4","0.8","0.2","0.6","","","","","0.3622335218","0.3623676206","0.3549086085","0.06952578958","","","","","","","","","","76","L","3","","","40","main_expt",""
"","bandit","120","405162","0.0-82.0-0.0","40866623","wem/bandit_party_1","A271BMHV42XZPU","either","7","188","","","","","","","0","0","1","0.1291245709","","0.4","0.8","0.2","0.6","","","","","0.3911596719","0.3873704927","0.3452113815","0.1291245709","","","","","","","","","","76","L","3","","","41","main_expt",""
"","bandit","121","406995","0.0-83.0-0.0","40866623","wem/bandit_party_1","A271BMHV42XZPU","either","7","319","","","","","","","0","0","1","0.1174523948","","0.4","0.8","0.2","0.6","","","","","0.3921858285","0.359823116","0.3522960267","0.1174523948","","","","","","","","","","76","L","3","","","42","main_expt",""
"","bandit","122","408617","0.0-84.0-0.0","40866623","wem/bandit_party_1","A271BMHV42XZPU","either","7","109","","","","","","","0","0","1","0.3093122096","","0.4","0.8","0.2","0.6","","","","","0.3831213528","0.3710191411","0.3093122096","0.1201484523","","","","","","","","","","75","K","2","","","43","main_expt",""
"","bandit","123","410160","0.0-85.0-0.0","40866623","wem/bandit_party_1","A271BMHV42XZPU","either","7","32","","","","","","","0","0","1","0.3874065465","","0.4","0.8","0.2","0.6","","","","","0.3518708159","0.3874065465","0.3026159556","0.09958360536","","","","","","","","","","74","J","1","","","44","main_expt",""
"","bandit","124","411694","0.0-86.0-0.0","40866623","wem/bandit_party_1","A271BMHV42XZPU","either","7","19","","","","","","","0","0","1","0.3122870636","","0.4","0.8","0.2","0.6","","","","","0.3122870636","0.3851533971","0.3336294247","0.05173655998","","","","","","","","","","72","H","0","img/none_selected.jpg","","45","main_expt",""
"","bandit","125","413436","0.0-87.0-0.0","40866623","wem/bandit_party_1","A271BMHV42XZPU","either","7","231","","","","","","","0","0","1","","0.2635721956","0.4","0.8","0.2","0.6","0.2635721956","0.4055883719","0.3400222736","0.05945041096","","","","","","","","","","","","","","72","H","0","img/none_selected.jpg","","46","main_expt",""
"","bandit","126","415150","0.0-88.0-0.0","40866623","wem/bandit_party_1","A271BMHV42XZPU","either","7","199","","","","","","","0","0","1","0.3671593179","","0.4","0.8","0.2","0.6","","","","","0.2856785865","0.3671593179","0.328707825","0.04375763727","","","","","","","","","","74","J","1","","","47","main_expt",""
"","bandit","127","416705","0.0-89.0-0.0","40866623","wem/bandit_party_1","A271BMHV42XZPU","either","7","43","","","","","","","1","0","0","0.3198203038","","0.4","0.8","0.2","0.6","","","","","0.2649087478","0.3198203038","0.3307690822","0.0666370861","","","","","","","","","","74","J","1","","","48","main_expt",""
"","bandit","128","418463","0.0-90.0-0.0","40866623","wem/bandit_party_1","A271BMHV42XZPU","either","7","243","","","","","","","0","0","1","0.3111357295","","0.4","0.8","0.2","0.6","","","","","0.2462979357","0.3111357295","0.3438067684","0.08266213623","","","","","","","","","","74","J","1","","","49","main_expt",""
"","bandit","129","420072","0.0-91.0-0.0","40866623","wem/bandit_party_1","A271BMHV42XZPU","either","7","97","","","","","","","0","0","1","","0.4037002216","0.4","0.8","0.2","0.6","0.2490076798","0.3196682981","0.4037002216","0.08795051988","","","","","","","","","","","","","","75","K","2","","","50","main_expt",""
"","bandit","130","421644","0.0-92.0-0.0","40866623","wem/bandit_party_1","A271BMHV42XZPU","either","7","57","","","","","","","0","0","1","0.3557518394","","0.4","0.8","0.2","0.6","","","","","0.305209751","0.3088596379","0.3557518394","0.07533366945","","","","","","","","","","75","K","2","","","51","main_expt",""
"","bandit","131","423329","0.0-93.0-0.0","40866623","wem/bandit_party_1","A271BMHV42XZPU","either","7","169","","","","","","","0","0","1","0.06506638851","","0.4","0.8","0.2","0.6","","","","","0.3087204988","0.3060924957","0.3254324358","0.06506638851","","","","","","","","","","76","L","3","","","52","main_expt",""
"","bandit","132","424943","0.0-94.0-0.0","40866623","wem/bandit_party_1","A271BMHV42XZPU","either","7","99","","","","","","","0","0","1","0.06562792832","","0.4","0.8","0.2","0.6","","","","","0.2984188648","0.3229319808","0.2952150256","0.06562792832","","","","","","","","","","76","L","3","","","53","main_expt",""
"","bandit","133","426631","0.0-95.0-0.0","40866623","wem/bandit_party_1","A271BMHV42XZPU","either","7","174","","","","","","","0","1","0","","0.300320608","0.4","0.8","0.2","0.6","0.3353917468","0.3280138586","0.300320608","0.04630081711","","","","","","","","","","","","","","75","K","2","","","54","main_expt",""
"","bandit","134","428298","0.0-96.0-0.0","40866623","wem/bandit_party_1","A271BMHV42XZPU","either","7","153","","","","","","","0","1","0","","0.2985084879","0.4","0.8","0.2","0.6","0.3259144651","0.2777260571","0.2985084879","0.03868373719","","","","","","","","","","","","","","75","K","2","","","55","main_expt",""
"","bandit","135","430017","0.0-97.0-0.0","40866623","wem/bandit_party_1","A271BMHV42XZPU","either","7","205","","","","","","","0","0","1","0.2607009345","","0.4","0.8","0.2","0.6","","","","","0.3259049121","0.1791004868","0.2607009345","0.06235362297","","","","","","","","","","75","K","2","","","56","main_expt",""
"","bandit","136","431993","0.0-98.0-0.0","40866623","wem/bandit_party_1","A271BMHV42XZPU","either","7","461","","","","","","","0","0","1","","0.2565854794","0.4","0.8","0.2","0.6","0.3687904078","0.2182265394","0.2565854794","0.04639461243","","","","","","","","","","","","","","75","K","2","","","57","main_expt",""
"","bandit","137","433616","0.0-99.0-0.0","40866623","wem/bandit_party_1","A271BMHV42XZPU","either","7","109","","","","","","","0","0","1","0.319121847","","0.4","0.8","0.2","0.6","","","","","0.3422038875","0.2970860181","0.319121847","0.08954448139","","","","","","","","","","75","K","2","","","58","main_expt",""
"","bandit","138","435328","0.0-100.0-0.0","40866623","wem/bandit_party_1","A271BMHV42XZPU","either","7","199","","","","","","","1","0","0","0.3269923399","","0.4","0.8","0.2","0.6","","","","","0.3771421139","0.3249685468","0.3269923399","0.07390342289","","","","","","","","","","75","K","2","","","59","main_expt",""
"","bandit","139","436913","0.0-101.0-0.0","40866623","wem/bandit_party_1","A271BMHV42XZPU","either","7","72","","","","","","","0","0","1","","0.3150968823","0.4","0.8","0.2","0.6","0.3620124399","0.2931470039","0.3150968823","0.05801548519","","","","","","","","","","","","","","75","K","2","","","60","main_expt",""
"","bandit","140","438529","0.0-102.0-0.0","40866623","wem/bandit_party_1","A271BMHV42XZPU","either","7","101","","","","","","","0","0","1","0.2646536279","","0.4","0.8","0.2","0.6","","","","","0.3958116198","0.2646536279","0.324539239","0.07333263924","","","","","","","","","","74","J","1","","","61","main_expt",""
"","bandit","141","440115","0.0-103.0-0.0","40866623","wem/bandit_party_1","A271BMHV42XZPU","either","7","71","","","","","","","1","0","0","0.242461968","","0.4","0.8","0.2","0.6","","","","","0.3615218546","0.242461968","0.3066306166","0.07563430262","","","","","","","","","","74","J","1","","","62","main_expt",""
"","bandit","142","441781","0.0-104.0-0.0","40866623","wem/bandit_party_1","A271BMHV42XZPU","either","7","152","","","","","","","0","0","1","0.2206683029","","0.4","0.8","0.2","0.6","","","","","0.3574266064","0.2206683029","0.3068900116","0.06826526778","","","","","","","","","","74","J","1","","","63","main_expt",""
"","bandit","143","443433","0.0-105.0-0.0","40866623","wem/bandit_party_1","A271BMHV42XZPU","either","7","138","","","","","","","0","0","1","0.2288959862","","0.4","0.8","0.2","0.6","","","","","0.3541915859","0.2288959862","0.2936494982","0.1175271989","","","","","","","","","","74","J","1","","","64","main_expt",""
"","bandit","144","445247","0.0-106.0-0.0","40866623","wem/bandit_party_1","A271BMHV42XZPU","either","7","300","","","","","","","0","1","0","","0.3339820985","0.4","0.8","0.2","0.6","0.3339820985","0.2346523549","0.290236101","0.1273865191","","","","","","","","","","","","","","72","H","0","img/none_selected.jpg","","65","main_expt",""
"","bandit","145","446912","0.0-107.0-0.0","40866623","wem/bandit_party_1","A271BMHV42XZPU","either","7","151","","","","","","","0","0","1","0.3195467083","","0.4","0.8","0.2","0.6","","","","","0.3195467083","0.1881688105","0.2512036594","0.09075088943","","","","","","","","","","72","H","0","img/none_selected.jpg","","66","main_expt",""
"","bandit","146","448637","0.0-108.0-0.0","40866623","wem/bandit_party_1","A271BMHV42XZPU","either","7","211","","","","","","","0","0","1","","0.3477383846","0.4","0.8","0.2","0.6","0.3477383846","0.231043846","0.263747572","0.08077075725","","","","","","","","","","","","","","72","H","0","img/none_selected.jpg","","67","main_expt",""
"","bandit","147","450398","0.0-109.0-0.0","40866623","wem/bandit_party_1","A271BMHV42XZPU","either","7","247","","","","","","","0","1","0","","0.3365352069","0.4","0.8","0.2","0.6","0.3365352069","0.2576664243","0.2892519303","0.08810311296","","","","","","","","","","","","","","72","H","0","img/none_selected.jpg","","68","main_expt",""
"","bandit","148","452149","0.0-110.0-0.0","40866623","wem/bandit_party_1","A271BMHV42XZPU","either","7","237","","","","","","","0","0","1","","0.3148812039","0.4","0.8","0.2","0.6","0.3148812039","0.2183283259","0.2383664846","0.1260156682","","","","","","","","","","","","","","72","H","0","img/none_selected.jpg","","69","main_expt",""
"","bandit","149","453785","0.0-111.0-0.0","40866623","wem/bandit_party_1","A271BMHV42XZPU","either","7","121","","","","","","","0","1","0","","0.3154014692","0.4","0.8","0.2","0.6","0.3154014692","0.2260484764","0.2497111545","0.08773951932","","","","","","","","","","","","","","72","H","0","img/none_selected.jpg","","70","main_expt",""
"","bandit","150","455463","0.0-112.0-0.0","40866623","wem/bandit_party_1","A271BMHV42XZPU","either","7","159","","","","","","","0","0","1","","0.219815459","0.4","0.8","0.2","0.6","0.219815459","0.3196469567","0.2095843002","0.1154304285","","","","","","","","","","","","","","72","H","0","img/none_selected.jpg","","71","main_expt",""
"","bandit","151","457004","0.0-113.0-0.0","40866623","wem/bandit_party_1","A271BMHV42XZPU","either","7","25","","","","","","","0","0","1","0.2623730272","","0.4","0.8","0.2","0.6","","","","","0.2623730272","0.3644141189","0.1972488467","0.10097247","","","","","","","","","","72","H","0","img/none_selected.jpg","","72","main_expt",""
"","bandit","152","458643","0.0-114.0-0.0","40866623","wem/bandit_party_1","A271BMHV42XZPU","either","7","125","","","","","","","0","0","1","","0.0746930591","0.4","0.8","0.2","0.6","0.2639805735","0.4081842109","0.15494396","0.0746930591","","","","","","","","","","","","","","76","L","3","","","73","main_expt",""
"","bandit","153","460362","0.0-115.0-0.0","40866623","wem/bandit_party_1","A271BMHV42XZPU","either","7","203","","","","","","","0","0","1","0.1124392477","","0.4","0.8","0.2","0.6","","","","","0.2770925356","0.4506698749","0.1324790415","0.1124392477","","","","","","","","","","76","L","3","","","74","main_expt",""
"","bandit","154","462166","0.0-116.0-0.0","40866623","wem/bandit_party_1","A271BMHV42XZPU","either","7","285","","","","","","","0","0","1","","0.179195356","0.4","0.8","0.2","0.6","0.2796652475","0.454520075","0.179195356","0.113494578","","","","","","","","","","","","","","75","K","2","","","75","main_expt",""
"","bandit","155","463944","0.0-117.0-0.0","40866623","wem/bandit_party_1","A271BMHV42XZPU","either","7","264","","","","","","","0","0","1","","0.215808919","0.4","0.8","0.2","0.6","0.3153427244","0.466199952","0.215808919","0.1469344428","","","","","","","","","","","","","","75","K","2","","","76","main_expt",""
"","bandit","156","465703","0.0-118.0-0.0","40866623","wem/bandit_party_1","A271BMHV42XZPU","either","7","242","","","","","","","0","1","0","","0.2312347408","0.4","0.8","0.2","0.6","0.3676911864","0.4402141775","0.2312347408","0.2152215887","","","","","","","","","","","","","","75","K","2","","","77","main_expt",""
"","bandit","157","467504","0.0-119.0-0.0","40866623","wem/bandit_party_1","A271BMHV42XZPU","either","7","288","","","","","","","0","0","1","0.2197025874","","0.4","0.8","0.2","0.6","","","","","0.3434277392","0.4525957793","0.2197025874","0.2055177618","","","","","","","","","","75","K","2","","","78","main_expt",""
"","bandit","158","469159","0.0-120.0-0.0","40866623","wem/bandit_party_1","A271BMHV42XZPU","either","7","144","","","","","","","1","0","0","0.4630799716","","0.4","0.8","0.2","0.6","","","","","0.3758616161","0.4630799716","0.2227420924","0.222262525","","","","","","","","","","74","J","1","","","79","main_expt",""
"","bandit","159","470879","0.0-121.0-0.0","40866623","wem/bandit_party_1","A271BMHV42XZPU","either","7","204","","","","","","","0","0","1","0.423693353","","0.4","0.8","0.2","0.6","","","","","0.3862393514","0.423693353","0.2283057493","0.2700860438","","","","","","","","","","74","J","1","","","80","main_expt",""
"","bandit","160","472575","0.0-122.0-0.0","40866623","wem/bandit_party_1","A271BMHV42XZPU","either","7","179","","","","","","","0","0","1","","0.4319112677","0.4","0.8","0.2","0.6","0.3593770893","0.4319112677","0.2721525977","0.2642688004","","","","","","","","","","","","","","74","J","1","","","81","main_expt",""
"","bandit","161","474293","0.0-123.0-0.0","40866623","wem/bandit_party_1","A271BMHV42XZPU","either","7","204","","","","","","","0","0","1","","0.441827487","0.4","0.8","0.2","0.6","0.4035110645","0.441827487","0.2850237184","0.2824164754","","","","","","","","","","","","","","74","J","1","","","82","main_expt",""
"","bandit","162","476001","0.0-124.0-0.0","40866623","wem/bandit_party_1","A271BMHV42XZPU","either","7","192","","","","","","","1","0","0","0.3719627038","","0.4","0.8","0.2","0.6","","","","","0.3719627038","0.4288861504","0.3236436683","0.2819095575","","","","","","","","","","72","H","0","img/none_selected.jpg","","83","main_expt",""
"","bandit","163","477798","0.0-125.0-0.0","40866623","wem/bandit_party_1","A271BMHV42XZPU","either","7","284","","","","","","","0","0","1","","0.3349288927","0.4","0.8","0.2","0.6","0.3349288927","0.4350385517","0.3339638593","0.2589745902","","","","","","","","","","","","","","72","H","0","img/none_selected.jpg","","84","main_expt",""
"","bandit","164","479528","0.0-126.0-0.0","40866623","wem/bandit_party_1","A271BMHV42XZPU","either","7","213","","","","","","","0","1","0","","0.3247899262","0.4","0.8","0.2","0.6","0.3247899262","0.4255505645","0.3795022601","0.3626504113","","","","","","","","","","","","","","72","H","0","img/none_selected.jpg","","85","main_expt",""
"","bandit","165","481243","0.0-127.0-0.0","40866623","wem/bandit_party_1","A271BMHV42XZPU","either","7","197","","","","","","","0","0","1","","0.3443557019","0.4","0.8","0.2","0.6","0.3443557019","0.4330938692","0.3835523064","0.3598915268","","","","","","","","","","","","","","72","H","0","img/none_selected.jpg","","86","main_expt",""
"","bandit","166","482993","0.0-128.0-0.0","40866623","wem/bandit_party_1","A271BMHV42XZPU","either","7","234","","","","","","","0","0","1","","0.3648776167","0.4","0.8","0.2","0.6","0.3648776167","0.4548398529","0.3772514457","0.3433052933","","","","","","","","","","","","","","72","H","0","img/none_selected.jpg","","87","main_expt",""
"","bandit","167","484593","0.0-129.0-0.0","40866623","wem/bandit_party_1","A271BMHV42XZPU","either","7","85","","","","","","","0","1","0","","0.3609631839","0.4","0.8","0.2","0.6","0.3609631839","0.4493124031","0.3766830519","0.4022938878","","","","","","","","","","","","","","72","H","0","img/none_selected.jpg","","88","main_expt",""
"","bandit","168","486409","0.0-130.0-0.0","40866623","wem/bandit_party_1","A271BMHV42XZPU","either","7","292","","","","","","","0","0","1","","0.3636167192","0.4","0.8","0.2","0.6","0.3636167192","0.4161110063","0.3537755119","0.4141493151","","","","","","","","","","","","","","72","H","0","img/none_selected.jpg","","89","main_expt",""
"","bandit","169","488121","0.0-131.0-0.0","40866623","wem/bandit_party_1","A271BMHV42XZPU","either","7","199","","","","","","","0","0","1","","0.3563441379","0.4","0.8","0.2","0.6","0.3563441379","0.405260856","0.3014761449","0.4136124289","","","","","","","","","","","","","","72","H","0","img/none_selected.jpg","","90","main_expt",""
"","bandit","170","489789","0.0-132.0-0.0","40866623","wem/bandit_party_1","A271BMHV42XZPU","either","7","153","","","","","","","0","0","1","","0.3389138503","0.4","0.8","0.2","0.6","0.3389138503","0.3827048226","0.2694038268","0.4184852842","","","","","","","","","","","","","","72","H","0","img/none_selected.jpg","","91","main_expt",""
"","bandit","171","491486","0.0-133.0-0.0","40866623","wem/bandit_party_1","A271BMHV42XZPU","either","7","181","","","","","","","1","0","0","0.4456808576","","0.4","0.8","0.2","0.6","","","","","0.3263360165","0.3552182969","0.2651536323","0.4456808576","","","","","","","","","","76","L","3","","","92","main_expt",""
"","bandit","172","493295","0.0-134.0-0.0","40866623","wem/bandit_party_1","A271BMHV42XZPU","either","7","293","","","","","","","0","1","0","","0.4355219805","0.4","0.8","0.2","0.6","0.2844131911","0.3286897504","0.1997208586","0.4355219805","","","","","","","","","","","","","","76","L","3","","","93","main_expt",""
"","bandit","173","495120","0.0-135.0-0.0","40866623","wem/bandit_party_1","A271BMHV42XZPU","either","7","306","","","","","","","1","0","0","0.4609821192","","0.4","0.8","0.2","0.6","","","","","0.2978465223","0.3422490236","0.2442555344","0.4609821192","","","","","","","","","","76","L","3","","","94","main_expt",""
"","bandit","174","496894","0.0-136.0-0.0","40866623","wem/bandit_party_1","A271BMHV42XZPU","either","7","258","","","","","","","0","0","1","0.4419374505","","0.4","0.8","0.2","0.6","","","","","0.2638723705","0.3160161054","0.2638839348","0.4419374505","","","","","","","","","","76","L","3","","","95","main_expt",""
"","bandit","175","498484","0.0-137.0-0.0","40866623","wem/bandit_party_1","A271BMHV42XZPU","either","7","75","","","","","","","1","0","0","0.39438674","","0.4","0.8","0.2","0.6","","","","","0.2276010735","0.2945538732","0.2265245807","0.39438674","","","","","","","","","","76","L","3","","","96","main_expt",""
"","bandit","176","500278","0.0-138.0-0.0","40866623","wem/bandit_party_1","A271BMHV42XZPU","either","7","279","","","","","","","0","0","1","0.3617668419","","0.4","0.8","0.2","0.6","","","","","0.2045446072","0.393563827","0.1969189177","0.3617668419","","","","","","","","","","76","L","3","","","97","main_expt",""
"","bandit","177","501860","0.0-139.0-0.0","40866623","wem/bandit_party_1","A271BMHV42XZPU","either","7","65","","","","","","","0","0","1","","0.3737913853","0.4","0.8","0.2","0.6","0.2436418828","0.4046254927","0.1761144245","0.3737913853","","","","","","","","","","","","","","76","L","3","","","98","main_expt",""
"","bandit","178","503591","0.0-140.0-0.0","40866623","wem/bandit_party_1","A271BMHV42XZPU","either","7","218","","","","","","","0","0","1","0.4221129479","","0.4","0.8","0.2","0.6","","","","","0.2473144087","0.3659012549","0.1211630765","0.4221129479","","","","","","","","","","76","L","3","","","99","main_expt",""
"","bandit","179","505291","0.0-141.0-0.0","40866623","wem/bandit_party_1","A271BMHV42XZPU","either","7","184","","","","","","","0","0","1","0.3857893684","","0.4","0.8","0.2","0.6","","","","","0.2707360286","0.400368336","0.1257326749","0.3857893684","","","","","","","","","","76","L","3","","","100","main_expt",""
"","bandit","180","507154","0.0-142.0-0.0","40866623","wem/bandit_party_1","A271BMHV42XZPU","either","7","349","","","","","","","0","0","1","0.09975532208","","0.4","0.8","0.2","0.6","","","","","0.3250409822","0.4367931528","0.09975532208","0.3635527264","","","","","","","","","","75","K","2","","","101","main_expt",""
"","bandit","181","508788","0.0-143.0-0.0","40866623","wem/bandit_party_1","A271BMHV42XZPU","either","7","120","","","","","","","0","0","1","","0.1127414424","0.4","0.8","0.2","0.6","0.3088580598","0.4371155326","0.1127414424","0.3738375489","","","","","","","","","","","","","","75","K","2","","","102","main_expt",""
"","bandit","182","510557","0.0-144.0-0.0","40866623","wem/bandit_party_1","A271BMHV42XZPU","either","7","249","","","","","","","0","0","1","0.388648264","","0.4","0.8","0.2","0.6","","","","","0.2901001995","0.388648264","0.1232600734","0.3860163181","","","","","","","","","","74","J","1","","","103","main_expt",""
"","bandit","183","512337","0.0-145.0-0.0","40866623","wem/bandit_party_1","A271BMHV42XZPU","either","7","261","","","","","","","0","0","1","0.3718469433","","0.4","0.8","0.2","0.6","","","","","0.309645936","0.3718469433","0.08156843846","0.390692362","","","","","","","","","","74","J","1","","","104","main_expt",""
"","bandit","184","514157","0.0-146.0-0.0","40866623","wem/bandit_party_1","A271BMHV42XZPU","either","7","306","","","","","","","0","0","1","","0.3386062745","0.4","0.8","0.2","0.6","0.3386062745","0.3920304628","0.08245659199","0.4139082553","","","","","","","","","","","","","","72","H","0","img/none_selected.jpg","","105","main_expt",""
"","bandit","185","515878","0.0-147.0-0.0","40866623","wem/bandit_party_1","A271BMHV42XZPU","either","7","203","","","","","","","0","1","0","","0.3827539061","0.4","0.8","0.2","0.6","0.3827539061","0.3733497125","0.1276639339","0.3295275825","","","","","","","","","","","","","","72","H","0","img/none_selected.jpg","","106","main_expt",""
"","bandit","186","517687","0.0-148.0-0.0","40866623","wem/bandit_party_1","A271BMHV42XZPU","either","7","291","","","","","","","0","0","1","0.3401355396","","0.4","0.8","0.2","0.6","","","","","0.3401355396","0.3878439861","0.1812689745","0.3499712774","","","","","","","","","","72","H","0","img/none_selected.jpg","","107","main_expt",""
"","bandit","187","519485","0.0-149.0-0.0","40866623","wem/bandit_party_1","A271BMHV42XZPU","either","7","283","","","","","","","0","0","1","","0.3258039352","0.4","0.8","0.2","0.6","0.3258039352","0.3529013302","0.2187982558","0.2666891207","","","","","","","","","","","","","","72","H","0","img/none_selected.jpg","","108","main_expt",""
"","bandit","188","521197","0.0-150.0-0.0","40866623","wem/bandit_party_1","A271BMHV42XZPU","either","7","197","","","","","","","0","0","1","","0.374919859","0.4","0.8","0.2","0.6","0.374919859","0.3457683734","0.2201216928","0.2575067634","","","","","","","","","","","","","","72","H","0","img/none_selected.jpg","","109","main_expt",""
"","bandit","189","522994","0.0-151.0-0.0","40866623","wem/bandit_party_1","A271BMHV42XZPU","either","7","280","","","","","","","0","1","0","","0.3316873257","0.4","0.8","0.2","0.6","0.3656186065","0.3316873257","0.1789817232","0.2664913793","","","","","","","","","","","","","","74","J","1","","","110","main_expt",""
"","bandit","190","524715","0.0-152.0-0.0","40866623","wem/bandit_party_1","A271BMHV42XZPU","either","7","207","","","","","","","1","0","0","0.3434945318","","0.4","0.8","0.2","0.6","","","","","0.3649701027","0.3434945318","0.2404947452","0.2233446911","","","","","","","","","","74","J","1","","","111","main_expt",""
"","bandit","191","526515","0.0-153.0-0.0","40866623","wem/bandit_party_1","A271BMHV42XZPU","either","7","284","","","","","","","0","0","1","0.2729480053","","0.4","0.8","0.2","0.6","","","","","0.3371716456","0.2729480053","0.2959558532","0.2170082082","","","","","","","","","","74","J","1","","","112","main_expt",""
"","bandit","192","528122","0.0-154.0-0.0","40866623","wem/bandit_party_1","A271BMHV42XZPU","either","7","92","","","","","","","0","0","1","","0.2579672073","0.4","0.8","0.2","0.6","0.2587224119","0.2579672073","0.2966985553","0.1912277411","","","","","","","","","","","","","","74","J","1","","","113","main_expt",""
"","bandit","193","529847","0.0-155.0-0.0","40866623","wem/bandit_party_1","A271BMHV42XZPU","either","7","205","","","","","","","0","1","0","","0.24654084","0.4","0.8","0.2","0.6","0.2384324947","0.24654084","0.3289730608","0.1691995451","","","","","","","","","","","","","","74","J","1","","","114","main_expt",""
"","bandit","194","531641","0.0-156.0-0.0","40866623","wem/bandit_party_1","A271BMHV42XZPU","either","7","279","","","","","","","0","1","0","","0.246649757","0.4","0.8","0.2","0.6","0.2705755989","0.246649757","0.2783705844","0.1263730162","","","","","","","","","","","","","","74","J","1","","","115","main_expt",""
"","bandit","195","533424","0.0-157.0-0.0","40866623","wem/bandit_party_1","A271BMHV42XZPU","either","7","267","","","","","","","0","0","1","0.2190482835","","0.4","0.8","0.2","0.6","","","","","0.2666822","0.2190482835","0.2990421824","0.1130092975","","","","","","","","","","74","J","1","","","116","main_expt",""
"","bandit","196","535257","0.0-158.0-0.0","40866623","wem/bandit_party_1","A271BMHV42XZPU","either","7","317","","","","","","","1","0","0","0.1860086181","","0.4","0.8","0.2","0.6","","","","","0.2664749026","0.1860086181","0.3214730448","0.1317362661","","","","","","","","","","74","J","1","","","117","main_expt",""
"","bandit","197","537020","0.0-159.0-0.0","40866623","wem/bandit_party_1","A271BMHV42XZPU","either","7","247","","","","","","","0","0","1","0.1765749983","","0.4","0.8","0.2","0.6","","","","","0.285497096","0.1765749983","0.3996160597","0.08460291254","","","","","","","","","","74","J","1","","","118","main_expt",""
"","bandit","198","538607","0.0-160.0-0.0","40866623","wem/bandit_party_1","A271BMHV42XZPU","either","7","73","","","","","","","0","0","1","","0.1840588368","0.4","0.8","0.2","0.6","0.3004427434","0.1840588368","0.4143362638","0.09168363065","","","","","","","","","","","","","","74","J","1","","","119","main_expt",""
"","bandit","199","540332","0.0-161.0-0.0","40866623","wem/bandit_party_1","A271BMHV42XZPU","either","7","208","","","","","","","0","0","1","0.1988357929","","0.4","0.8","0.2","0.6","","","","","0.2419855731","0.1988357929","0.372340151","0.06729372802","","","","","","","","","","74","J","1","","","120","main_expt",""
"","bandit","200","542068","0.0-162.0-0.0","40866623","wem/bandit_party_1","A271BMHV42XZPU","either","7","222","","","","","","","0","0","1","","0.3910424524","0.4","0.8","0.2","0.6","0.3054132847","0.2315674","0.3910424524","0.08346408207","","","","","","","","","","","","","","75","K","2","","","121","main_expt",""
"","bandit","201","543784","0.0-163.0-0.0","40866623","wem/bandit_party_1","A271BMHV42XZPU","either","7","201","","","","","","","0","0","1","","0.3813410711","0.4","0.8","0.2","0.6","0.2473202095","0.2041322171","0.3813410711","0.05632743158","","","","","","","","","","","","","","75","K","2","","","122","main_expt",""
"","bandit","202","545553","0.0-164.0-0.0","40866623","wem/bandit_party_1","A271BMHV42XZPU","either","7","252","","","","","","","0","0","1","","0.05516745574","0.4","0.8","0.2","0.6","0.2909195989","0.1945268209","0.4247291795","0.05516745574","","","","","","","","","","","","","","76","L","3","","","123","main_expt",""
"","bandit","203","547327","0.0-165.0-0.0","40866623","wem/bandit_party_1","A271BMHV42XZPU","either","7","255","","","","","","","0","0","1","0.05528311039","","0.4","0.8","0.2","0.6","","","","","0.3493750294","0.2206749142","0.4311179713","0.05528311039","","","","","","","","","","76","L","3","","","124","main_expt",""
"","bandit","204","549284","0.0-166.0-0.0","40866623","wem/bandit_party_1","A271BMHV42XZPU","either","7","442","","","","","","","0","0","1","","0.3883668019","0.4","0.8","0.2","0.6","0.3883668019","0.212012295","0.4085782939","0.07149807259","","","","","","","","","","","","","","72","H","0","img/none_selected.jpg","","125","main_expt",""
"","bandit","205","551145","0.0-167.0-0.0","40866623","wem/bandit_party_1","A271BMHV42XZPU","either","7","343","","","","","","","0","0","1","0.3888129637","","0.4","0.8","0.2","0.6","","","","","0.3888129637","0.1656684785","0.4110861309","0.1137803622","","","","","","","","","","72","H","0","img/none_selected.jpg","","126","main_expt",""
"","bandit","206","552887","0.0-168.0-0.0","40866623","wem/bandit_party_1","A271BMHV42XZPU","either","7","227","","","","","","","0","0","1","0.1685301808","","0.4","0.8","0.2","0.6","","","","","0.3659195129","0.1685301808","0.4214671818","0.1003054442","","","","","","","","","","74","J","1","","","127","main_expt",""
"","bandit","207","554711","0.0-169.0-0.0","40866623","wem/bandit_party_1","A271BMHV42XZPU","either","7","307","","","","","","","0","0","1","0.1703551811","","0.4","0.8","0.2","0.6","","","","","0.3689954399","0.1703551811","0.36889317","0.1378169536","","","","","","","","","","74","J","1","","","128","main_expt",""
"","bandit","208","556434","0.0-170.0-0.0","40866623","wem/bandit_party_1","A271BMHV42XZPU","either","7","207","","","","","","","0","0","1","0.3840267129","","0.4","0.8","0.2","0.6","","","","","0.3600340942","0.1624753709","0.3840267129","0.1333081235","","","","","","","","","","75","K","2","","","129","main_expt",""
"","bandit","209","558161","0.0-171.0-0.0","40866623","wem/bandit_party_1","A271BMHV42XZPU","either","7","211","","","","","","","0","0","1","","0.3809677701","0.4","0.8","0.2","0.6","0.3580797835","0.2335662737","0.3809677701","0.1682212827","","","","","","","","","","","","","","75","K","2","","","130","main_expt",""
"","bandit","210","559920","0.0-172.0-0.0","40866623","wem/bandit_party_1","A271BMHV42XZPU","either","7","240","","","","","","","0","0","1","","0.3681933818","0.4","0.8","0.2","0.6","0.3785893338","0.240441026","0.3681933818","0.2193829955","","","","","","","","","","","","","","75","K","2","","","131","main_expt",""
"","bandit","211","561735","0.0-173.0-0.0","40866623","wem/bandit_party_1","A271BMHV42XZPU","either","7","298","","","","","","","0","0","1","0.2693349046","","0.4","0.8","0.2","0.6","","","","","0.3764735404","0.2266699971","0.3664045944","0.2693349046","","","","","","","","","","76","L","3","","","132","main_expt",""
"","bandit","212","563553","0.0-174.0-0.0","40866623","wem/bandit_party_1","A271BMHV42XZPU","either","7","302","","","","","","","1","0","0","0.2576546077","","0.4","0.8","0.2","0.6","","","","","0.3433534211","0.1994193025","0.4046437197","0.2576546077","","","","","","","","","","76","L","3","","","133","main_expt",""
"","bandit","213","565357","0.0-175.0-0.0","40866623","wem/bandit_party_1","A271BMHV42XZPU","either","7","287","","","","","","","0","0","1","0.2412372273","","0.4","0.8","0.2","0.6","","","","","0.3606247271","0.1891464922","0.364490756","0.2412372273","","","","","","","","","","76","L","3","","","134","main_expt",""
"","bandit","214","567044","0.0-176.0-0.0","40866623","wem/bandit_party_1","A271BMHV42XZPU","either","7","171","","","","","","","0","0","1","","0.2198641054","0.4","0.8","0.2","0.6","0.3268624306","0.1614798668","0.311914316","0.2198641054","","","","","","","","","","","","","","76","L","3","","","135","main_expt",""
"","bandit","215","568626","0.0-177.0-0.0","40866623","wem/bandit_party_1","A271BMHV42XZPU","either","7","63","","","","","","","1","0","0","0.2504132697","","0.4","0.8","0.2","0.6","","","","","0.2854606769","0.1880386222","0.2653901568","0.2504132697","","","","","","","","","","76","L","3","","","136","main_expt",""
"","bandit","216","570304","0.0-178.0-0.0","40866623","wem/bandit_party_1","A271BMHV42XZPU","either","7","162","","","","","","","0","0","1","0.1912230989","","0.4","0.8","0.2","0.6","","","","","0.3311747399","0.1961818793","0.2413295316","0.1912230989","","","","","","","","","","76","L","3","","","137","main_expt",""
"","bandit","217","572047","0.0-179.0-0.0","40866623","wem/bandit_party_1","A271BMHV42XZPU","either","7","225","","","","","","","0","0","1","0.1576256809","","0.4","0.8","0.2","0.6","","","","","0.2570785188","0.2857678963","0.2060295423","0.1576256809","","","","","","","","","","76","L","3","","","138","main_expt",""
"","bandit","218","573723","0.0-180.0-0.0","40866623","wem/bandit_party_1","A271BMHV42XZPU","either","7","160","","","","","","","0","0","1","0.1019788138","","0.4","0.8","0.2","0.6","","","","","0.2858060749","0.3449131854","0.1809645164","0.1019788138","","","","","","","","","","76","L","3","","","139","main_expt",""
"","bandit","219","575496","0.0-181.0-0.0","40866623","wem/bandit_party_1","A271BMHV42XZPU","either","7","256","","","","","","","0","0","1","","0.1843216893","0.4","0.8","0.2","0.6","0.2975559752","0.2537716732","0.1843216893","0.07754087054","","","","","","","","","","","","","","75","K","2","","","140","main_expt",""
"","bandit","220","577119","0.0-182.0-0.0","40866623","wem/bandit_party_1","A271BMHV42XZPU","either","7","106","","","","","","","0","0","1","","0.1651876155","0.4","0.8","0.2","0.6","0.2802168405","0.2858111263","0.1651876155","0.09489610577","","","","","","","","","","","","","","75","K","2","","","141","main_expt",""
"","bandit","221","578774","0.0-183.0-0.0","40866623","wem/bandit_party_1","A271BMHV42XZPU","either","7","136","","","","","","","0","0","1","","0.303049367","0.4","0.8","0.2","0.6","0.2231986748","0.303049367","0.1536427928","0.09601428546","","","","","","","","","","","","","","74","J","1","","","142","main_expt",""
"","bandit","222","580370","0.0-184.0-0.0","40866623","wem/bandit_party_1","A271BMHV42XZPU","either","7","80","","","","","","","1","0","0","0.2969419413","","0.4","0.8","0.2","0.6","","","","","0.2032880393","0.2969419413","0.1546140226","0.08301142993","","","","","","","","","","74","J","1","","","143","main_expt",""
"","bandit","223","582088","0.0-185.0-0.0","40866623","wem/bandit_party_1","A271BMHV42XZPU","either","7","199","","","","","","","1","0","0","0.3128690494","","0.4","0.8","0.2","0.6","","","","","0.1967741464","0.3128690494","0.1746031107","0.09599686985","","","","","","","","","","74","J","1","","","144","main_expt",""
"","bandit","224","583826","0.0-186.0-0.0","40866623","wem/bandit_party_1","A271BMHV42XZPU","either","7","223","","","","","","","0","0","1","","0.2991796355","0.4","0.8","0.2","0.6","0.2283154954","0.2991796355","0.2021387556","0.07499383622","","","","","","","","","","","","","","74","J","1","","","145","main_expt",""
"","bandit","225","585626","0.0-187.0-0.0","40866623","wem/bandit_party_1","A271BMHV42XZPU","either","7","282","","","","","","","0","1","0","","0.3163763193","0.4","0.8","0.2","0.6","0.2118700154","0.3163763193","0.2504344391","0.09566861","","","","","","","","","","","","","","74","J","1","","","146","main_expt",""
"","bandit","226","587296","0.0-188.0-0.0","40866623","wem/bandit_party_1","A271BMHV42XZPU","either","7","155","","","","","","","0","0","1","0.3198025905","","0.4","0.8","0.2","0.6","","","","","0.210437557","0.3198025905","0.2437718569","0.08578591382","","","","","","","","","","74","J","1","","","147","main_expt",""
"","bandit","227","588934","0.0-189.0-0.0","40866623","wem/bandit_party_1","A271BMHV42XZPU","either","7","120","","","","","","","0","0","1","","0.2588245921","0.4","0.8","0.2","0.6","0.2370661354","0.2588245921","0.2446677265","0.1147887709","","","","","","","","","","","","","","74","J","1","","","148","main_expt",""
"","bandit","228","590560","0.0-190.0-0.0","40866623","wem/bandit_party_1","A271BMHV42XZPU","either","7","107","","","","","","","0","0","1","0.248712437","","0.4","0.8","0.2","0.6","","","","","0.2430363771","0.248712437","0.2911002833","0.1378203382","","","","","","","","","","74","J","1","","","149","main_expt",""
"","bandit","229","592323","0.0-191.0-0.0","40866623","wem/bandit_party_1","A271BMHV42XZPU","either","7","242","","","","","","","0","1","0","","0.2242182381","0.4","0.8","0.2","0.6","0.2242182381","0.179144869","0.3529655025","0.1414499273","","","","","","","","","","","","","","72","H","0","img/none_selected.jpg","","150","main_expt",""
"","bandit","230","593927","0.0-192.0-0.0","40866623","wem/bandit_party_1","A271BMHV42XZPU","either","7","88","","","","","","","0","0","1","","0.1997145133","0.4","0.8","0.2","0.6","0.1997145133","0.1545669956","0.3885741111","0.07852348772","","","","","","","","","","","","","","72","H","0","img/none_selected.jpg","","151","main_expt",""
"","bandit","231","595841","0.0-193.0-0.0","40866623","wem/bandit_party_1","A271BMHV42XZPU","either","7","395","","","","","","","0","0","1","","0.2195927633","0.4","0.8","0.2","0.6","0.2195927633","0.1651714415","0.3690499696","0.08485793113","","","","","","","","","","","","","","72","H","0","img/none_selected.jpg","","152","main_expt",""
"","bandit","232","597422","0.0-194.0-0.0","40866623","wem/bandit_party_1","A271BMHV42XZPU","either","7","63","","","","","","","0","0","1","","0.2121816628","0.4","0.8","0.2","0.6","0.2121816628","0.2396245514","0.3710492515","0.1083789561","","","","","","","","","","","","","","72","H","0","img/none_selected.jpg","","153","main_expt",""
"","bandit","233","599080","0.0-195.0-0.0","40866623","wem/bandit_party_1","A271BMHV42XZPU","either","7","140","","","","","","","0","0","1","0.1830588608","","0.4","0.8","0.2","0.6","","","","","0.1830588608","0.2085838567","0.3483335413","0.109098481","","","","","","","","","","72","H","0","img/none_selected.jpg","","154","main_expt",""
"","bandit","234","600854","0.0-196.0-0.0","40866623","wem/bandit_party_1","A271BMHV42XZPU","either","7","256","","","","","","","0","0","1","0.1758262092","","0.4","0.8","0.2","0.6","","","","","0.2031423662","0.1864274254","0.3343760247","0.1758262092","","","","","","","","","","76","L","3","","","155","main_expt",""
"","bandit","235","602542","0.0-197.0-0.0","40866623","wem/bandit_party_1","A271BMHV42XZPU","either","7","169","","","","","","","0","0","1","0.2046597001","","0.4","0.8","0.2","0.6","","","","","0.2022731065","0.1750870897","0.3742013553","0.2046597001","","","","","","","","","","76","L","3","","","156","main_expt",""
"","bandit","236","604137","0.0-198.0-0.0","40866623","wem/bandit_party_1","A271BMHV42XZPU","either","7","80","","","","","","","0","0","1","0.1774751899","","0.4","0.8","0.2","0.6","","","","","0.1826661219","0.1321985386","0.3620366094","0.1774751899","","","","","","","","","","76","L","3","","","157","main_expt",""
"","bandit","237","605846","0.0-199.0-0.0","40866623","wem/bandit_party_1","A271BMHV42XZPU","either","7","191","","","","","","","0","0","1","","0.3671714071","0.4","0.8","0.2","0.6","0.1658993888","0.1341899746","0.3671714071","0.1612033886","","","","","","","","","","","","","","75","K","2","","","158","main_expt",""
"","bandit","238","607438","0.0-200.0-0.0","40866623","wem/bandit_party_1","A271BMHV42XZPU","either","7","73","","","","","","","0","0","1","","0.1586838935","0.4","0.8","0.2","0.6","0.1620079643","0.1567784951","0.4015988616","0.1586838935","","","","","","","","","","","","","","76","L","3","","","159","main_expt",""
"","bandit","239","609144","0.0-201.0-0.0","40866623","wem/bandit_party_1","A271BMHV42XZPU","either","7","189","","","","","","","1","0","0","0.1615549635","","0.4","0.8","0.2","0.6","","","","","0.2453635642","0.1615549635","0.4004877553","0.2159944071","","","","","","","","","","74","J","1","","","160","main_expt",""
"","bandit","240","610807","0.0-202.0-0.0","40866623","wem/bandit_party_1","A271BMHV42XZPU","either","7","146","","","","","","","1","0","0","0.1854631015","","0.4","0.8","0.2","0.6","","","","","0.2456373749","0.1854631015","0.4095849454","0.2105769377","","","","","","","","","","74","J","1","","","161","main_expt",""
"","bandit","241","612646","0.0-203.0-0.0","40866623","wem/bandit_party_1","A271BMHV42XZPU","either","7","321","","","","","","","0","0","1","0.21229469","","0.4","0.8","0.2","0.6","","","","","0.2460125232","0.21229469","0.3978002783","0.2006925765","","","","","","","","","","74","J","1","","","162","main_expt",""
"","bandit","242","614266","0.0-204.0-0.0","40866623","wem/bandit_party_1","A271BMHV42XZPU","either","7","104","","","","","","","0","0","1","","0.162194177","0.4","0.8","0.2","0.6","0.2013568893","0.162194177","0.4180552148","0.2365124807","","","","","","","","","","","","","","74","J","1","","","163","main_expt",""
"","bandit","243","615854","0.0-205.0-0.0","40866623","wem/bandit_party_1","A271BMHV42XZPU","either","7","70","","","","","","","0","0","1","0.1535707797","","0.4","0.8","0.2","0.6","","","","","0.1933595846","0.1535707797","0.4407560021","0.2157370886","","","","","","","","","","74","J","1","","","164","main_expt",""
"","bandit","244","617567","0.0-206.0-0.0","40866623","wem/bandit_party_1","A271BMHV42XZPU","either","7","195","","","","","","","0","1","0","","0.4582960521","0.4","0.8","0.2","0.6","0.167552211","0.2315934193","0.4582960521","0.2166787898","","","","","","","","","","","","","","75","K","2","","","165","main_expt",""
"","bandit","245","619151","0.0-207.0-0.0","40866623","wem/bandit_party_1","A271BMHV42XZPU","either","7","65","","","","","","","0","1","0","","0.4337500892","0.4","0.8","0.2","0.6","0.1311237951","0.2579087381","0.4337500892","0.1846262972","","","","","","","","","","","","","","75","K","2","","","166","main_expt",""
"","bandit","246","620794","0.0-208.0-0.0","40866623","wem/bandit_party_1","A271BMHV42XZPU","either","7","126","","","","","","","0","0","1","","0.4537582576","0.4","0.8","0.2","0.6","0.1714029316","0.2496457694","0.4537582576","0.1888750078","","","","","","","","","","","","","","75","K","2","","","167","main_expt",""
"","bandit","247","622413","0.0-209.0-0.0","40866623","wem/bandit_party_1","A271BMHV42XZPU","either","7","101","","","","","","","0","0","1","0.4473485534","","0.4","0.8","0.2","0.6","","","","","0.1494402723","0.234558796","0.4473485534","0.2315683769","","","","","","","","","","75","K","2","","","168","main_expt",""
"","bandit","248","624041","0.0-210.0-0.0","40866623","wem/bandit_party_1","A271BMHV42XZPU","either","7","108","","","","","","","0","0","1","","0.4471591033","0.4","0.8","0.2","0.6","0.1819888556","0.2458600006","0.4471591033","0.2018123945","","","","","","","","","","","","","","75","K","2","","","169","main_expt",""
"","bandit","249","625613","0.0-211.0-0.0","40866623","wem/bandit_party_1","A271BMHV42XZPU","either","7","54","","","","","","","0","0","1","0.139238222","","0.4","0.8","0.2","0.6","","","","","0.2329206984","0.2214583157","0.4581839475","0.139238222","","","","","","","","","","76","L","3","","","170","main_expt",""
"","bandit","250","627169","0.0-212.0-0.0","40866623","wem/bandit_party_1","A271BMHV42XZPU","either","7","39","","","","","","","0","0","1","0.1466511374","","0.4","0.8","0.2","0.6","","","","","0.2000607923","0.296208115","0.4674995421","0.1466511374","","","","","","","","","","76","L","3","","","171","main_expt",""
"","bandit","251","628730","0.0-213.0-0.0","40866623","wem/bandit_party_1","A271BMHV42XZPU","either","7","45","","","","","","","0","1","0","","0.2342957318","0.4","0.8","0.2","0.6","0.2342957318","0.3062379281","0.4455620345","0.1348290388","","","","","","","","","","","","","","72","H","0","img/none_selected.jpg","","172","main_expt",""
"","bandit","252","630585","0.0-214.0-0.0","40866623","wem/bandit_party_1","A271BMHV42XZPU","either","7","338","","","","","","","0","0","1","","0.2189308077","0.4","0.8","0.2","0.6","0.2189308077","0.2498067723","0.4471610379","0.1521691919","","","","","","","","","","","","","","72","H","0","img/none_selected.jpg","","173","main_expt",""
"","bandit","253","632392","0.0-215.0-0.0","40866623","wem/bandit_party_1","A271BMHV42XZPU","either","7","288","","","","","","","0","0","1","","0.2373932689","0.4","0.8","0.2","0.6","0.2373932689","0.1803522277","0.4496576915","0.2191935525","","","","","","","","","","","","","","72","H","0","img/none_selected.jpg","","174","main_expt",""
"","bandit","254","634255","0.0-216.0-0.0","40866623","wem/bandit_party_1","A271BMHV42XZPU","either","7","343","","","","","","","0","0","1","","0.2160264752","0.4","0.8","0.2","0.6","0.2160264752","0.2014319342","0.4715297358","0.219961305","","","","","","","","","","","","","","72","H","0","img/none_selected.jpg","","175","main_expt",""
"","bandit","255","635970","0.0-217.0-0.0","40866623","wem/bandit_party_1","A271BMHV42XZPU","either","7","189","","","","","","","0","0","1","0.2122003168","","0.4","0.8","0.2","0.6","","","","","0.1990604306","0.2122003168","0.477956151","0.1882485239","","","","","","","","","","74","J","1","","","176","main_expt",""
"","bandit","256","637647","0.0-218.0-0.0","40866623","wem/bandit_party_1","A271BMHV42XZPU","either","7","144","","","","","","","0","0","1","0.2629069455","","0.4","0.8","0.2","0.6","","","","","0.1729978196","0.2629069455","0.4563721206","0.1644902553","","","","","","","","","","74","J","1","","","177","main_expt",""
"","bandit","257","639261","0.0-219.0-0.0","40866623","wem/bandit_party_1","A271BMHV42XZPU","either","7","95","","","","","","","0","1","0","","0.4409869931","0.4","0.8","0.2","0.6","0.1633080779","0.2336104206","0.4409869931","0.1713669852","","","","","","","","","","","","","","75","K","2","","","178","main_expt",""
"","bandit","258","640977","0.0-220.0-0.0","40866623","wem/bandit_party_1","A271BMHV42XZPU","either","7","194","","","","","","","0","0","1","","0.4243126063","0.4","0.8","0.2","0.6","0.1243251356","0.1887504226","0.4243126063","0.2263400462","","","","","","","","","","","","","","75","K","2","","","179","main_expt",""
"","bandit","259","642658","0.0-221.0-0.0","40866623","wem/bandit_party_1","A271BMHV42XZPU","either","7","162","","","","","","","0","0","1","","0.4312830743","0.4","0.8","0.2","0.6","0.1150149055","0.138376641","0.4312830743","0.2036870175","","","","","","","","","","","","","","75","K","2","","","180","main_expt",""
"","bandit","260","644314","0.0-222.0-0.0","40866623","wem/bandit_party_1","A271BMHV42XZPU","either","7","136","","","","","","","0","1","0","","0.4433127893","0.4","0.8","0.2","0.6","0.1407924877","0.1883992559","0.4433127893","0.1934599198","","","","","","","","","","","","","","75","K","2","","","181","main_expt",""
"","bandit","261","646082","0.0-223.0-0.0","40866623","wem/bandit_party_1","A271BMHV42XZPU","either","7","249","","","","","","","0","0","1","0.440136403","","0.4","0.8","0.2","0.6","","","","","0.09672650852","0.128889003","0.440136403","0.2424515525","","","","","","","","","","75","K","2","","","182","main_expt",""
"","bandit","262","647830","0.0-224.0-0.0","40866623","wem/bandit_party_1","A271BMHV42XZPU","either","7","223","","","","","","","0","0","1","","0.4347693449","0.4","0.8","0.2","0.6","0.09888002855","0.1748769843","0.4347693449","0.1961777535","","","","","","","","","","","","","","75","K","2","","","183","main_expt",""
"","bandit","263","649404","0.0-225.0-0.0","40866623","wem/bandit_party_1","A271BMHV42XZPU","either","7","51","","","","","","","0","0","1","","0.4277130926","0.4","0.8","0.2","0.6","0.07200145298","0.1945994373","0.4277130926","0.1489283113","","","","","","","","","","","","","","75","K","2","","","184","main_expt",""
"","bandit","264","651142","0.0-226.0-0.0","40866623","wem/bandit_party_1","A271BMHV42XZPU","either","7","218","","","","","","","0","0","1","","0.3956248437","0.4","0.8","0.2","0.6","0.09476413333","0.1644748654","0.3956248437","0.1499965078","","","","","","","","","","","","","","75","K","2","","","185","main_expt",""
"","bandit","265","652966","0.0-227.0-0.0","40866623","wem/bandit_party_1","A271BMHV42XZPU","either","7","306","","","","","","","0","0","1","0.1504635592","","0.4","0.8","0.2","0.6","","","","","0.06556422103","0.1504635592","0.3748928266","0.2169832988","","","","","","","","","","74","J","1","","","186","main_expt",""
"","bandit","266","654688","0.0-228.0-0.0","40866623","wem/bandit_party_1","A271BMHV42XZPU","either","7","203","","","","","","","0","1","0","","0.08901149072","0.4","0.8","0.2","0.6","0.08901149072","0.1760039214","0.3848139325","0.2655186329","","","","","","","","","","","","","","72","H","0","img/none_selected.jpg","","187","main_expt",""
"","bandit","267","656560","0.0-229.0-0.0","40866623","wem/bandit_party_1","A271BMHV42XZPU","either","7","352","","","","","","","0","0","1","0.09471428588","","0.4","0.8","0.2","0.6","","","","","0.09471428588","0.1203267588","0.3990176401","0.2738785118","","","","","","","","","","72","H","0","img/none_selected.jpg","","188","main_expt",""
"","bandit","268","658194","0.0-230.0-0.0","40866623","wem/bandit_party_1","A271BMHV42XZPU","either","7","114","","","","","","","0","1","0","","0.3041874674","0.4","0.8","0.2","0.6","0.05118235823","0.1171540391","0.3581396838","0.3041874674","","","","","","","","","","","","","","76","L","3","","","189","main_expt",""
"","bandit","269","659892","0.0-231.0-0.0","40866623","wem/bandit_party_1","A271BMHV42XZPU","either","7","178","","","","","","","0","0","1","","0.3229453735","0.4","0.8","0.2","0.6","0.05788318751","0.1535230761","0.2882972244","0.3229453735","","","","","","","","","","","","","","76","L","3","","","190","main_expt",""
"","bandit","270","661445","0.0-232.0-0.0","40866623","wem/bandit_party_1","A271BMHV42XZPU","either","7","27","","","","","","","1","0","0","0.1372750947","","0.4","0.8","0.2","0.6","","","","","0.08736915481","0.1372750947","0.3145326233","0.3818249757","","","","","","","","","","74","J","1","","","191","main_expt",""
"","bandit","271","664751","0.0-233.0-0.0","40866623","wem/bandit_party_1","A271BMHV42XZPU","either","7","1788","","","","","","","0","0","1","0.1047771501","","0.4","0.8","0.2","0.6","","","","","0.08251019118","0.1047771501","0.3270603702","0.4157726243","","","","","","","","","","74","J","1","","","192","main_expt",""
"","bandit","272","666559","0.0-234.0-0.0","40866623","wem/bandit_party_1","A271BMHV42XZPU","either","7","287","","","","","","","0","0","1","","0.06897628064","0.4","0.8","0.2","0.6","0.06897628064","0.1100845432","0.3604030797","0.4611608212","","","","","","","","","","","","","","72","H","0","img/none_selected.jpg","","193","main_expt",""
"","bandit","273","668301","0.0-235.0-0.0","40866623","wem/bandit_party_1","A271BMHV42XZPU","either","7","223","","","","","","","0","0","1","0.1468163818","","0.4","0.8","0.2","0.6","","","","","0.06801266305","0.1468163818","0.357423186","0.4508818777","","","","","","","","","","74","J","1","","","194","main_expt",""
"","bandit","274","669952","0.0-236.0-0.0","40866623","wem/bandit_party_1","A271BMHV42XZPU","either","7","128","","","","","","","0","1","0","","0.3697779856","0.4","0.8","0.2","0.6","0.09923709358","0.1495594621","0.3697779856","0.4278921451","","","","","","","","","","","","","","75","K","2","","","195","main_expt",""
"","bandit","275","671596","0.0-237.0-0.0","40866623","wem/bandit_party_1","A271BMHV42XZPU","either","7","125","","","","","","","0","0","1","","0.3617177512","0.4","0.8","0.2","0.6","0.1103063831","0.2263220537","0.3617177512","0.4256293003","","","","","","","","","","","","","","75","K","2","","","196","main_expt",""
"","bandit","276","673280","0.0-238.0-0.0","40866623","wem/bandit_party_1","A271BMHV42XZPU","either","7","163","","","","","","","0","1","0","","0.3775990084","0.4","0.8","0.2","0.6","0.07377144043","0.2204718804","0.3775990084","0.4476975038","","","","","","","","","","","","","","75","K","2","","","197","main_expt",""
"","bandit","277","674993","0.0-239.0-0.0","40866623","wem/bandit_party_1","A271BMHV42XZPU","either","7","192","","","","","","","0","0","1","","0.4144042571","0.4","0.8","0.2","0.6","0.08863448313","0.2401118457","0.4144042571","0.4434357272","","","","","","","","","","","","","","75","K","2","","","198","main_expt",""
"","bandit","278","676598","0.0-240.0-0.0","40866623","wem/bandit_party_1","A271BMHV42XZPU","either","7","86","","","","","","","0","0","1","","0.4081775392","0.4","0.8","0.2","0.6","0.1082179128","0.2673724497","0.4081775392","0.4245114622","","","","","","","","","","","","","","75","K","2","","","199","main_expt",""
"","bandit","279","678183","0.0-241.0-0.0","40866623","wem/bandit_party_1","A271BMHV42XZPU","either","7","62","","","","","","","0","0","1","","0.4166156547","0.4","0.8","0.2","0.6","0.09350688576","0.3125307902","0.4166156547","0.4087100315","","","","","","","","","","","","","","75","K","2","","","200","main_expt",""
"","bandit","280","679784","0.0-242.0-0.0","40866623","wem/bandit_party_1","A271BMHV42XZPU","either","7","82","","","","","","","0","0","1","0.4361521275","","0.4","0.8","0.2","0.6","","","","","0.1036625099","0.2914574258","0.4306537176","0.4361521275","","","","","","","","","","76","L","3","","","201","main_expt",""
"","bandit","281","681365","0.0-243.0-0.0","40866623","wem/bandit_party_1","A271BMHV42XZPU","either","7","59","","","","","","","0","0","1","0.3332596158","","0.4","0.8","0.2","0.6","","","","","0.1216733889","0.2550600684","0.449382563","0.3332596158","","","","","","","","","","76","L","3","","","202","main_expt",""
"","bandit","282","682910","0.0-244.0-0.0","40866623","wem/bandit_party_1","A271BMHV42XZPU","either","7","23","","","","","","","0","0","1","0.120655788","","0.4","0.8","0.2","0.6","","","","","0.120655788","0.2769745997","0.4506576586","0.3581848779","","","","","","","","","","72","H","0","img/none_selected.jpg","","203","main_expt",""
"","bandit","283","685438","0.0-245.0-0.0","40866623","wem/bandit_party_1","A271BMHV42XZPU","either","7","1007","","","","","","","0","0","1","0.2752990059","","0.4","0.8","0.2","0.6","","","","","0.1082970726","0.2752990059","0.454839243","0.3597133043","","","","","","","","","","74","J","1","","","204","main_expt",""
"","bandit","284","687361","0.0-246.0-0.0","40866623","wem/bandit_party_1","A271BMHV42XZPU","either","7","402","","","","","","","0","0","1","","0.2901512169","0.4","0.8","0.2","0.6","0.09143681274","0.2901512169","0.4512889682","0.3630183988","","","","","","","","","","","","","","74","J","1","","","205","main_expt",""
"","bandit","285","688914","0.0-247.0-0.0","40866623","wem/bandit_party_1","A271BMHV42XZPU","either","7","32","","","","","","","0","1","0","","0.4591490044","0.4","0.8","0.2","0.6","0.08377413986","0.2823763913","0.4591490044","0.3737494834","","","","","","","","","","","","","","75","K","2","","","206","main_expt",""
"","bandit","286","690501","0.0-248.0-0.0","40866623","wem/bandit_party_1","A271BMHV42XZPU","either","7","67","","","","","","","0","1","0","","0.4650593633","0.4","0.8","0.2","0.6","0.1585073664","0.2708062506","0.4650593633","0.3668784438","","","","","","","","","","","","","","75","K","2","","","207","main_expt",""
"","bandit","287","692107","0.0-249.0-0.0","40866623","wem/bandit_party_1","A271BMHV42XZPU","either","7","85","","","","","","","0","0","1","","0.4641513068","0.4","0.8","0.2","0.6","0.162299901","0.2641553663","0.4641513068","0.4045351895","","","","","","","","","","","","","","75","K","2","","","208","main_expt",""
"","bandit","288","693775","0.0-250.0-0.0","40866623","wem/bandit_party_1","A271BMHV42XZPU","either","7","144","","","","","","","0","1","0","","0.4567807332","0.4","0.8","0.2","0.6","0.1542266077","0.2704675845","0.4567807332","0.4402386934","","","","","","","","","","","","","","75","K","2","","","209","main_expt",""
"","bandit","289","695379","0.0-251.0-0.0","40866623","wem/bandit_party_1","A271BMHV42XZPU","either","7","78","","","","","","","0","0","1","","0.428253188","0.4","0.8","0.2","0.6","0.1890415559","0.3420868926","0.428253188","0.4483623408","","","","","","","","","","","","","","75","K","2","","","210","main_expt",""
"","bandit","290","696995","0.0-252.0-0.0","40866623","wem/bandit_party_1","A271BMHV42XZPU","either","7","90","","","","","","","0","1","0","","0.410271385","0.4","0.8","0.2","0.6","0.1818133019","0.3069688952","0.410271385","0.4471415093","","","","","","","","","","","","","","75","K","2","","","211","main_expt",""
"","bandit","291","698643","0.0-253.0-0.0","40866623","wem/bandit_party_1","A271BMHV42XZPU","either","7","124","","","","","","","0","1","0","","0.4065587724","0.4","0.8","0.2","0.6","0.1782747956","0.3005379093","0.4065587724","0.4374655127","","","","","","","","","","","","","","75","K","2","","","212","main_expt",""
"","bandit","292","700353","0.0-254.0-0.0","40866623","wem/bandit_party_1","A271BMHV42XZPU","either","7","182","","","","","","","0","0","1","","0.4007116542","0.4","0.8","0.2","0.6","0.1935195711","0.213882915","0.4007116542","0.4381457257","","","","","","","","","","","","","","75","K","2","","","213","main_expt",""
"","bandit","293","701893","0.0-255.0-0.0","40866623","wem/bandit_party_1","A271BMHV42XZPU","either","7","14","","","","","","","0","0","1","","0.4246209323","0.4","0.8","0.2","0.6","0.2421176173","0.2138557204","0.4246209323","0.4643769008","","","","","","","","","","","","","","75","K","2","","","214","main_expt",""
"","bandit","294","703627","0.0-256.0-0.0","40866623","wem/bandit_party_1","A271BMHV42XZPU","either","7","210","","","","","","","0","1","0","","0.3993057066","0.4","0.8","0.2","0.6","0.2629876012","0.2142566612","0.3993057066","0.4328812357","","","","","","","","","","","","","","75","K","2","","","215","main_expt",""
"","bandit","295","705295","0.0-257.0-0.0","40866623","wem/bandit_party_1","A271BMHV42XZPU","either","7","147","","","","","","","0","0","1","0.3987772474","","0.4","0.8","0.2","0.6","","","","","0.2977714141","0.1900351118","0.3987772474","0.4064507999","","","","","","","","","","75","K","2","","","216","main_expt",""
"","bandit","296","706983","0.0-258.0-0.0","40866623","wem/bandit_party_1","A271BMHV42XZPU","either","7","166","","","","","","","0","0","1","","0.4101433534","0.4","0.8","0.2","0.6","0.3017601552","0.2185169477","0.4101433534","0.4197961641","","","","","","","","","","","","","","75","K","2","","","217","main_expt",""
"","bandit","297","708605","0.0-259.0-0.0","40866623","wem/bandit_party_1","A271BMHV42XZPU","either","7","99","","","","","","","0","0","1","","0.4448029092","0.4","0.8","0.2","0.6","0.2888566207","0.2240895604","0.4448029092","0.4167397569","","","","","","","","","","","","","","75","K","2","","","218","main_expt",""
"","bandit","298","710212","0.0-260.0-0.0","40866623","wem/bandit_party_1","A271BMHV42XZPU","either","7","86","","","","","","","0","1","0","","0.4454766299","0.4","0.8","0.2","0.6","0.2844008008","0.1990808675","0.4454766299","0.4250944588","","","","","","","","","","","","","","75","K","2","","","219","main_expt",""
"","bandit","299","711879","0.0-261.0-0.0","40866623","wem/bandit_party_1","A271BMHV42XZPU","either","7","145","","","","","","","0","0","1","","0.4610997771","0.4","0.8","0.2","0.6","0.2225062479","0.266602996","0.4610997771","0.4173336587","","","","","","","","","","","","","","75","K","2","","","220","main_expt",""
"","bandit","300","713532","0.0-262.0-0.0","40866623","wem/bandit_party_1","A271BMHV42XZPU","either","7","131","","","","","","","0","1","0","","0.4642289789","0.4","0.8","0.2","0.6","0.2409900116","0.2443661227","0.4642289789","0.3944711005","","","","","","","","","","","","","","75","K","2","","","221","main_expt",""
"","bandit","301","715084","0.0-263.0-0.0","40866623","wem/bandit_party_1","A271BMHV42XZPU","either","7","29","","","","","","","0","0","1","","0.4641270597","0.4","0.8","0.2","0.6","0.1989678636","0.2205922116","0.4641270597","0.3619306912","","","","","","","","","","","","","","75","K","2","","","222","main_expt",""
"","bandit","302","717107","0.0-264.0-0.0","40866623","wem/bandit_party_1","A271BMHV42XZPU","either","7","502","","","","","","","0","0","1","0.4697433819","","0.4","0.8","0.2","0.6","","","","","0.1902867071","0.1861223506","0.4697433819","0.4117842179","","","","","","","","","","75","K","2","","","223","main_expt",""
"","bandit","303","718631","0.0-265.0-0.0","40866623","wem/bandit_party_1","A271BMHV42XZPU","either","7","2","","","","","","","0","1","0","","0.460898083","0.4","0.8","0.2","0.6","0.2076415522","0.1668884863","0.460898083","0.3965092367","","","","","","","","","","","","","","75","K","2","","","224","main_expt",""
"","bandit","304","720522","0.0-266.0-0.0","40866623","wem/bandit_party_1","A271BMHV42XZPU","either","7","370","","","","","","","1","0","0","0.4394890665","","0.4","0.8","0.2","0.6","","","","","0.2393469174","0.1481472712","0.4394890665","0.4084477862","","","","","","","","","","75","K","2","","","225","main_expt",""
"","bandit","305","722289","0.0-267.0-0.0","40866623","wem/bandit_party_1","A271BMHV42XZPU","either","7","243","","","","","","","0","1","0","","0.4520955237","0.4","0.8","0.2","0.6","0.2425440376","0.1140846591","0.4520955237","0.4104601526","","","","","","","","","","","","","","75","K","2","","","226","main_expt",""
"","bandit","306","723984","0.0-268.0-0.0","40866623","wem/bandit_party_1","A271BMHV42XZPU","either","7","174","","","","","","","0","1","0","","0.4324220164","0.4","0.8","0.2","0.6","0.2365603363","0.1074218354","0.4324220164","0.3899733519","","","","","","","","","","","","","","75","K","2","","","227","main_expt",""
"","bandit","307","725703","0.0-269.0-0.0","40866623","wem/bandit_party_1","A271BMHV42XZPU","either","7","196","","","","","","","0","1","0","","0.4220482421","0.4","0.8","0.2","0.6","0.2127958296","0.08065165665","0.4220482421","0.3796730737","","","","","","","","","","","","","","75","K","2","","","228","main_expt",""
"","bandit","308","727486","0.0-270.0-0.0","40866623","wem/bandit_party_1","A271BMHV42XZPU","either","7","262","","","","","","","0","1","0","","0.3885749154","0.4","0.8","0.2","0.6","0.2207861463","0.07774059362","0.3885749154","0.4046866514","","","","","","","","","","","","","","75","K","2","","","229","main_expt",""
"","bandit","309","729210","0.0-271.0-0.0","40866623","wem/bandit_party_1","A271BMHV42XZPU","either","7","196","","","","","","","0","0","1","","0.4023755806","0.4","0.8","0.2","0.6","0.2589226453","0.1109483114","0.4023755806","0.3988793555","","","","","","","","","","","","","","75","K","2","","","230","main_expt",""
"","bandit","310","730975","0.0-272.0-0.0","40866623","wem/bandit_party_1","A271BMHV42XZPU","either","7","242","","","","","","","0","1","0","","0.3768725222","0.4","0.8","0.2","0.6","0.2956158432","0.05902300203","0.3768725222","0.3981898202","","","","","","","","","","","","","","75","K","2","","","231","main_expt",""
"","bandit","311","732696","0.0-273.0-0.0","40866623","wem/bandit_party_1","A271BMHV42XZPU","either","7","201","","","","","","","0","0","1","0.3619917427","","0.4","0.8","0.2","0.6","","","","","0.3202484073","0.06675855664","0.3619917427","0.4411941832","","","","","","","","","","75","K","2","","","232","main_expt",""
"","bandit","312","734389","0.0-274.0-0.0","40866623","wem/bandit_party_1","A271BMHV42XZPU","either","7","174","","","","","","","0","0","1","","0.3833578816","0.4","0.8","0.2","0.6","0.2933644042","0.06703699679","0.3833578816","0.42967461","","","","","","","","","","","","","","75","K","2","","","233","main_expt",""
"","bandit","313","736089","0.0-275.0-0.0","40866623","wem/bandit_party_1","A271BMHV42XZPU","either","7","179","","","","","","","1","0","0","0.3552131768","","0.4","0.8","0.2","0.6","","","","","0.3106154811","0.05331023031","0.3552131768","0.4242798354","","","","","","","","","","75","K","2","","","234","main_expt",""
"","bandit","314","737723","0.0-276.0-0.0","40866623","wem/bandit_party_1","A271BMHV42XZPU","either","7","112","","","","","","","0","0","1","","0.3135084543","0.4","0.8","0.2","0.6","0.3158990995","0.05187545802","0.3135084543","0.4617388459","","","","","","","","","","","","","","75","K","2","","","235","main_expt",""
"","bandit","315","739336","0.0-277.0-0.0","40866623","wem/bandit_party_1","A271BMHV42XZPU","either","7","91","","","","","","","0","1","0","","0.244945467","0.4","0.8","0.2","0.6","0.3036927748","0.06939909985","0.244945467","0.4619510484","","","","","","","","","","","","","","75","K","2","","","236","main_expt",""
"","bandit","316","741086","0.0-278.0-0.0","40866623","wem/bandit_party_1","A271BMHV42XZPU","either","7","230","","","","","","","0","0","1","0.1823839079","","0.4","0.8","0.2","0.6","","","","","0.3491021326","0.1210409879","0.1823839079","0.4482398789","","","","","","","","","","75","K","2","","","237","main_expt",""
