"consent","trial_type","trial_index","time_elapsed","internal_node_id","subjID","study","MID","cond","drift","rt","responses","button_pressed","key_press","like","value","connected","gems","bombs","no_reward","GemPrChosen","BombPrChosen","GainOverPainPr_0","GainOverPainPr_1","GainOverPainPr_2","GainOverPainPr_3","LosePr_0","LosePr_1","LosePr_2","LosePr_3","WinPr_0","WinPr_1","WinPr_2","WinPr_3","Q0","Q1","Q2","gender","age","ethnicity","label","expt_phase","target","respCharCode","respKey","respChoiceNum","respChoice","practice","trial_counter","trial_label","Q0_index","view_history"
"GDM/GDM_behavioral_consent_30min_online.html","consent","0","25702","0.0-0.0","41573508","wem/bandit_party_1","ABS3F4WC2JSRG","either","7","","","","","","","","","","","","","","","","","","","","","","","","","","","","","","","","","","","","","","","","","",""
"","survey-text","1","33416","0.0-1.0","41573508","wem/bandit_party_1","ABS3F4WC2JSRG","either","7","6677","{""Q0"":""ABS3F4WC2JSRG""}","","","","","","","","","","","","","","","","","","","","","","","","","","","","","","","","","","","","","","","",""
"","button-response","2","36867","0.0-2.0","41573508","wem/bandit_party_1","ABS3F4WC2JSRG","either","7","2428","","0","","","","","","","","","","","","","","","","","","","","","","","","","","","","","","","","","","","","","","",""
"","text-replacement","3","48542","0.0-3.0","41573508","wem/bandit_party_1","ABS3F4WC2JSRG","either","7","10664","","","32","","","","","","","","","","","","","","","","","","","","","","","","","","","","","","","","","","","","","",""
"","text-replacement","4","64304","0.0-4.0","41573508","wem/bandit_party_1","ABS3F4WC2JSRG","either","7","15754","","","32","","","","","","","","","","","","","","","","","","","","","","","","","","","","","","","","","","","","","",""
"","identification","5","73613","0.0-6.0-0.0","41573508","wem/bandit_party_1","ABS3F4WC2JSRG","either","7","9251","","","","5","5","5","","","","","","","","","","","","","","","","","","","","","","","","pre","identification_pre","the Republican party","","","","","","","","",""
"","identification","6","80513","0.0-6.0-1.0","41573508","wem/bandit_party_1","ABS3F4WC2JSRG","either","7","5846","","","","0","0","0","","","","","","","","","","","","","","","","","","","","","","","","pre","identification_pre","the Democratic Party","","","","","","","","",""
"","text-replacement","7","103227","0.0-7.0","41573508","wem/bandit_party_1","ABS3F4WC2JSRG","either","7","21692","","","32","","","","","","","","","","","","","","","","","","","","","","","","","","","","","","","","","","","","","",""
"","text-replacement","8","122351","0.0-8.0","41573508","wem/bandit_party_1","ABS3F4WC2JSRG","either","7","19111","","","32","","","","","","","","","","","","","","","","","","","","","","","","","","","","","","","","","","","","","",""
"","text-replacement","9","130388","0.0-9.0","41573508","wem/bandit_party_1","ABS3F4WC2JSRG","either","7","8027","","","32","","","","","","","","","","","","","","","","","","","","","","","","","","","","","","","","","","","","","",""
"","text-replacement","10","134454","0.0-10.0","41573508","wem/bandit_party_1","ABS3F4WC2JSRG","either","7","4058","","","32","","","","","","","","","","","","","","","","","","","","","","","","","","","","","","","","","","","","","",""
"","text-replacement","11","138205","0.0-11.0","41573508","wem/bandit_party_1","ABS3F4WC2JSRG","either","7","3746","","","32","","","","","","","","","","","","","","","","","","","","","","","","","","","","","","","","","","","","","",""
"","bandit","12","142423","0.0-12.0-0.0","41573508","wem/bandit_party_1","ABS3F4WC2JSRG","either","7","2668","","","","","","","0","0","1","0","0","","","","","0","","","","0","","","","","","","","","","","","","74","J","0","img/none_selected_demo.jpg","true","0","","",""
"","bandit","13","146020","0.0-13.0-0.0","41573508","wem/bandit_party_1","ABS3F4WC2JSRG","either","7","2052","","","","","","","0","0","1","0","0","","","","","0","","","","0","","","","","","","","","","","","","75","K","0","img/none_selected_demo.jpg","true","0","","",""
"","text-replacement","14","152688","0.0-14.0","41573508","wem/bandit_party_1","ABS3F4WC2JSRG","either","7","6662","","","32","","","","","","","","","","","","","","","","","","","","","","","","","","","","","","","","","","","","","",""
"","text-replacement","15","157534","0.0-15.0","41573508","wem/bandit_party_1","ABS3F4WC2JSRG","either","7","4841","","","32","","","","","","","","","","","","","","","","","","","","","","","","","","","","","","","","","","","","","",""
"","text-replacement","16","163078","0.0-16.0","41573508","wem/bandit_party_1","ABS3F4WC2JSRG","either","7","5540","","","32","","","","","","","","","","","","","","","","","","","","","","","","","","","","","","","","","","","","","",""
"","text-replacement","17","167058","0.0-17.0","41573508","wem/bandit_party_1","ABS3F4WC2JSRG","either","7","3975","","","32","","","","","","","","","","","","","","","","","","","","","","","","","","","","","","","","","","","","","",""
"","bandit","18","170471","0.0-18.0-0.0","41573508","wem/bandit_party_1","ABS3F4WC2JSRG","either","7","1879","","","","","","","0","0","1","0.2","","0.5","0.5","","","","","","","0.8","0.2","","","","","","","","","","","","75","K","1","","true","0","80_20_practice","",""
"","bandit","19","175073","0.0-18.0-1.0","41573508","wem/bandit_party_1","ABS3F4WC2JSRG","either","7","3058","","","","","","","0","0","1","","0.2","0.5","0.5","","","0.8","0.2","","","","","","","","","","","","","","","","75","K","1","","true","0","80_20_practice","",""
"","bandit","20","177204","0.0-18.0-2.0","41573508","wem/bandit_party_1","ABS3F4WC2JSRG","either","7","593","","","","","","","1","0","0","0.8","","0.5","0.5","","","","","","","0.8","0.2","","","","","","","","","","","","74","J","0","img/none_selected_demo.jpg","true","0","80_20_practice","",""
"","bandit","21","179793","0.0-18.0-3.0","41573508","wem/bandit_party_1","ABS3F4WC2JSRG","either","7","1040","","","","","","","0","1","0","","0.2","0.5","0.5","","","0.8","0.2","","","","","","","","","","","","","","","","75","K","1","","true","0","80_20_practice","",""
"","bandit","22","181928","0.0-18.0-4.0","41573508","wem/bandit_party_1","ABS3F4WC2JSRG","either","7","599","","","","","","","0","1","0","","0.8","0.5","0.5","","","0.8","0.2","","","","","","","","","","","","","","","","74","J","0","img/none_selected_demo.jpg","true","0","80_20_practice","",""
"","bandit","23","184064","0.0-18.0-5.0","41573508","wem/bandit_party_1","ABS3F4WC2JSRG","either","7","584","","","","","","","1","0","0","0.8","","0.5","0.5","","","","","","","0.8","0.2","","","","","","","","","","","","74","J","0","img/none_selected_demo.jpg","true","0","80_20_practice","",""
"","bandit","24","186149","0.0-18.0-6.0","41573508","wem/bandit_party_1","ABS3F4WC2JSRG","either","7","534","","","","","","","0","1","0","","0.8","0.5","0.5","","","0.8","0.2","","","","","","","","","","","","","","","","74","J","0","img/none_selected_demo.jpg","true","0","80_20_practice","",""
"","bandit","25","188108","0.0-18.0-7.0","41573508","wem/bandit_party_1","ABS3F4WC2JSRG","either","7","423","","","","","","","0","1","0","","0.2","0.5","0.5","","","0.8","0.2","","","","","","","","","","","","","","","","75","K","1","","true","0","80_20_practice","",""
"","bandit","26","190028","0.0-18.0-8.0","41573508","wem/bandit_party_1","ABS3F4WC2JSRG","either","7","369","","","","","","","1","0","0","0.8","","0.5","0.5","","","","","","","0.8","0.2","","","","","","","","","","","","74","J","0","img/none_selected_demo.jpg","true","0","80_20_practice","",""
"","bandit","27","192033","0.0-18.0-9.0","41573508","wem/bandit_party_1","ABS3F4WC2JSRG","either","7","459","","","","","","","1","0","0","0.8","","0.5","0.5","","","","","","","0.8","0.2","","","","","","","","","","","","74","J","0","img/none_selected_demo.jpg","true","0","80_20_practice","",""
"","bandit","28","193949","0.0-18.0-10.0","41573508","wem/bandit_party_1","ABS3F4WC2JSRG","either","7","373","","","","","","","0","0","1","","0.2","0.5","0.5","","","0.8","0.2","","","","","","","","","","","","","","","","75","K","1","","true","0","80_20_practice","",""
"","bandit","29","195866","0.0-18.0-11.0","41573508","wem/bandit_party_1","ABS3F4WC2JSRG","either","7","366","","","","","","","0","0","1","","0.2","0.5","0.5","","","0.8","0.2","","","","","","","","","","","","","","","","75","K","1","","true","0","80_20_practice","",""
"","bandit","30","197857","0.0-18.0-12.0","41573508","wem/bandit_party_1","ABS3F4WC2JSRG","either","7","441","","","","","","","1","0","0","0.8","","0.5","0.5","","","","","","","0.8","0.2","","","","","","","","","","","","74","J","0","img/none_selected_demo.jpg","true","0","80_20_practice","",""
"","bandit","31","200974","0.0-18.0-13.0","41573508","wem/bandit_party_1","ABS3F4WC2JSRG","either","7","1569","","","","","","","0","0","1","0.8","","0.5","0.5","","","","","","","0.8","0.2","","","","","","","","","","","","74","J","0","img/none_selected_demo.jpg","true","0","80_20_practice","",""
"","bandit","32","202924","0.0-18.0-14.0","41573508","wem/bandit_party_1","ABS3F4WC2JSRG","either","7","398","","","","","","","0","1","0","","0.2","0.5","0.5","","","0.8","0.2","","","","","","","","","","","","","","","","75","K","1","","true","0","80_20_practice","",""
"","bandit","33","204994","0.0-18.0-15.0","41573508","wem/bandit_party_1","ABS3F4WC2JSRG","either","7","518","","","","","","","0","1","0","","0.8","0.5","0.5","","","0.8","0.2","","","","","","","","","","","","","","","","74","J","0","img/none_selected_demo.jpg","true","0","80_20_practice","",""
"","bandit","34","206987","0.0-18.0-16.0","41573508","wem/bandit_party_1","ABS3F4WC2JSRG","either","7","453","","","","","","","1","0","0","0.8","","0.5","0.5","","","","","","","0.8","0.2","","","","","","","","","","","","74","J","0","img/none_selected_demo.jpg","true","0","80_20_practice","",""
"","bandit","35","209007","0.0-18.0-17.0","41573508","wem/bandit_party_1","ABS3F4WC2JSRG","either","7","465","","","","","","","0","1","0","","0.8","0.5","0.5","","","0.8","0.2","","","","","","","","","","","","","","","","74","J","0","img/none_selected_demo.jpg","true","0","80_20_practice","",""
"","bandit","36","210846","0.0-18.0-18.0","41573508","wem/bandit_party_1","ABS3F4WC2JSRG","either","7","295","","","","","","","0","0","1","","0.2","0.5","0.5","","","0.8","0.2","","","","","","","","","","","","","","","","75","K","1","","true","0","80_20_practice","",""
"","bandit","37","212661","0.0-18.0-19.0","41573508","wem/bandit_party_1","ABS3F4WC2JSRG","either","7","278","","","","","","","0","0","1","0.2","","0.5","0.5","","","","","","","0.8","0.2","","","","","","","","","","","","75","K","1","","true","0","80_20_practice","",""
"","text-replacement","38","215872","0.0-19.0","41573508","wem/bandit_party_1","ABS3F4WC2JSRG","either","7","3207","","","32","","","","","","","","","","","","","","","","","","","","","","","","","","","","","","","","","","","","","",""
"","bandit","39","219436","0.0-20.0-0.0","41573508","wem/bandit_party_1","ABS3F4WC2JSRG","either","7","2020","","","","","","","1","0","0","1","0","","","","","0","1","","","1","0","","","","","","","","","","","","74","J","0","img/none_selected_demo.jpg","true","0","","",""
"","text-replacement","40","225895","0.0-21.0","41573508","wem/bandit_party_1","ABS3F4WC2JSRG","either","7","6448","","","32","","","","","","","","","","","","","","","","","","","","","","","","","","","","","","","","","","","","","",""
"","text-replacement","41","229740","0.0-22.0","41573508","wem/bandit_party_1","ABS3F4WC2JSRG","either","7","3840","","","32","","","","","","","","","","","","","","","","","","","","","","","","","","","","","","","","","","","","","",""
"","text-replacement","42","232987","0.0-23.0","41573508","wem/bandit_party_1","ABS3F4WC2JSRG","either","7","3241","","","32","","","","","","","","","","","","","","","","","","","","","","","","","","","","","","","","","","","","","",""
"","text-replacement","43","235606","0.0-24.0","41573508","wem/bandit_party_1","ABS3F4WC2JSRG","either","7","2614","","","32","","","","","","","","","","","","","","","","","","","","","","","","","","","","","","","","","","","","","",""
"","text-replacement","44","239742","0.0-25.0","41573508","wem/bandit_party_1","ABS3F4WC2JSRG","either","7","4130","","","32","","","","","","","","","","","","","","","","","","","","","","","","","","","","","","","","","","","","","",""
"","text-replacement","45","242387","0.0-26.0","41573508","wem/bandit_party_1","ABS3F4WC2JSRG","either","7","2639","","","32","","","","","","","","","","","","","","","","","","","","","","","","","","","","","","","","","","","","","",""
"","text-replacement","46","245658","0.0-27.0","41573508","wem/bandit_party_1","ABS3F4WC2JSRG","either","7","3265","","","32","","","","","","","","","","","","","","","","","","","","","","","","","","","","","","","","","","","","","",""
"","text-replacement","47","248015","0.0-28.0","41573508","wem/bandit_party_1","ABS3F4WC2JSRG","either","7","2352","","","32","","","","","","","","","","","","","","","","","","","","","","","","","","","","","","","","","","","","","",""
"","text-replacement","48","250952","0.0-29.0","41573508","wem/bandit_party_1","ABS3F4WC2JSRG","either","7","2931","","","32","","","","","","","","","","","","","","","","","","","","","","","","","","","","","","","","","","","","","",""
"","text-replacement","49","252805","0.0-30.0","41573508","wem/bandit_party_1","ABS3F4WC2JSRG","either","7","1847","","","32","","","","","","","","","","","","","","","","","","","","","","","","","","","","","","","","","","","","","",""
"","text-replacement","50","254864","0.0-31.0","41573508","wem/bandit_party_1","ABS3F4WC2JSRG","either","7","2053","","","32","","","","","","","","","","","","","","","","","","","","","","","","","","","","","","","","","","","","","",""
"","bandit","51","258170","0.0-32.0-0.0","41573508","wem/bandit_party_1","ABS3F4WC2JSRG","either","7","1775","","","","","","","1","0","0","0.8","","0.5","0.5","0.5","0.5","","","","","0.8","0.2","0.6","0.2","","","","","","","","","","72","H","0","img/none_selected.jpg","true","0","full_practice","",""
"","bandit","52","262094","0.0-32.0-1.0","41573508","wem/bandit_party_1","ABS3F4WC2JSRG","either","7","2371","","","","","","","0","1","0","","0.2","0.5","0.5","0.5","0.5","0.8","0.2","0.6","0.2","","","","","","","","","","","","","","74","J","1","","true","0","full_practice","",""
"","bandit","53","264044","0.0-32.0-2.0","41573508","wem/bandit_party_1","ABS3F4WC2JSRG","either","7","419","","","","","","","1","0","0","0.6","","0.5","0.5","0.5","0.5","","","","","0.8","0.2","0.6","0.2","","","","","","","","","","75","K","2","","true","0","full_practice","",""
"","bandit","54","266048","0.0-32.0-3.0","41573508","wem/bandit_party_1","ABS3F4WC2JSRG","either","7","467","","","","","","","0","0","1","","0.2","0.5","0.5","0.5","0.5","0.8","0.2","0.6","0.2","","","","","","","","","","","","","","76","L","3","","true","0","full_practice","",""
"","bandit","55","268845","0.0-32.0-4.0","41573508","wem/bandit_party_1","ABS3F4WC2JSRG","either","7","1255","","","","","","","0","1","0","","0.8","0.5","0.5","0.5","0.5","0.8","0.2","0.6","0.2","","","","","","","","","","","","","","72","H","0","img/none_selected.jpg","true","0","full_practice","",""
"","bandit","56","270640","0.0-32.0-5.0","41573508","wem/bandit_party_1","ABS3F4WC2JSRG","either","7","245","","","","","","","0","0","1","","0.2","0.5","0.5","0.5","0.5","0.8","0.2","0.6","0.2","","","","","","","","","","","","","","74","J","1","","true","0","full_practice","",""
"","bandit","57","274333","0.0-32.0-6.0","41573508","wem/bandit_party_1","ABS3F4WC2JSRG","either","7","2160","","","","","","","0","1","0","","0.6","0.5","0.5","0.5","0.5","0.8","0.2","0.6","0.2","","","","","","","","","","","","","","75","K","2","","true","0","full_practice","",""
"","bandit","58","276248","0.0-32.0-7.0","41573508","wem/bandit_party_1","ABS3F4WC2JSRG","either","7","382","","","","","","","0","0","1","0.2","","0.5","0.5","0.5","0.5","","","","","0.8","0.2","0.6","0.2","","","","","","","","","","76","L","3","","true","0","full_practice","",""
"","bandit","59","278971","0.0-32.0-8.0","41573508","wem/bandit_party_1","ABS3F4WC2JSRG","either","7","1195","","","","","","","0","0","1","","0.8","0.5","0.5","0.5","0.5","0.8","0.2","0.6","0.2","","","","","","","","","","","","","","72","H","0","img/none_selected.jpg","true","0","full_practice","",""
"","bandit","60","280873","0.0-32.0-9.0","41573508","wem/bandit_party_1","ABS3F4WC2JSRG","either","7","355","","","","","","","0","0","1","0.2","","0.5","0.5","0.5","0.5","","","","","0.8","0.2","0.6","0.2","","","","","","","","","","74","J","1","","true","0","full_practice","",""
"","bandit","61","282656","0.0-32.0-10.0","41573508","wem/bandit_party_1","ABS3F4WC2JSRG","either","7","251","","","","","","","0","0","1","","0.6","0.5","0.5","0.5","0.5","0.8","0.2","0.6","0.2","","","","","","","","","","","","","","75","K","2","","true","0","full_practice","",""
"","bandit","62","284522","0.0-32.0-11.0","41573508","wem/bandit_party_1","ABS3F4WC2JSRG","either","7","314","","","","","","","1","0","0","0.2","","0.5","0.5","0.5","0.5","","","","","0.8","0.2","0.6","0.2","","","","","","","","","","76","L","3","","true","0","full_practice","",""
"","bandit","63","287585","0.0-32.0-12.0","41573508","wem/bandit_party_1","ABS3F4WC2JSRG","either","7","1521","","","","","","","0","0","1","0.8","","0.5","0.5","0.5","0.5","","","","","0.8","0.2","0.6","0.2","","","","","","","","","","72","H","0","img/none_selected.jpg","true","0","full_practice","",""
"","bandit","64","289733","0.0-32.0-13.0","41573508","wem/bandit_party_1","ABS3F4WC2JSRG","either","7","595","","","","","","","0","0","1","","0.2","0.5","0.5","0.5","0.5","0.8","0.2","0.6","0.2","","","","","","","","","","","","","","74","J","1","","true","0","full_practice","",""
"","bandit","65","291599","0.0-32.0-14.0","41573508","wem/bandit_party_1","ABS3F4WC2JSRG","either","7","292","","","","","","","1","0","0","0.6","","0.5","0.5","0.5","0.5","","","","","0.8","0.2","0.6","0.2","","","","","","","","","","75","K","2","","true","0","full_practice","",""
"","bandit","66","293157","0.0-32.0-15.0","41573508","wem/bandit_party_1","ABS3F4WC2JSRG","either","7","16","","","","","","","0","0","1","","0.2","0.5","0.5","0.5","0.5","0.8","0.2","0.6","0.2","","","","","","","","","","","","","","76","L","3","","true","0","full_practice","",""
"","bandit","67","295344","0.0-32.0-16.0","41573508","wem/bandit_party_1","ABS3F4WC2JSRG","either","7","641","","","","","","","0","0","1","0.8","","0.5","0.5","0.5","0.5","","","","","0.8","0.2","0.6","0.2","","","","","","","","","","72","H","0","img/none_selected.jpg","true","0","full_practice","",""
"","bandit","68","297865","0.0-32.0-17.0","41573508","wem/bandit_party_1","ABS3F4WC2JSRG","either","7","971","","","","","","","0","1","0","","0.2","0.5","0.5","0.5","0.5","0.8","0.2","0.6","0.2","","","","","","","","","","","","","","74","J","1","","true","0","full_practice","",""
"","bandit","69","299684","0.0-32.0-18.0","41573508","wem/bandit_party_1","ABS3F4WC2JSRG","either","7","272","","","","","","","0","0","1","0.6","","0.5","0.5","0.5","0.5","","","","","0.8","0.2","0.6","0.2","","","","","","","","","","75","K","2","","true","0","full_practice","",""
"","bandit","70","301832","0.0-32.0-19.0","41573508","wem/bandit_party_1","ABS3F4WC2JSRG","either","7","608","","","","","","","0","0","1","","0.2","0.5","0.5","0.5","0.5","0.8","0.2","0.6","0.2","","","","","","","","","","","","","","76","L","3","","true","0","full_practice","",""
"","text","71","305521","0.0-33.0","41573508","wem/bandit_party_1","ABS3F4WC2JSRG","either","7","3677","","","32","","","","","","","","","","","","","","","","","","","","","","","","","","","","","","","","","","","","","",""
"","text-replacement","72","316389","0.0-34.0","41573508","wem/bandit_party_1","ABS3F4WC2JSRG","either","7","9848","","","32","","","","","","","","","","","","","","","","","","","","","","","","","","","","","","","","","","","","","",""
"","text-replacement","73","320383","0.0-35.0","41573508","wem/bandit_party_1","ABS3F4WC2JSRG","either","7","3987","","","32","","","","","","","","","","","","","","","","","","","","","","","","","","","","","","","","","","","","","",""
"","text-replacement","74","322179","0.0-36.0","41573508","wem/bandit_party_1","ABS3F4WC2JSRG","either","7","1789","","","32","","","","","","","","","","","","","","","","","","","","","","","","","","","","","","","","","","","","","",""
"","text-replacement","75","323469","0.0-37.0","41573508","wem/bandit_party_1","ABS3F4WC2JSRG","either","7","1284","","","32","","","","","","","","","","","","","","","","","","","","","","","","","","","","","","","","","","","","","",""
"","text-replacement","76","327021","0.0-38.0","41573508","wem/bandit_party_1","ABS3F4WC2JSRG","either","7","3545","","","32","","","","","","","","","","","","","","","","","","","","","","","","","","","","","","","","","","","","","",""
"","survey-multi-choice-replacement","77","348321","0.0-39.0-0.0","41573508","wem/bandit_party_1","ABS3F4WC2JSRG","either","7","21272","","","","","","","","","","","","","","","","","","","","","","","","Money will be added to the pool for <span style='color:red;'>REPUBLICANS</span>","","","","","","","attn_check","","","","","","","","","0",""
"","survey-multi-choice-replacement","78","358788","0.0-40.0-0.0","41573508","wem/bandit_party_1","ABS3F4WC2JSRG","either","7","9427","","","","","","","","","","","","","","","","","","","","","","","","Money will be subtracted from the pool for <span style='color:blue;'>DEMOCRATS</span>","","","","","","","attn_check","","","","","","","","","1",""
"","instructions","79","362347","0.0-40.0-1.0-0.0","41573508","wem/bandit_party_1","ABS3F4WC2JSRG","either","7","2543","","","","","","","","","","","","","","","","","","","","","","","","","","","","","","","","","","","","","","","","","[{""page_index"":0,""viewing_time"":2542}]"
"","survey-multi-choice-replacement","80","366576","0.0-40.1-0.1","41573508","wem/bandit_party_1","ABS3F4WC2JSRG","either","7","3193","","","","","","","","","","","","","","","","","","","","","","","","Equal amounts of money will be added to the pool for <span style='color:red;'>REPUBLICANS</span> and subtracted from the pool for <span style='color:blue;'>DEMOCRATS</span>","","","","","","","attn_check","","","","","","","","","2",""
"","survey-multi-choice-replacement","81","372705","0.0-41.0-0.0","41573508","wem/bandit_party_1","ABS3F4WC2JSRG","either","7","5104","","","","","","","","","","","","","","","","","","","","","","","","No money will be added to either pool","","","","","","","attn_check","","","","","","","","","3",""
"","bandit","82","379363","0.0-42.0-0.0","41573508","wem/bandit_party_1","ABS3F4WC2JSRG","either","7","4110","","","","","","","0","0","1","","0.01738065524","0.4","0.2","0.8","0.6","0.1952616071","0.01738065524","0.1480066451","0.06530018083","","","","","","","","","","","","","","74","J","1","","","1","main_expt","",""
"","bandit","83","382639","0.0-43.0-0.0","41573508","wem/bandit_party_1","ABS3F4WC2JSRG","either","7","1721","","","","","","","0","0","1","0.1652234336","","0.4","0.2","0.8","0.6","","","","","0.1652234336","0.0196943787","0.1053714073","0.1011701763","","","","","","","","","","72","H","0","img/none_selected.jpg","","2","main_expt","",""
"","bandit","84","385804","0.0-44.0-0.0","41573508","wem/bandit_party_1","ABS3F4WC2JSRG","either","7","1608","","","","","","","0","0","1","0.09486719381","","0.4","0.2","0.8","0.6","","","","","0.1347382479","0.01678573497","0.1460078221","0.09486719381","","","","","","","","","","76","L","3","","","3","main_expt","",""
"","bandit","85","387782","0.0-45.0-0.0","41573508","wem/bandit_party_1","ABS3F4WC2JSRG","either","7","431","","","","","","","0","0","1","0.1866138214","","0.4","0.2","0.8","0.6","","","","","0.1684625442","0.02981965743","0.1866138214","0.06705802814","","","","","","","","","","75","K","2","","","4","main_expt","",""
"","bandit","86","391055","0.0-46.0-0.0","41573508","wem/bandit_party_1","ABS3F4WC2JSRG","either","7","1732","","","","","","","0","0","1","","0.0822298525","0.4","0.2","0.8","0.6","0.1792029032","0.02600208211","0.2445348717","0.0822298525","","","","","","","","","","","","","","76","L","3","","","5","main_expt","",""
"","bandit","87","393187","0.0-47.0-0.0","41573508","wem/bandit_party_1","ABS3F4WC2JSRG","either","7","582","","","","","","","0","0","1","","0.2153873139","0.4","0.2","0.8","0.6","0.2153873139","0.02332436933","0.2546962146","0.09162209411","","","","","","","","","","","","","","72","H","0","img/none_selected.jpg","","6","main_expt","",""
"","bandit","88","395298","0.0-48.0-0.0","41573508","wem/bandit_party_1","ABS3F4WC2JSRG","either","7","568","","","","","","","0","0","1","0.2344841702","","0.4","0.2","0.8","0.6","","","","","0.1757762721","0.02864040813","0.2344841702","0.1028820098","","","","","","","","","","75","K","2","","","7","main_expt","",""
"","bandit","89","397262","0.0-49.0-0.0","41573508","wem/bandit_party_1","ABS3F4WC2JSRG","either","7","424","","","","","","","0","0","1","0.02951264166","","0.4","0.2","0.8","0.6","","","","","0.2241229746","0.02951264166","0.2473344203","0.1532270122","","","","","","","","","","74","J","1","","","8","main_expt","",""
"","bandit","90","399181","0.0-50.0-0.0","41573508","wem/bandit_party_1","ABS3F4WC2JSRG","either","7","380","","","","","","","0","0","1","","0.02997011939","0.4","0.2","0.8","0.6","0.2199426203","0.02997011939","0.2642160399","0.2131450397","","","","","","","","","","","","","","74","J","1","","","9","main_expt","",""
"","bandit","91","401107","0.0-51.0-0.0","41573508","wem/bandit_party_1","ABS3F4WC2JSRG","either","7","373","","","","","","","1","0","0","0.1520686932","","0.4","0.2","0.8","0.6","","","","","0.1520686932","0.02489651457","0.2104627424","0.2985754635","","","","","","","","","","72","H","0","img/none_selected.jpg","","10","main_expt","",""
"","bandit","92","403484","0.0-52.0-0.0","41573508","wem/bandit_party_1","ABS3F4WC2JSRG","either","7","837","","","","","","","0","0","1","","0.2924640086","0.4","0.2","0.8","0.6","0.2013349999","0.01651058827","0.219372878","0.2924640086","","","","","","","","","","","","","","76","L","3","","","11","main_expt","",""
"","bandit","93","405372","0.0-53.0-0.0","41573508","wem/bandit_party_1","ABS3F4WC2JSRG","either","7","339","","","","","","","0","0","1","0.2105839871","","0.4","0.2","0.8","0.6","","","","","0.2156800105","0.02341729431","0.2105839871","0.3264291113","","","","","","","","","","75","K","2","","","12","main_expt","",""
"","bandit","94","408335","0.0-54.0-0.0","41573508","wem/bandit_party_1","ABS3F4WC2JSRG","either","7","1413","","","","","","","0","0","1","0.1833947696","","0.4","0.2","0.8","0.6","","","","","0.1833947696","0.0257410372","0.2511698571","0.3254913314","","","","","","","","","","72","H","0","img/none_selected.jpg","","13","main_expt","",""
"","bandit","95","410265","0.0-55.0-0.0","41573508","wem/bandit_party_1","ABS3F4WC2JSRG","either","7","382","","","","","","","0","0","1","","0.2158977649","0.4","0.2","0.8","0.6","0.243643366","0.02570014082","0.2158977649","0.3428504842","","","","","","","","","","","","","","75","K","2","","","14","main_expt","",""
"","bandit","96","412198","0.0-56.0-0.0","41573508","wem/bandit_party_1","ABS3F4WC2JSRG","either","7","384","","","","","","","0","0","1","0.04268316416","","0.4","0.2","0.8","0.6","","","","","0.2265365198","0.04268316416","0.2762480727","0.3244047679","","","","","","","","","","74","J","1","","","15","main_expt","",""
"","bandit","97","414148","0.0-57.0-0.0","41573508","wem/bandit_party_1","ABS3F4WC2JSRG","either","7","413","","","","","","","0","0","1","0.3025313629","","0.4","0.2","0.8","0.6","","","","","0.2484951132","0.04667408308","0.3202890724","0.3025313629","","","","","","","","","","76","L","3","","","16","main_expt","",""
"","bandit","98","416082","0.0-58.0-0.0","41573508","wem/bandit_party_1","ABS3F4WC2JSRG","either","7","378","","","","","","","0","0","1","","0.3291216938","0.4","0.2","0.8","0.6","0.2570267238","0.0506688767","0.3680552247","0.3291216938","","","","","","","","","","","","","","76","L","3","","","17","main_expt","",""
"","bandit","99","418711","0.0-59.0-0.0","41573508","wem/bandit_party_1","ABS3F4WC2JSRG","either","7","1072","","","","","","","0","0","1","","0.02988526167","0.4","0.2","0.8","0.6","0.287418789","0.02988526167","0.3968593921","0.2987881532","","","","","","","","","","","","","","74","J","1","","","18","main_expt","",""
"","bandit","100","420610","0.0-60.0-0.0","41573508","wem/bandit_party_1","ABS3F4WC2JSRG","either","7","360","","","","","","","0","0","1","0.4192996399","","0.4","0.2","0.8","0.6","","","","","0.2338710899","0.03476350355","0.4192996399","0.281207523","","","","","","","","","","75","K","2","","","19","main_expt","",""
"","bandit","101","422497","0.0-61.0-0.0","41573508","wem/bandit_party_1","ABS3F4WC2JSRG","either","7","346","","","","","","","0","0","1","0.2335293464","","0.4","0.2","0.8","0.6","","","","","0.2335293464","0.0233687216","0.4362768361","0.291129981","","","","","","","","","","72","H","0","img/none_selected.jpg","","20","main_expt","",""
"","bandit","102","424371","0.0-62.0-0.0","41573508","wem/bandit_party_1","ABS3F4WC2JSRG","either","7","332","","","","","","","0","0","1","","0.2434826965","0.4","0.2","0.8","0.6","0.2434826965","0.01272547494","0.4599691003","0.2729578326","","","","","","","","","","","","","","72","H","0","img/none_selected.jpg","","21","main_expt","",""
"","bandit","103","426228","0.0-63.0-0.0","41573508","wem/bandit_party_1","ABS3F4WC2JSRG","either","7","307","","","","","","","1","0","0","0.44353765","","0.4","0.2","0.8","0.6","","","","","0.2702300591","0.01739491555","0.44353765","0.2805141014","","","","","","","","","","75","K","2","","","22","main_expt","",""
"","bandit","104","428173","0.0-64.0-0.0","41573508","wem/bandit_party_1","ABS3F4WC2JSRG","either","7","391","","","","","","","0","0","1","","0.006692102231","0.4","0.2","0.8","0.6","0.2424740502","0.006692102231","0.4105594395","0.3016389313","","","","","","","","","","","","","","74","J","1","","","23","main_expt","",""
"","bandit","105","430275","0.0-65.0-0.0","41573508","wem/bandit_party_1","ABS3F4WC2JSRG","either","7","560","","","","","","","0","0","1","0.2475621169","","0.4","0.2","0.8","0.6","","","","","0.1754503809","0.01209419849","0.4243351486","0.2475621169","","","","","","","","","","76","L","3","","","24","main_expt","",""
"","bandit","106","432143","0.0-66.0-0.0","41573508","wem/bandit_party_1","ABS3F4WC2JSRG","either","7","317","","","","","","","0","0","1","0.4172780312","","0.4","0.2","0.8","0.6","","","","","0.2023019753","0.009734580702","0.4172780312","0.2607476102","","","","","","","","","","75","K","2","","","25","main_expt","",""
"","bandit","107","433952","0.0-67.0-0.0","41573508","wem/bandit_party_1","ABS3F4WC2JSRG","either","7","262","","","","","","","0","0","1","0.1887270612","","0.4","0.2","0.8","0.6","","","","","0.1887270612","0.008596148908","0.3981062588","0.292589008","","","","","","","","","","72","H","0","img/none_selected.jpg","","26","main_expt","",""
"","bandit","108","435791","0.0-68.0-0.0","41573508","wem/bandit_party_1","ABS3F4WC2JSRG","either","7","308","","","","","","","0","1","0","","0.2978950393","0.4","0.2","0.8","0.6","0.2526986378","0.01380650739","0.3889188119","0.2978950393","","","","","","","","","","","","","","76","L","3","","","27","main_expt","",""
"","bandit","109","437781","0.0-69.0-0.0","41573508","wem/bandit_party_1","ABS3F4WC2JSRG","either","7","451","","","","","","","0","0","1","0.01160852189","","0.4","0.2","0.8","0.6","","","","","0.2536033627","0.01160852189","0.3699095679","0.337392419","","","","","","","","","","74","J","1","","","28","main_expt","",""
"","bandit","110","439621","0.0-70.0-0.0","41573508","wem/bandit_party_1","ABS3F4WC2JSRG","either","7","299","","","","","","","0","1","0","","0.4087832773","0.4","0.2","0.8","0.6","0.258258936","0.02858314752","0.4087832773","0.3830759015","","","","","","","","","","","","","","75","K","2","","","29","main_expt","",""
"","bandit","111","441507","0.0-71.0-0.0","41573508","wem/bandit_party_1","ABS3F4WC2JSRG","either","7","336","","","","","","","0","0","1","0.3778881599","","0.4","0.2","0.8","0.6","","","","","0.3152574144","0.0265596094","0.4162513677","0.3778881599","","","","","","","","","","76","L","3","","","30","main_expt","",""
"","bandit","112","443377","0.0-72.0-0.0","41573508","wem/bandit_party_1","ABS3F4WC2JSRG","either","7","330","","","","","","","0","0","1","","0.02828816112","0.4","0.2","0.8","0.6","0.3508579725","0.02828816112","0.43337534","0.3585458117","","","","","","","","","","","","","","74","J","1","","","31","main_expt","",""
"","bandit","113","445257","0.0-73.0-0.0","41573508","wem/bandit_party_1","ABS3F4WC2JSRG","either","7","340","","","","","","","0","0","1","0.3511664436","","0.4","0.2","0.8","0.6","","","","","0.3902021543","0.03857304495","0.4399105216","0.3511664436","","","","","","","","","","76","L","3","","","32","main_expt","",""
"","bandit","114","447883","0.0-74.0-0.0","41573508","wem/bandit_party_1","ABS3F4WC2JSRG","either","7","1080","","","","","","","0","0","1","0.3859623535","","0.4","0.2","0.8","0.6","","","","","0.4112626521","0.02642959278","0.3859623535","0.3924960189","","","","","","","","","","75","K","2","","","33","main_expt","",""
"","bandit","115","449765","0.0-75.0-0.0","41573508","wem/bandit_party_1","ABS3F4WC2JSRG","either","7","335","","","","","","","0","0","1","","0.06800028167","0.4","0.2","0.8","0.6","0.3912589523","0.06800028167","0.4231921331","0.3713907517","","","","","","","","","","","","","","74","J","1","","","34","main_expt","",""
"","bandit","116","452820","0.0-76.0-0.0","41573508","wem/bandit_party_1","ABS3F4WC2JSRG","either","7","1502","","","","","","","0","0","1","","0.3663646496","0.4","0.2","0.8","0.6","0.3663646496","0.05710280771","0.3950458867","0.3929004689","","","","","","","","","","","","","","72","H","0","img/none_selected.jpg","","35","main_expt","",""
"","bandit","117","454904","0.0-77.0-0.0","41573508","wem/bandit_party_1","ABS3F4WC2JSRG","either","7","536","","","","","","","0","0","1","0.3820467604","","0.4","0.2","0.8","0.6","","","","","0.3045225128","0.07756943076","0.4005306787","0.3820467604","","","","","","","","","","76","L","3","","","36","main_expt","",""
"","bandit","118","457239","0.0-78.0-0.0","41573508","wem/bandit_party_1","ABS3F4WC2JSRG","either","7","799","","","","","","","0","0","1","","0.06074629621","0.4","0.2","0.8","0.6","0.2806474599","0.06074629621","0.3972735937","0.3948022939","","","","","","","","","","","","","","74","J","1","","","37","main_expt","",""
"","bandit","119","459140","0.0-79.0-0.0","41573508","wem/bandit_party_1","ABS3F4WC2JSRG","either","7","352","","","","","","","0","0","1","0.38339591","","0.4","0.2","0.8","0.6","","","","","0.3558759705","0.07063042774","0.38339591","0.3769579019","","","","","","","","","","75","K","2","","","38","main_expt","",""
"","bandit","120","461025","0.0-80.0-0.0","41573508","wem/bandit_party_1","ABS3F4WC2JSRG","either","7","335","","","","","","","0","1","0","","0.3194138052","0.4","0.2","0.8","0.6","0.3194138052","0.06209293178","0.3906354184","0.4030344636","","","","","","","","","","","","","","72","H","0","img/none_selected.jpg","","39","main_expt","",""
"","bandit","121","463095","0.0-81.0-0.0","41573508","wem/bandit_party_1","ABS3F4WC2JSRG","either","7","519","","","","","","","0","0","1","","0.3622335218","0.4","0.2","0.8","0.6","0.3549086085","0.06952578958","0.3623676206","0.3622335218","","","","","","","","","","","","","","76","L","3","","","40","main_expt","",""
"","bandit","122","465009","0.0-82.0-0.0","41573508","wem/bandit_party_1","ABS3F4WC2JSRG","either","7","374","","","","","","","0","1","0","","0.1291245709","0.4","0.2","0.8","0.6","0.3452113815","0.1291245709","0.3873704927","0.3911596719","","","","","","","","","","","","","","74","J","1","","","41","main_expt","",""
"","bandit","123","466867","0.0-83.0-0.0","41573508","wem/bandit_party_1","ABS3F4WC2JSRG","either","7","311","","","","","","","1","0","0","0.359823116","","0.4","0.2","0.8","0.6","","","","","0.3522960267","0.1174523948","0.359823116","0.3921858285","","","","","","","","","","75","K","2","","","42","main_expt","",""
"","bandit","124","468855","0.0-84.0-0.0","41573508","wem/bandit_party_1","ABS3F4WC2JSRG","either","7","451","","","","","","","1","0","0","0.3093122096","","0.4","0.2","0.8","0.6","","","","","0.3093122096","0.1201484523","0.3710191411","0.3831213528","","","","","","","","","","72","H","0","img/none_selected.jpg","","43","main_expt","",""
"","bandit","125","470711","0.0-85.0-0.0","41573508","wem/bandit_party_1","ABS3F4WC2JSRG","either","7","316","","","","","","","0","0","1","","0.3026159556","0.4","0.2","0.8","0.6","0.3026159556","0.09958360536","0.3874065465","0.3518708159","","","","","","","","","","","","","","72","H","0","img/none_selected.jpg","","44","main_expt","",""
"","bandit","126","472551","0.0-86.0-0.0","41573508","wem/bandit_party_1","ABS3F4WC2JSRG","either","7","312","","","","","","","0","0","1","0.3851533971","","0.4","0.2","0.8","0.6","","","","","0.3336294247","0.05173655998","0.3851533971","0.3122870636","","","","","","","","","","75","K","2","","","45","main_expt","",""
"","bandit","127","474419","0.0-87.0-0.0","41573508","wem/bandit_party_1","ABS3F4WC2JSRG","either","7","318","","","","","","","0","0","1","0.2635721956","","0.4","0.2","0.8","0.6","","","","","0.3400222736","0.05945041096","0.4055883719","0.2635721956","","","","","","","","","","76","L","3","","","46","main_expt","",""
"","bandit","128","476304","0.0-88.0-0.0","41573508","wem/bandit_party_1","ABS3F4WC2JSRG","either","7","334","","","","","","","0","0","1","","0.04375763727","0.4","0.2","0.8","0.6","0.328707825","0.04375763727","0.3671593179","0.2856785865","","","","","","","","","","","","","","74","J","1","","","47","main_expt","",""
"","bandit","129","478080","0.0-89.0-0.0","41573508","wem/bandit_party_1","ABS3F4WC2JSRG","either","7","221","","","","","","","0","0","1","0.3198203038","","0.4","0.2","0.8","0.6","","","","","0.3307690822","0.0666370861","0.3198203038","0.2649087478","","","","","","","","","","75","K","2","","","48","main_expt","",""
"","bandit","130","479869","0.0-90.0-0.0","41573508","wem/bandit_party_1","ABS3F4WC2JSRG","either","7","243","","","","","","","0","0","1","","0.3438067684","0.4","0.2","0.8","0.6","0.3438067684","0.08266213623","0.3111357295","0.2462979357","","","","","","","","","","","","","","72","H","0","img/none_selected.jpg","","49","main_expt","",""
"","bandit","131","481712","0.0-91.0-0.0","41573508","wem/bandit_party_1","ABS3F4WC2JSRG","either","7","313","","","","","","","0","0","1","0.2490076798","","0.4","0.2","0.8","0.6","","","","","0.4037002216","0.08795051988","0.3196682981","0.2490076798","","","","","","","","","","76","L","3","","","50","main_expt","",""
"","bandit","132","483610","0.0-92.0-0.0","41573508","wem/bandit_party_1","ABS3F4WC2JSRG","either","7","350","","","","","","","0","0","1","","0.07533366945","0.4","0.2","0.8","0.6","0.3557518394","0.07533366945","0.3088596379","0.305209751","","","","","","","","","","","","","","74","J","1","","","51","main_expt","",""
"","bandit","133","485393","0.0-93.0-0.0","41573508","wem/bandit_party_1","ABS3F4WC2JSRG","either","7","242","","","","","","","0","1","0","","0.3254324358","0.4","0.2","0.8","0.6","0.3254324358","0.06506638851","0.3060924957","0.3087204988","","","","","","","","","","","","","","72","H","0","img/none_selected.jpg","","52","main_expt","",""
"","bandit","134","487310","0.0-94.0-0.0","41573508","wem/bandit_party_1","ABS3F4WC2JSRG","either","7","382","","","","","","","0","0","1","0.3229319808","","0.4","0.2","0.8","0.6","","","","","0.2952150256","0.06562792832","0.3229319808","0.2984188648","","","","","","","","","","75","K","2","","","53","main_expt","",""
"","bandit","135","489303","0.0-95.0-0.0","41573508","wem/bandit_party_1","ABS3F4WC2JSRG","either","7","443","","","","","","","1","0","0","0.300320608","","0.4","0.2","0.8","0.6","","","","","0.300320608","0.04630081711","0.3280138586","0.3353917468","","","","","","","","","","72","H","0","img/none_selected.jpg","","54","main_expt","",""
"","bandit","136","491482","0.0-96.0-0.0","41573508","wem/bandit_party_1","ABS3F4WC2JSRG","either","7","626","","","","","","","0","0","1","","0.03868373719","0.4","0.2","0.8","0.6","0.2985084879","0.03868373719","0.2777260571","0.3259144651","","","","","","","","","","","","","","74","J","1","","","55","main_expt","",""
"","bandit","137","493293","0.0-97.0-0.0","41573508","wem/bandit_party_1","ABS3F4WC2JSRG","either","7","271","","","","","","","0","0","1","","0.2607009345","0.4","0.2","0.8","0.6","0.2607009345","0.06235362297","0.1791004868","0.3259049121","","","","","","","","","","","","","","72","H","0","img/none_selected.jpg","","56","main_expt","",""
"","bandit","138","495162","0.0-98.0-0.0","41573508","wem/bandit_party_1","ABS3F4WC2JSRG","either","7","323","","","","","","","0","0","1","","0.3687904078","0.4","0.2","0.8","0.6","0.2565854794","0.04639461243","0.2182265394","0.3687904078","","","","","","","","","","","","","","76","L","3","","","57","main_expt","",""
"","bandit","139","497187","0.0-99.0-0.0","41573508","wem/bandit_party_1","ABS3F4WC2JSRG","either","7","473","","","","","","","1","0","0","0.2970860181","","0.4","0.2","0.8","0.6","","","","","0.319121847","0.08954448139","0.2970860181","0.3422038875","","","","","","","","","","75","K","2","","","58","main_expt","",""
"","bandit","140","499055","0.0-100.0-0.0","41573508","wem/bandit_party_1","ABS3F4WC2JSRG","either","7","328","","","","","","","1","0","0","0.3771421139","","0.4","0.2","0.8","0.6","","","","","0.3269923399","0.07390342289","0.3249685468","0.3771421139","","","","","","","","","","76","L","3","","","59","main_expt","",""
"","bandit","141","501064","0.0-101.0-0.0","41573508","wem/bandit_party_1","ABS3F4WC2JSRG","either","7","459","","","","","","","0","0","1","","0.05801548519","0.4","0.2","0.8","0.6","0.3150968823","0.05801548519","0.2931470039","0.3620124399","","","","","","","","","","","","","","74","J","1","","","60","main_expt","",""
"","bandit","142","502915","0.0-102.0-0.0","41573508","wem/bandit_party_1","ABS3F4WC2JSRG","either","7","308","","","","","","","0","1","0","","0.324539239","0.4","0.2","0.8","0.6","0.324539239","0.07333263924","0.2646536279","0.3958116198","","","","","","","","","","","","","","72","H","0","img/none_selected.jpg","","61","main_expt","",""
"","bandit","143","504833","0.0-103.0-0.0","41573508","wem/bandit_party_1","ABS3F4WC2JSRG","either","7","373","","","","","","","0","1","0","","0.07563430262","0.4","0.2","0.8","0.6","0.3066306166","0.07563430262","0.242461968","0.3615218546","","","","","","","","","","","","","","74","J","1","","","62","main_expt","",""
"","bandit","144","506705","0.0-104.0-0.0","41573508","wem/bandit_party_1","ABS3F4WC2JSRG","either","7","326","","","","","","","0","0","1","0.3068900116","","0.4","0.2","0.8","0.6","","","","","0.3068900116","0.06826526778","0.2206683029","0.3574266064","","","","","","","","","","72","H","0","img/none_selected.jpg","","63","main_expt","",""
"","bandit","145","508671","0.0-105.0-0.0","41573508","wem/bandit_party_1","ABS3F4WC2JSRG","either","7","415","","","","","","","0","0","1","","0.3541915859","0.4","0.2","0.8","0.6","0.2936494982","0.1175271989","0.2288959862","0.3541915859","","","","","","","","","","","","","","76","L","3","","","64","main_expt","",""
"","bandit","146","510541","0.0-106.0-0.0","41573508","wem/bandit_party_1","ABS3F4WC2JSRG","either","7","305","","","","","","","0","0","1","","0.290236101","0.4","0.2","0.8","0.6","0.290236101","0.1273865191","0.2346523549","0.3339820985","","","","","","","","","","","","","","72","H","0","img/none_selected.jpg","","65","main_expt","",""
"","bandit","147","512426","0.0-107.0-0.0","41573508","wem/bandit_party_1","ABS3F4WC2JSRG","either","7","340","","","","","","","0","0","1","","0.1881688105","0.4","0.2","0.8","0.6","0.2512036594","0.09075088943","0.1881688105","0.3195467083","","","","","","","","","","","","","","75","K","2","","","66","main_expt","",""
"","bandit","148","514283","0.0-108.0-0.0","41573508","wem/bandit_party_1","ABS3F4WC2JSRG","either","7","323","","","","","","","0","0","1","0.08077075725","","0.4","0.2","0.8","0.6","","","","","0.263747572","0.08077075725","0.231043846","0.3477383846","","","","","","","","","","74","J","1","","","67","main_expt","",""
"","bandit","149","516140","0.0-109.0-0.0","41573508","wem/bandit_party_1","ABS3F4WC2JSRG","either","7","317","","","","","","","0","0","1","0.3365352069","","0.4","0.2","0.8","0.6","","","","","0.2892519303","0.08810311296","0.2576664243","0.3365352069","","","","","","","","","","76","L","3","","","68","main_expt","",""
"","bandit","150","518106","0.0-110.0-0.0","41573508","wem/bandit_party_1","ABS3F4WC2JSRG","either","7","421","","","","","","","0","0","1","","0.1260156682","0.4","0.2","0.8","0.6","0.2383664846","0.1260156682","0.2183283259","0.3148812039","","","","","","","","","","","","","","74","J","1","","","69","main_expt","",""
"","bandit","151","519947","0.0-111.0-0.0","41573508","wem/bandit_party_1","ABS3F4WC2JSRG","either","7","305","","","","","","","0","0","1","","0.2497111545","0.4","0.2","0.8","0.6","0.2497111545","0.08773951932","0.2260484764","0.3154014692","","","","","","","","","","","","","","72","H","0","img/none_selected.jpg","","70","main_expt","",""
"","bandit","152","521785","0.0-112.0-0.0","41573508","wem/bandit_party_1","ABS3F4WC2JSRG","either","7","285","","","","","","","0","0","1","0.219815459","","0.4","0.2","0.8","0.6","","","","","0.2095843002","0.1154304285","0.3196469567","0.219815459","","","","","","","","","","76","L","3","","","71","main_expt","",""
"","bandit","153","523570","0.0-113.0-0.0","41573508","wem/bandit_party_1","ABS3F4WC2JSRG","either","7","244","","","","","","","1","0","0","0.3644141189","","0.4","0.2","0.8","0.6","","","","","0.1972488467","0.10097247","0.3644141189","0.2623730272","","","","","","","","","","75","K","2","","","72","main_expt","",""
"","bandit","154","525485","0.0-114.0-0.0","41573508","wem/bandit_party_1","ABS3F4WC2JSRG","either","7","374","","","","","","","0","0","1","0.4081842109","","0.4","0.2","0.8","0.6","","","","","0.15494396","0.0746930591","0.4081842109","0.2639805735","","","","","","","","","","75","K","2","","","73","main_expt","",""
"","bandit","155","527327","0.0-115.0-0.0","41573508","wem/bandit_party_1","ABS3F4WC2JSRG","either","7","284","","","","","","","0","0","1","","0.1324790415","0.4","0.2","0.8","0.6","0.1324790415","0.1124392477","0.4506698749","0.2770925356","","","","","","","","","","","","","","72","H","0","img/none_selected.jpg","","74","main_expt","",""
"","bandit","156","529137","0.0-116.0-0.0","41573508","wem/bandit_party_1","ABS3F4WC2JSRG","either","7","266","","","","","","","0","0","1","0.113494578","","0.4","0.2","0.8","0.6","","","","","0.179195356","0.113494578","0.454520075","0.2796652475","","","","","","","","","","74","J","1","","","75","main_expt","",""
"","bandit","157","531006","0.0-117.0-0.0","41573508","wem/bandit_party_1","ABS3F4WC2JSRG","either","7","319","","","","","","","0","0","1","0.3153427244","","0.4","0.2","0.8","0.6","","","","","0.215808919","0.1469344428","0.466199952","0.3153427244","","","","","","","","","","76","L","3","","","76","main_expt","",""
"","bandit","158","532872","0.0-118.0-0.0","41573508","wem/bandit_party_1","ABS3F4WC2JSRG","either","7","314","","","","","","","0","0","1","","0.2152215887","0.4","0.2","0.8","0.6","0.2312347408","0.2152215887","0.4402141775","0.3676911864","","","","","","","","","","","","","","74","J","1","","","77","main_expt","",""
"","bandit","159","534649","0.0-119.0-0.0","41573508","wem/bandit_party_1","ABS3F4WC2JSRG","either","7","227","","","","","","","0","0","1","","0.2055177618","0.4","0.2","0.8","0.6","0.2197025874","0.2055177618","0.4525957793","0.3434277392","","","","","","","","","","","","","","74","J","1","","","78","main_expt","",""
"","bandit","160","536489","0.0-120.0-0.0","41573508","wem/bandit_party_1","ABS3F4WC2JSRG","either","7","310","","","","","","","0","1","0","","0.3758616161","0.4","0.2","0.8","0.6","0.2227420924","0.222262525","0.4630799716","0.3758616161","","","","","","","","","","","","","","76","L","3","","","79","main_expt","",""
"","bandit","161","538405","0.0-121.0-0.0","41573508","wem/bandit_party_1","ABS3F4WC2JSRG","either","7","370","","","","","","","0","0","1","","0.2283057493","0.4","0.2","0.8","0.6","0.2283057493","0.2700860438","0.423693353","0.3862393514","","","","","","","","","","","","","","72","H","0","img/none_selected.jpg","","80","main_expt","",""
"","bandit","162","540213","0.0-122.0-0.0","41573508","wem/bandit_party_1","ABS3F4WC2JSRG","either","7","264","","","","","","","0","0","1","","0.2721525977","0.4","0.2","0.8","0.6","0.2721525977","0.2642688004","0.4319112677","0.3593770893","","","","","","","","","","","","","","72","H","0","img/none_selected.jpg","","81","main_expt","",""
"","bandit","163","542520","0.0-123.0-0.0","41573508","wem/bandit_party_1","ABS3F4WC2JSRG","either","7","757","","","","","","","0","0","1","","0.2824164754","0.4","0.2","0.8","0.6","0.2850237184","0.2824164754","0.441827487","0.4035110645","","","","","","","","","","","","","","74","J","1","","","82","main_expt","",""
"","bandit","164","544393","0.0-124.0-0.0","41573508","wem/bandit_party_1","ABS3F4WC2JSRG","either","7","329","","","","","","","1","0","0","0.3719627038","","0.4","0.2","0.8","0.6","","","","","0.3236436683","0.2819095575","0.4288861504","0.3719627038","","","","","","","","","","76","L","3","","","83","main_expt","",""
"","bandit","165","546370","0.0-125.0-0.0","41573508","wem/bandit_party_1","ABS3F4WC2JSRG","either","7","433","","","","","","","0","0","1","0.4350385517","","0.4","0.2","0.8","0.6","","","","","0.3339638593","0.2589745902","0.4350385517","0.3349288927","","","","","","","","","","75","K","2","","","84","main_expt","",""
"","bandit","166","548212","0.0-126.0-0.0","41573508","wem/bandit_party_1","ABS3F4WC2JSRG","either","7","292","","","","","","","0","0","1","","0.3626504113","0.4","0.2","0.8","0.6","0.3795022601","0.3626504113","0.4255505645","0.3247899262","","","","","","","","","","","","","","74","J","1","","","85","main_expt","",""
"","bandit","167","550054","0.0-127.0-0.0","41573508","wem/bandit_party_1","ABS3F4WC2JSRG","either","7","309","","","","","","","0","0","1","","0.3835523064","0.4","0.2","0.8","0.6","0.3835523064","0.3598915268","0.4330938692","0.3443557019","","","","","","","","","","","","","","72","H","0","img/none_selected.jpg","","86","main_expt","",""
"","bandit","168","551955","0.0-128.0-0.0","41573508","wem/bandit_party_1","ABS3F4WC2JSRG","either","7","350","","","","","","","0","0","1","0.3648776167","","0.4","0.2","0.8","0.6","","","","","0.3772514457","0.3433052933","0.4548398529","0.3648776167","","","","","","","","","","76","L","3","","","87","main_expt","",""
"","bandit","169","553730","0.0-129.0-0.0","41573508","wem/bandit_party_1","ABS3F4WC2JSRG","either","7","232","","","","","","","0","0","1","0.4493124031","","0.4","0.2","0.8","0.6","","","","","0.3766830519","0.4022938878","0.4493124031","0.3609631839","","","","","","","","","","75","K","2","","","88","main_expt","",""
"","bandit","170","555489","0.0-130.0-0.0","41573508","wem/bandit_party_1","ABS3F4WC2JSRG","either","7","207","","","","","","","0","0","1","0.4141493151","","0.4","0.2","0.8","0.6","","","","","0.3537755119","0.4141493151","0.4161110063","0.3636167192","","","","","","","","","","74","J","1","","","89","main_expt","",""
"","bandit","171","557139","0.0-131.0-0.0","41573508","wem/bandit_party_1","ABS3F4WC2JSRG","either","7","99","","","","","","","0","0","1","0.405260856","","0.4","0.2","0.8","0.6","","","","","0.3014761449","0.4136124289","0.405260856","0.3563441379","","","","","","","","","","75","K","2","","","90","main_expt","",""
"","bandit","172","559042","0.0-132.0-0.0","41573508","wem/bandit_party_1","ABS3F4WC2JSRG","either","7","357","","","","","","","0","0","1","0.2694038268","","0.4","0.2","0.8","0.6","","","","","0.2694038268","0.4184852842","0.3827048226","0.3389138503","","","","","","","","","","72","H","0","img/none_selected.jpg","","91","main_expt","",""
"","bandit","173","560901","0.0-133.0-0.0","41573508","wem/bandit_party_1","ABS3F4WC2JSRG","either","7","316","","","","","","","1","0","0","0.3263360165","","0.4","0.2","0.8","0.6","","","","","0.2651536323","0.4456808576","0.3552182969","0.3263360165","","","","","","","","","","76","L","3","","","92","main_expt","",""
"","bandit","174","562757","0.0-134.0-0.0","41573508","wem/bandit_party_1","ABS3F4WC2JSRG","either","7","323","","","","","","","0","0","1","0.2844131911","","0.4","0.2","0.8","0.6","","","","","0.1997208586","0.4355219805","0.3286897504","0.2844131911","","","","","","","","","","76","L","3","","","93","main_expt","",""
"","bandit","175","564639","0.0-135.0-0.0","41573508","wem/bandit_party_1","ABS3F4WC2JSRG","either","7","329","","","","","","","0","0","1","0.4609821192","","0.4","0.2","0.8","0.6","","","","","0.2442555344","0.4609821192","0.3422490236","0.2978465223","","","","","","","","","","74","J","1","","","94","main_expt","",""
"","bandit","176","566649","0.0-136.0-0.0","41573508","wem/bandit_party_1","ABS3F4WC2JSRG","either","7","462","","","","","","","0","0","1","0.3160161054","","0.4","0.2","0.8","0.6","","","","","0.2638839348","0.4419374505","0.3160161054","0.2638723705","","","","","","","","","","75","K","2","","","95","main_expt","",""
"","bandit","177","568493","0.0-137.0-0.0","41573508","wem/bandit_party_1","ABS3F4WC2JSRG","either","7","306","","","","","","","0","0","1","","0.39438674","0.4","0.2","0.8","0.6","0.2265245807","0.39438674","0.2945538732","0.2276010735","","","","","","","","","","","","","","74","J","1","","","96","main_expt","",""
"","bandit","178","570306","0.0-138.0-0.0","41573508","wem/bandit_party_1","ABS3F4WC2JSRG","either","7","277","","","","","","","0","0","1","","0.1969189177","0.4","0.2","0.8","0.6","0.1969189177","0.3617668419","0.393563827","0.2045446072","","","","","","","","","","","","","","72","H","0","img/none_selected.jpg","","97","main_expt","",""
"","bandit","179","572128","0.0-139.0-0.0","41573508","wem/bandit_party_1","ABS3F4WC2JSRG","either","7","279","","","","","","","0","0","1","","0.1761144245","0.4","0.2","0.8","0.6","0.1761144245","0.3737913853","0.4046254927","0.2436418828","","","","","","","","","","","","","","72","H","0","img/none_selected.jpg","","98","main_expt","",""
"","bandit","180","574104","0.0-140.0-0.0","41573508","wem/bandit_party_1","ABS3F4WC2JSRG","either","7","430","","","","","","","0","0","1","","0.2473144087","0.4","0.2","0.8","0.6","0.1211630765","0.4221129479","0.3659012549","0.2473144087","","","","","","","","","","","","","","76","L","3","","","99","main_expt","",""
"","bandit","181","575945","0.0-141.0-0.0","41573508","wem/bandit_party_1","ABS3F4WC2JSRG","either","7","288","","","","","","","0","0","1","0.400368336","","0.4","0.2","0.8","0.6","","","","","0.1257326749","0.3857893684","0.400368336","0.2707360286","","","","","","","","","","75","K","2","","","100","main_expt","",""
"","bandit","182","577772","0.0-142.0-0.0","41573508","wem/bandit_party_1","ABS3F4WC2JSRG","either","7","286","","","","","","","0","0","1","","0.3635527264","0.4","0.2","0.8","0.6","0.09975532208","0.3635527264","0.4367931528","0.3250409822","","","","","","","","","","","","","","74","J","1","","","101","main_expt","",""
"","bandit","183","579609","0.0-143.0-0.0","41573508","wem/bandit_party_1","ABS3F4WC2JSRG","either","7","287","","","","","","","0","0","1","0.3738375489","","0.4","0.2","0.8","0.6","","","","","0.1127414424","0.3738375489","0.4371155326","0.3088580598","","","","","","","","","","74","J","1","","","102","main_expt","",""
"","bandit","184","581341","0.0-144.0-0.0","41573508","wem/bandit_party_1","ABS3F4WC2JSRG","either","7","185","","","","","","","0","0","1","","0.3860163181","0.4","0.2","0.8","0.6","0.1232600734","0.3860163181","0.388648264","0.2901001995","","","","","","","","","","","","","","74","J","1","","","103","main_expt","",""
"","bandit","185","583271","0.0-145.0-0.0","41573508","wem/bandit_party_1","ABS3F4WC2JSRG","either","7","373","","","","","","","0","0","1","","0.08156843846","0.4","0.2","0.8","0.6","0.08156843846","0.390692362","0.3718469433","0.309645936","","","","","","","","","","","","","","72","H","0","img/none_selected.jpg","","104","main_expt","",""
"","bandit","186","585142","0.0-146.0-0.0","41573508","wem/bandit_party_1","ABS3F4WC2JSRG","either","7","330","","","","","","","0","1","0","","0.4139082553","0.4","0.2","0.8","0.6","0.08245659199","0.4139082553","0.3920304628","0.3386062745","","","","","","","","","","","","","","74","J","1","","","105","main_expt","",""
"","bandit","187","587008","0.0-147.0-0.0","41573508","wem/bandit_party_1","ABS3F4WC2JSRG","either","7","314","","","","","","","0","0","1","0.3733497125","","0.4","0.2","0.8","0.6","","","","","0.1276639339","0.3295275825","0.3733497125","0.3827539061","","","","","","","","","","75","K","2","","","106","main_expt","",""
"","bandit","188","588909","0.0-148.0-0.0","41573508","wem/bandit_party_1","ABS3F4WC2JSRG","either","7","342","","","","","","","0","0","1","","0.3499712774","0.4","0.2","0.8","0.6","0.1812689745","0.3499712774","0.3878439861","0.3401355396","","","","","","","","","","","","","","74","J","1","","","107","main_expt","",""
"","bandit","189","590747","0.0-149.0-0.0","41573508","wem/bandit_party_1","ABS3F4WC2JSRG","either","7","284","","","","","","","1","0","0","0.3258039352","","0.4","0.2","0.8","0.6","","","","","0.2187982558","0.2666891207","0.3529013302","0.3258039352","","","","","","","","","","76","L","3","","","108","main_expt","",""
"","bandit","190","592784","0.0-150.0-0.0","41573508","wem/bandit_party_1","ABS3F4WC2JSRG","either","7","483","","","","","","","0","0","1","0.374919859","","0.4","0.2","0.8","0.6","","","","","0.2201216928","0.2575067634","0.3457683734","0.374919859","","","","","","","","","","76","L","3","","","109","main_expt","",""
"","bandit","191","594698","0.0-151.0-0.0","41573508","wem/bandit_party_1","ABS3F4WC2JSRG","either","7","360","","","","","","","1","0","0","0.3316873257","","0.4","0.2","0.8","0.6","","","","","0.1789817232","0.2664913793","0.3316873257","0.3656186065","","","","","","","","","","75","K","2","","","110","main_expt","",""
"","bandit","192","596618","0.0-152.0-0.0","41573508","wem/bandit_party_1","ABS3F4WC2JSRG","either","7","361","","","","","","","0","1","0","","0.2404947452","0.4","0.2","0.8","0.6","0.2404947452","0.2233446911","0.3434945318","0.3649701027","","","","","","","","","","","","","","72","H","0","img/none_selected.jpg","","111","main_expt","",""
"","bandit","193","598519","0.0-153.0-0.0","41573508","wem/bandit_party_1","ABS3F4WC2JSRG","either","7","371","","","","","","","0","1","0","","0.2170082082","0.4","0.2","0.8","0.6","0.2959558532","0.2170082082","0.2729480053","0.3371716456","","","","","","","","","","","","","","74","J","1","","","112","main_expt","",""
"","bandit","194","600437","0.0-154.0-0.0","41573508","wem/bandit_party_1","ABS3F4WC2JSRG","either","7","382","","","","","","","0","1","0","","0.2966985553","0.4","0.2","0.8","0.6","0.2966985553","0.1912277411","0.2579672073","0.2587224119","","","","","","","","","","","","","","72","H","0","img/none_selected.jpg","","113","main_expt","",""
"","bandit","195","602382","0.0-155.0-0.0","41573508","wem/bandit_party_1","ABS3F4WC2JSRG","either","7","396","","","","","","","0","1","0","","0.1691995451","0.4","0.2","0.8","0.6","0.3289730608","0.1691995451","0.24654084","0.2384324947","","","","","","","","","","","","","","74","J","1","","","114","main_expt","",""
"","bandit","196","604310","0.0-156.0-0.0","41573508","wem/bandit_party_1","ABS3F4WC2JSRG","either","7","391","","","","","","","0","0","1","","0.246649757","0.4","0.2","0.8","0.6","0.2783705844","0.1263730162","0.246649757","0.2705755989","","","","","","","","","","","","","","75","K","2","","","115","main_expt","",""
"","bandit","197","606164","0.0-157.0-0.0","41573508","wem/bandit_party_1","ABS3F4WC2JSRG","either","7","310","","","","","","","0","0","1","0.1130092975","","0.4","0.2","0.8","0.6","","","","","0.2990421824","0.1130092975","0.2190482835","0.2666822","","","","","","","","","","74","J","1","","","116","main_expt","",""
"","bandit","198","608068","0.0-158.0-0.0","41573508","wem/bandit_party_1","ABS3F4WC2JSRG","either","7","357","","","","","","","0","0","1","","0.2664749026","0.4","0.2","0.8","0.6","0.3214730448","0.1317362661","0.1860086181","0.2664749026","","","","","","","","","","","","","","76","L","3","","","117","main_expt","",""
"","bandit","199","609937","0.0-159.0-0.0","41573508","wem/bandit_party_1","ABS3F4WC2JSRG","either","7","315","","","","","","","0","0","1","0.1765749983","","0.4","0.2","0.8","0.6","","","","","0.3996160597","0.08460291254","0.1765749983","0.285497096","","","","","","","","","","75","K","2","","","118","main_expt","",""
"","bandit","200","611855","0.0-160.0-0.0","41573508","wem/bandit_party_1","ABS3F4WC2JSRG","either","7","361","","","","","","","0","1","0","","0.4143362638","0.4","0.2","0.8","0.6","0.4143362638","0.09168363065","0.1840588368","0.3004427434","","","","","","","","","","","","","","72","H","0","img/none_selected.jpg","","119","main_expt","",""
"","bandit","201","613773","0.0-161.0-0.0","41573508","wem/bandit_party_1","ABS3F4WC2JSRG","either","7","365","","","","","","","0","0","1","","0.06729372802","0.4","0.2","0.8","0.6","0.372340151","0.06729372802","0.1988357929","0.2419855731","","","","","","","","","","","","","","74","J","1","","","120","main_expt","",""
"","bandit","202","615585","0.0-162.0-0.0","41573508","wem/bandit_party_1","ABS3F4WC2JSRG","either","7","276","","","","","","","0","1","0","","0.3910424524","0.4","0.2","0.8","0.6","0.3910424524","0.08346408207","0.2315674","0.3054132847","","","","","","","","","","","","","","72","H","0","img/none_selected.jpg","","121","main_expt","",""
"","bandit","203","617564","0.0-163.0-0.0","41573508","wem/bandit_party_1","ABS3F4WC2JSRG","either","7","435","","","","","","","1","0","0","0.2041322171","","0.4","0.2","0.8","0.6","","","","","0.3813410711","0.05632743158","0.2041322171","0.2473202095","","","","","","","","","","75","K","2","","","122","main_expt","",""
"","bandit","204","619512","0.0-164.0-0.0","41573508","wem/bandit_party_1","ABS3F4WC2JSRG","either","7","397","","","","","","","0","1","0","","0.2909195989","0.4","0.2","0.8","0.6","0.4247291795","0.05516745574","0.1945268209","0.2909195989","","","","","","","","","","","","","","76","L","3","","","123","main_expt","",""
"","bandit","205","621384","0.0-165.0-0.0","41573508","wem/bandit_party_1","ABS3F4WC2JSRG","either","7","327","","","","","","","0","0","1","","0.05528311039","0.4","0.2","0.8","0.6","0.4311179713","0.05528311039","0.2206749142","0.3493750294","","","","","","","","","","","","","","74","J","1","","","124","main_expt","",""
"","bandit","206","623327","0.0-166.0-0.0","41573508","wem/bandit_party_1","ABS3F4WC2JSRG","either","7","398","","","","","","","0","0","1","0.212012295","","0.4","0.2","0.8","0.6","","","","","0.4085782939","0.07149807259","0.212012295","0.3883668019","","","","","","","","","","75","K","2","","","125","main_expt","",""
"","bandit","207","625201","0.0-167.0-0.0","41573508","wem/bandit_party_1","ABS3F4WC2JSRG","either","7","344","","","","","","","0","0","1","","0.4110861309","0.4","0.2","0.8","0.6","0.4110861309","0.1137803622","0.1656684785","0.3888129637","","","","","","","","","","","","","","72","H","0","img/none_selected.jpg","","126","main_expt","",""
"","bandit","208","627085","0.0-168.0-0.0","41573508","wem/bandit_party_1","ABS3F4WC2JSRG","either","7","339","","","","","","","0","0","1","","0.3659195129","0.4","0.2","0.8","0.6","0.4214671818","0.1003054442","0.1685301808","0.3659195129","","","","","","","","","","","","","","76","L","3","","","127","main_expt","",""
"","bandit","209","628691","0.0-169.0-0.0","41573508","wem/bandit_party_1","ABS3F4WC2JSRG","either","7","58","","","","","","","0","0","1","0.1378169536","","0.4","0.2","0.8","0.6","","","","","0.36889317","0.1378169536","0.1703551811","0.3689954399","","","","","","","","","","74","J","1","","","128","main_expt","",""
"","bandit","210","630484","0.0-170.0-0.0","41573508","wem/bandit_party_1","ABS3F4WC2JSRG","either","7","254","","","","","","","0","1","0","","0.1624753709","0.4","0.2","0.8","0.6","0.3840267129","0.1333081235","0.1624753709","0.3600340942","","","","","","","","","","","","","","75","K","2","","","129","main_expt","",""
"","bandit","211","632395","0.0-171.0-0.0","41573508","wem/bandit_party_1","ABS3F4WC2JSRG","either","7","356","","","","","","","0","1","0","","0.3809677701","0.4","0.2","0.8","0.6","0.3809677701","0.1682212827","0.2335662737","0.3580797835","","","","","","","","","","","","","","72","H","0","img/none_selected.jpg","","130","main_expt","",""
"","bandit","212","634205","0.0-172.0-0.0","41573508","wem/bandit_party_1","ABS3F4WC2JSRG","either","7","276","","","","","","","0","0","1","","0.2193829955","0.4","0.2","0.8","0.6","0.3681933818","0.2193829955","0.240441026","0.3785893338","","","","","","","","","","","","","","74","J","1","","","131","main_expt","",""
"","bandit","213","636066","0.0-173.0-0.0","41573508","wem/bandit_party_1","ABS3F4WC2JSRG","either","7","312","","","","","","","0","0","1","","0.2266699971","0.4","0.2","0.8","0.6","0.3664045944","0.2693349046","0.2266699971","0.3764735404","","","","","","","","","","","","","","75","K","2","","","132","main_expt","",""
"","bandit","214","637922","0.0-174.0-0.0","41573508","wem/bandit_party_1","ABS3F4WC2JSRG","either","7","314","","","","","","","1","0","0","0.3433534211","","0.4","0.2","0.8","0.6","","","","","0.4046437197","0.2576546077","0.1994193025","0.3433534211","","","","","","","","","","76","L","3","","","133","main_expt","",""
"","bandit","215","640086","0.0-175.0-0.0","41573508","wem/bandit_party_1","ABS3F4WC2JSRG","either","7","629","","","","","","","0","0","1","","0.3606247271","0.4","0.2","0.8","0.6","0.364490756","0.2412372273","0.1891464922","0.3606247271","","","","","","","","","","","","","","76","L","3","","","134","main_expt","",""
"","bandit","216","641973","0.0-176.0-0.0","41573508","wem/bandit_party_1","ABS3F4WC2JSRG","either","7","332","","","","","","","0","0","1","","0.2198641054","0.4","0.2","0.8","0.6","0.311914316","0.2198641054","0.1614798668","0.3268624306","","","","","","","","","","","","","","74","J","1","","","135","main_expt","",""
"","bandit","217","643798","0.0-177.0-0.0","41573508","wem/bandit_party_1","ABS3F4WC2JSRG","either","7","282","","","","","","","0","0","1","0.1880386222","","0.4","0.2","0.8","0.6","","","","","0.2653901568","0.2504132697","0.1880386222","0.2854606769","","","","","","","","","","75","K","2","","","136","main_expt","",""
"","bandit","218","645578","0.0-178.0-0.0","41573508","wem/bandit_party_1","ABS3F4WC2JSRG","either","7","238","","","","","","","0","0","1","0.2413295316","","0.4","0.2","0.8","0.6","","","","","0.2413295316","0.1912230989","0.1961818793","0.3311747399","","","","","","","","","","72","H","0","img/none_selected.jpg","","137","main_expt","",""
"","bandit","219","647360","0.0-179.0-0.0","41573508","wem/bandit_party_1","ABS3F4WC2JSRG","either","7","254","","","","","","","0","0","1","","0.2060295423","0.4","0.2","0.8","0.6","0.2060295423","0.1576256809","0.2857678963","0.2570785188","","","","","","","","","","","","","","72","H","0","img/none_selected.jpg","","138","main_expt","",""
"","bandit","220","649142","0.0-180.0-0.0","41573508","wem/bandit_party_1","ABS3F4WC2JSRG","either","7","242","","","","","","","0","0","1","","0.3449131854","0.4","0.2","0.8","0.6","0.1809645164","0.1019788138","0.3449131854","0.2858060749","","","","","","","","","","","","","","75","K","2","","","139","main_expt","",""
"","bandit","221","650885","0.0-181.0-0.0","41573508","wem/bandit_party_1","ABS3F4WC2JSRG","either","7","197","","","","","","","0","0","1","","0.07754087054","0.4","0.2","0.8","0.6","0.1843216893","0.07754087054","0.2537716732","0.2975559752","","","","","","","","","","","","","","74","J","1","","","140","main_expt","",""
"","bandit","222","652705","0.0-182.0-0.0","41573508","wem/bandit_party_1","ABS3F4WC2JSRG","either","7","270","","","","","","","1","0","0","0.2802168405","","0.4","0.2","0.8","0.6","","","","","0.1651876155","0.09489610577","0.2858111263","0.2802168405","","","","","","","","","","76","L","3","","","141","main_expt","",""
"","bandit","223","654557","0.0-183.0-0.0","41573508","wem/bandit_party_1","ABS3F4WC2JSRG","either","7","311","","","","","","","0","0","1","0.2231986748","","0.4","0.2","0.8","0.6","","","","","0.1536427928","0.09601428546","0.303049367","0.2231986748","","","","","","","","","","76","L","3","","","142","main_expt","",""
"","bandit","224","656374","0.0-184.0-0.0","41573508","wem/bandit_party_1","ABS3F4WC2JSRG","either","7","270","","","","","","","0","1","0","","0.1546140226","0.4","0.2","0.8","0.6","0.1546140226","0.08301142993","0.2969419413","0.2032880393","","","","","","","","","","","","","","72","H","0","img/none_selected.jpg","","143","main_expt","",""
"","bandit","225","658443","0.0-185.0-0.0","41573508","wem/bandit_party_1","ABS3F4WC2JSRG","either","7","531","","","","","","","0","0","1","","0.09599686985","0.4","0.2","0.8","0.6","0.1746031107","0.09599686985","0.3128690494","0.1967741464","","","","","","","","","","","","","","74","J","1","","","144","main_expt","",""
"","bandit","226","660251","0.0-186.0-0.0","41573508","wem/bandit_party_1","ABS3F4WC2JSRG","either","7","265","","","","","","","0","0","1","","0.2021387556","0.4","0.2","0.8","0.6","0.2021387556","0.07499383622","0.2991796355","0.2283154954","","","","","","","","","","","","","","72","H","0","img/none_selected.jpg","","145","main_expt","",""
"","bandit","227","662060","0.0-187.0-0.0","41573508","wem/bandit_party_1","ABS3F4WC2JSRG","either","7","272","","","","","","","0","0","1","0.2118700154","","0.4","0.2","0.8","0.6","","","","","0.2504344391","0.09566861","0.3163763193","0.2118700154","","","","","","","","","","76","L","3","","","146","main_expt","",""
"","bandit","228","663989","0.0-188.0-0.0","41573508","wem/bandit_party_1","ABS3F4WC2JSRG","either","7","377","","","","","","","0","0","1","0.3198025905","","0.4","0.2","0.8","0.6","","","","","0.2437718569","0.08578591382","0.3198025905","0.210437557","","","","","","","","","","75","K","2","","","147","main_expt","",""
"","bandit","229","665779","0.0-189.0-0.0","41573508","wem/bandit_party_1","ABS3F4WC2JSRG","either","7","243","","","","","","","0","0","1","","0.2446677265","0.4","0.2","0.8","0.6","0.2446677265","0.1147887709","0.2588245921","0.2370661354","","","","","","","","","","","","","","72","H","0","img/none_selected.jpg","","148","main_expt","",""
"","bandit","230","667588","0.0-190.0-0.0","41573508","wem/bandit_party_1","ABS3F4WC2JSRG","either","7","258","","","","","","","0","0","1","0.2430363771","","0.4","0.2","0.8","0.6","","","","","0.2911002833","0.1378203382","0.248712437","0.2430363771","","","","","","","","","","76","L","3","","","149","main_expt","",""
"","bandit","231","669456","0.0-191.0-0.0","41573508","wem/bandit_party_1","ABS3F4WC2JSRG","either","7","320","","","","","","","0","1","0","","0.1414499273","0.4","0.2","0.8","0.6","0.3529655025","0.1414499273","0.179144869","0.2242182381","","","","","","","","","","","","","","74","J","1","","","150","main_expt","",""
"","bandit","232","671413","0.0-192.0-0.0","41573508","wem/bandit_party_1","ABS3F4WC2JSRG","either","7","415","","","","","","","0","0","1","0.1545669956","","0.4","0.2","0.8","0.6","","","","","0.3885741111","0.07852348772","0.1545669956","0.1997145133","","","","","","","","","","75","K","2","","","151","main_expt","",""
"","bandit","233","673180","0.0-193.0-0.0","41573508","wem/bandit_party_1","ABS3F4WC2JSRG","either","7","240","","","","","","","0","0","1","0.3690499696","","0.4","0.2","0.8","0.6","","","","","0.3690499696","0.08485793113","0.1651714415","0.2195927633","","","","","","","","","","72","H","0","img/none_selected.jpg","","152","main_expt","",""
"","bandit","234","675015","0.0-194.0-0.0","41573508","wem/bandit_party_1","ABS3F4WC2JSRG","either","7","297","","","","","","","0","0","1","","0.1083789561","0.4","0.2","0.8","0.6","0.3710492515","0.1083789561","0.2396245514","0.2121816628","","","","","","","","","","","","","","74","J","1","","","153","main_expt","",""
"","bandit","235","676839","0.0-195.0-0.0","41573508","wem/bandit_party_1","ABS3F4WC2JSRG","either","7","284","","","","","","","0","0","1","0.1830588608","","0.4","0.2","0.8","0.6","","","","","0.3483335413","0.109098481","0.2085838567","0.1830588608","","","","","","","","","","76","L","3","","","154","main_expt","",""
"","bandit","236","678645","0.0-196.0-0.0","41573508","wem/bandit_party_1","ABS3F4WC2JSRG","either","7","261","","","","","","","0","0","1","0.1864274254","","0.4","0.2","0.8","0.6","","","","","0.3343760247","0.1758262092","0.1864274254","0.2031423662","","","","","","","","","","75","K","2","","","155","main_expt","",""
"","bandit","237","680439","0.0-197.0-0.0","41573508","wem/bandit_party_1","ABS3F4WC2JSRG","either","7","248","","","","","","","0","0","1","0.1750870897","","0.4","0.2","0.8","0.6","","","","","0.3742013553","0.2046597001","0.1750870897","0.2022731065","","","","","","","","","","75","K","2","","","156","main_expt","",""
"","bandit","238","682309","0.0-198.0-0.0","41573508","wem/bandit_party_1","ABS3F4WC2JSRG","either","7","339","","","","","","","0","0","1","0.1774751899","","0.4","0.2","0.8","0.6","","","","","0.3620366094","0.1774751899","0.1321985386","0.1826661219","","","","","","","","","","74","J","1","","","157","main_expt","",""
"","bandit","239","684132","0.0-199.0-0.0","41573508","wem/bandit_party_1","ABS3F4WC2JSRG","either","7","277","","","","","","","0","0","1","","0.3671714071","0.4","0.2","0.8","0.6","0.3671714071","0.1612033886","0.1341899746","0.1658993888","","","","","","","","","","","","","","72","H","0","img/none_selected.jpg","","158","main_expt","",""
"","bandit","240","686110","0.0-200.0-0.0","41573508","wem/bandit_party_1","ABS3F4WC2JSRG","either","7","414","","","","","","","0","1","0","","0.1620079643","0.4","0.2","0.8","0.6","0.4015988616","0.1586838935","0.1567784951","0.1620079643","","","","","","","","","","","","","","76","L","3","","","159","main_expt","",""
"","bandit","241","687935","0.0-201.0-0.0","41573508","wem/bandit_party_1","ABS3F4WC2JSRG","either","7","277","","","","","","","0","0","1","0.1615549635","","0.4","0.2","0.8","0.6","","","","","0.4004877553","0.2159944071","0.1615549635","0.2453635642","","","","","","","","","","75","K","2","","","160","main_expt","",""
"","bandit","242","689729","0.0-202.0-0.0","41573508","wem/bandit_party_1","ABS3F4WC2JSRG","either","7","261","","","","","","","0","1","0","","0.2105769377","0.4","0.2","0.8","0.6","0.4095849454","0.2105769377","0.1854631015","0.2456373749","","","","","","","","","","","","","","74","J","1","","","161","main_expt","",""
"","bandit","243","691553","0.0-203.0-0.0","41573508","wem/bandit_party_1","ABS3F4WC2JSRG","either","7","278","","","","","","","0","0","1","0.21229469","","0.4","0.2","0.8","0.6","","","","","0.3978002783","0.2006925765","0.21229469","0.2460125232","","","","","","","","","","75","K","2","","","162","main_expt","",""
"","bandit","244","693219","0.0-204.0-0.0","41573508","wem/bandit_party_1","ABS3F4WC2JSRG","either","7","121","","","","","","","1","0","0","0.2013568893","","0.4","0.2","0.8","0.6","","","","","0.4180552148","0.2365124807","0.162194177","0.2013568893","","","","","","","","","","76","L","3","","","163","main_expt","",""
"","bandit","245","695116","0.0-205.0-0.0","41573508","wem/bandit_party_1","ABS3F4WC2JSRG","either","7","351","","","","","","","0","0","1","0.1535707797","","0.4","0.2","0.8","0.6","","","","","0.4407560021","0.2157370886","0.1535707797","0.1933595846","","","","","","","","","","75","K","2","","","164","main_expt","",""
"","bandit","246","697018","0.0-206.0-0.0","41573508","wem/bandit_party_1","ABS3F4WC2JSRG","either","7","357","","","","","","","0","0","1","","0.2315934193","0.4","0.2","0.8","0.6","0.4582960521","0.2166787898","0.2315934193","0.167552211","","","","","","","","","","","","","","75","K","2","","","165","main_expt","",""
"","bandit","247","698873","0.0-207.0-0.0","41573508","wem/bandit_party_1","ABS3F4WC2JSRG","either","7","313","","","","","","","0","0","1","","0.4337500892","0.4","0.2","0.8","0.6","0.4337500892","0.1846262972","0.2579087381","0.1311237951","","","","","","","","","","","","","","72","H","0","img/none_selected.jpg","","166","main_expt","",""
"","bandit","248","700759","0.0-208.0-0.0","41573508","wem/bandit_party_1","ABS3F4WC2JSRG","either","7","349","","","","","","","0","0","1","","0.4537582576","0.4","0.2","0.8","0.6","0.4537582576","0.1888750078","0.2496457694","0.1714029316","","","","","","","","","","","","","","72","H","0","img/none_selected.jpg","","167","main_expt","",""
"","bandit","249","702565","0.0-209.0-0.0","41573508","wem/bandit_party_1","ABS3F4WC2JSRG","either","7","271","","","","","","","0","0","1","","0.4473485534","0.4","0.2","0.8","0.6","0.4473485534","0.2315683769","0.234558796","0.1494402723","","","","","","","","","","","","","","72","H","0","img/none_selected.jpg","","168","main_expt","",""
"","bandit","250","704403","0.0-210.0-0.0","41573508","wem/bandit_party_1","ABS3F4WC2JSRG","either","7","284","","","","","","","1","0","0","0.4471591033","","0.4","0.2","0.8","0.6","","","","","0.4471591033","0.2018123945","0.2458600006","0.1819888556","","","","","","","","","","72","H","0","img/none_selected.jpg","","169","main_expt","",""
"","bandit","251","706350","0.0-211.0-0.0","41573508","wem/bandit_party_1","ABS3F4WC2JSRG","either","7","400","","","","","","","1","0","0","0.4581839475","","0.4","0.2","0.8","0.6","","","","","0.4581839475","0.139238222","0.2214583157","0.2329206984","","","","","","","","","","72","H","0","img/none_selected.jpg","","170","main_expt","",""
"","bandit","252","708404","0.0-212.0-0.0","41573508","wem/bandit_party_1","ABS3F4WC2JSRG","either","7","511","","","","","","","1","0","0","0.4674995421","","0.4","0.2","0.8","0.6","","","","","0.4674995421","0.1466511374","0.296208115","0.2000607923","","","","","","","","","","72","H","0","img/none_selected.jpg","","171","main_expt","",""
"","bandit","253","710322","0.0-213.0-0.0","41573508","wem/bandit_party_1","ABS3F4WC2JSRG","either","7","387","","","","","","","0","0","1","0.4455620345","","0.4","0.2","0.8","0.6","","","","","0.4455620345","0.1348290388","0.3062379281","0.2342957318","","","","","","","","","","72","H","0","img/none_selected.jpg","","172","main_expt","",""
"","bandit","254","712926","0.0-214.0-0.0","41573508","wem/bandit_party_1","ABS3F4WC2JSRG","either","7","1052","","","","","","","0","0","1","0.2189308077","","0.4","0.2","0.8","0.6","","","","","0.4471610379","0.1521691919","0.2498067723","0.2189308077","","","","","","","","","","76","L","3","","","173","main_expt","",""
"","bandit","255","714924","0.0-215.0-0.0","41573508","wem/bandit_party_1","ABS3F4WC2JSRG","either","7","451","","","","","","","0","0","1","","0.2191935525","0.4","0.2","0.8","0.6","0.4496576915","0.2191935525","0.1803522277","0.2373932689","","","","","","","","","","","","","","74","J","1","","","174","main_expt","",""
"","bandit","256","716825","0.0-216.0-0.0","41573508","wem/bandit_party_1","ABS3F4WC2JSRG","either","7","354","","","","","","","0","0","1","","0.219961305","0.4","0.2","0.8","0.6","0.4715297358","0.219961305","0.2014319342","0.2160264752","","","","","","","","","","","","","","74","J","1","","","175","main_expt","",""
"","bandit","257","718665","0.0-217.0-0.0","41573508","wem/bandit_party_1","ABS3F4WC2JSRG","either","7","298","","","","","","","0","0","1","0.1882485239","","0.4","0.2","0.8","0.6","","","","","0.477956151","0.1882485239","0.2122003168","0.1990604306","","","","","","","","","","74","J","1","","","176","main_expt","",""
"","bandit","258","720490","0.0-218.0-0.0","41573508","wem/bandit_party_1","ABS3F4WC2JSRG","either","7","269","","","","","","","0","0","1","","0.1644902553","0.4","0.2","0.8","0.6","0.4563721206","0.1644902553","0.2629069455","0.1729978196","","","","","","","","","","","","","","74","J","1","","","177","main_expt","",""
"","bandit","259","722441","0.0-219.0-0.0","41573508","wem/bandit_party_1","ABS3F4WC2JSRG","either","7","413","","","","","","","0","0","1","","0.1713669852","0.4","0.2","0.8","0.6","0.4409869931","0.1713669852","0.2336104206","0.1633080779","","","","","","","","","","","","","","74","J","1","","","178","main_expt","",""
"","bandit","260","724250","0.0-220.0-0.0","41573508","wem/bandit_party_1","ABS3F4WC2JSRG","either","7","274","","","","","","","0","1","0","","0.2263400462","0.4","0.2","0.8","0.6","0.4243126063","0.2263400462","0.1887504226","0.1243251356","","","","","","","","","","","","","","74","J","1","","","179","main_expt","",""
"","bandit","261","726163","0.0-221.0-0.0","41573508","wem/bandit_party_1","ABS3F4WC2JSRG","either","7","356","","","","","","","0","0","1","0.2036870175","","0.4","0.2","0.8","0.6","","","","","0.4312830743","0.2036870175","0.138376641","0.1150149055","","","","","","","","","","74","J","1","","","180","main_expt","",""
"","bandit","262","728174","0.0-222.0-0.0","41573508","wem/bandit_party_1","ABS3F4WC2JSRG","either","7","453","","","","","","","0","0","1","0.1883992559","","0.4","0.2","0.8","0.6","","","","","0.4433127893","0.1934599198","0.1883992559","0.1407924877","","","","","","","","","","75","K","2","","","181","main_expt","",""
"","bandit","263","730063","0.0-223.0-0.0","41573508","wem/bandit_party_1","ABS3F4WC2JSRG","either","7","344","","","","","","","0","0","1","0.128889003","","0.4","0.2","0.8","0.6","","","","","0.440136403","0.2424515525","0.128889003","0.09672650852","","","","","","","","","","75","K","2","","","182","main_expt","",""
"","bandit","264","731915","0.0-224.0-0.0","41573508","wem/bandit_party_1","ABS3F4WC2JSRG","either","7","303","","","","","","","0","0","1","0.09888002855","","0.4","0.2","0.8","0.6","","","","","0.4347693449","0.1961777535","0.1748769843","0.09888002855","","","","","","","","","","76","L","3","","","183","main_expt","",""
"","bandit","265","733758","0.0-225.0-0.0","41573508","wem/bandit_party_1","ABS3F4WC2JSRG","either","7","298","","","","","","","0","0","1","0.07200145298","","0.4","0.2","0.8","0.6","","","","","0.4277130926","0.1489283113","0.1945994373","0.07200145298","","","","","","","","","","76","L","3","","","184","main_expt","",""
"","bandit","266","735707","0.0-226.0-0.0","41573508","wem/bandit_party_1","ABS3F4WC2JSRG","either","7","417","","","","","","","0","0","1","0.1499965078","","0.4","0.2","0.8","0.6","","","","","0.3956248437","0.1499965078","0.1644748654","0.09476413333","","","","","","","","","","74","J","1","","","185","main_expt","",""
"","bandit","267","737548","0.0-227.0-0.0","41573508","wem/bandit_party_1","ABS3F4WC2JSRG","either","7","297","","","","","","","0","0","1","","0.2169832988","0.4","0.2","0.8","0.6","0.3748928266","0.2169832988","0.1504635592","0.06556422103","","","","","","","","","","","","","","74","J","1","","","186","main_expt","",""
"","bandit","268","739466","0.0-228.0-0.0","41573508","wem/bandit_party_1","ABS3F4WC2JSRG","either","7","367","","","","","","","0","0","1","","0.08901149072","0.4","0.2","0.8","0.6","0.3848139325","0.2655186329","0.1760039214","0.08901149072","","","","","","","","","","","","","","76","L","3","","","187","main_expt","",""
"","bandit","269","741382","0.0-229.0-0.0","41573508","wem/bandit_party_1","ABS3F4WC2JSRG","either","7","384","","","","","","","0","0","1","0.1203267588","","0.4","0.2","0.8","0.6","","","","","0.3990176401","0.2738785118","0.1203267588","0.09471428588","","","","","","","","","","75","K","2","","","188","main_expt","",""
"","bandit","270","744022","0.0-230.0-0.0","41573508","wem/bandit_party_1","ABS3F4WC2JSRG","either","7","1094","","","","","","","0","0","1","0.3041874674","","0.4","0.2","0.8","0.6","","","","","0.3581396838","0.3041874674","0.1171540391","0.05118235823","","","","","","","","","","74","J","1","","","189","main_expt","",""
"","bandit","271","746325","0.0-231.0-0.0","41573508","wem/bandit_party_1","ABS3F4WC2JSRG","either","7","759","","","","","","","0","0","1","0.1535230761","","0.4","0.2","0.8","0.6","","","","","0.2882972244","0.3229453735","0.1535230761","0.05788318751","","","","","","","","","","75","K","2","","","190","main_expt","",""
"","bandit","272","748748","0.0-232.0-0.0","41573508","wem/bandit_party_1","ABS3F4WC2JSRG","either","7","867","","","","","","","0","0","1","0.3145326233","","0.4","0.2","0.8","0.6","","","","","0.3145326233","0.3818249757","0.1372750947","0.08736915481","","","","","","","","","","72","H","0","img/none_selected.jpg","","191","main_expt","",""
"","bandit","273","750754","0.0-233.0-0.0","41573508","wem/bandit_party_1","ABS3F4WC2JSRG","either","7","453","","","","","","","0","0","1","0.08251019118","","0.4","0.2","0.8","0.6","","","","","0.3270603702","0.4157726243","0.1047771501","0.08251019118","","","","","","","","","","76","L","3","","","192","main_expt","",""
"","bandit","274","752533","0.0-234.0-0.0","41573508","wem/bandit_party_1","ABS3F4WC2JSRG","either","7","225","","","","","","","0","1","0","","0.4611608212","0.4","0.2","0.8","0.6","0.3604030797","0.4611608212","0.1100845432","0.06897628064","","","","","","","","","","","","","","74","J","1","","","193","main_expt","",""
"","bandit","275","754594","0.0-235.0-0.0","41573508","wem/bandit_party_1","ABS3F4WC2JSRG","either","7","521","","","","","","","0","1","0","","0.1468163818","0.4","0.2","0.8","0.6","0.357423186","0.4508818777","0.1468163818","0.06801266305","","","","","","","","","","","","","","75","K","2","","","194","main_expt","",""
"","bandit","276","756458","0.0-236.0-0.0","41573508","wem/bandit_party_1","ABS3F4WC2JSRG","either","7","308","","","","","","","0","1","0","","0.4278921451","0.4","0.2","0.8","0.6","0.3697779856","0.4278921451","0.1495594621","0.09923709358","","","","","","","","","","","","","","74","J","1","","","195","main_expt","",""
"","bandit","277","758401","0.0-237.0-0.0","41573508","wem/bandit_party_1","ABS3F4WC2JSRG","either","7","389","","","","","","","0","0","1","","0.2263220537","0.4","0.2","0.8","0.6","0.3617177512","0.4256293003","0.2263220537","0.1103063831","","","","","","","","","","","","","","75","K","2","","","196","main_expt","",""
"","bandit","278","761184","0.0-238.0-0.0","41573508","wem/bandit_party_1","ABS3F4WC2JSRG","either","7","1238","","","","","","","0","0","1","0.3775990084","","0.4","0.2","0.8","0.6","","","","","0.3775990084","0.4476975038","0.2204718804","0.07377144043","","","","","","","","","","72","H","0","img/none_selected.jpg","","197","main_expt","",""
"","bandit","279","763082","0.0-239.0-0.0","41573508","wem/bandit_party_1","ABS3F4WC2JSRG","either","7","337","","","","","","","0","0","1","","0.4434357272","0.4","0.2","0.8","0.6","0.4144042571","0.4434357272","0.2401118457","0.08863448313","","","","","","","","","","","","","","74","J","1","","","198","main_expt","",""
"","bandit","280","764891","0.0-240.0-0.0","41573508","wem/bandit_party_1","ABS3F4WC2JSRG","either","7","264","","","","","","","0","0","1","","0.2673724497","0.4","0.2","0.8","0.6","0.4081775392","0.4245114622","0.2673724497","0.1082179128","","","","","","","","","","","","","","75","K","2","","","199","main_expt","",""
"","bandit","281","766697","0.0-241.0-0.0","41573508","wem/bandit_party_1","ABS3F4WC2JSRG","either","7","258","","","","","","","0","0","1","0.09350688576","","0.4","0.2","0.8","0.6","","","","","0.4166156547","0.4087100315","0.3125307902","0.09350688576","","","","","","","","","","76","L","3","","","200","main_expt","",""
"","bandit","282","768469","0.0-242.0-0.0","41573508","wem/bandit_party_1","ABS3F4WC2JSRG","either","7","230","","","","","","","0","0","1","0.2914574258","","0.4","0.2","0.8","0.6","","","","","0.4306537176","0.4361521275","0.2914574258","0.1036625099","","","","","","","","","","75","K","2","","","201","main_expt","",""
"","bandit","283","770299","0.0-243.0-0.0","41573508","wem/bandit_party_1","ABS3F4WC2JSRG","either","7","285","","","","","","","0","0","1","0.3332596158","","0.4","0.2","0.8","0.6","","","","","0.449382563","0.3332596158","0.2550600684","0.1216733889","","","","","","","","","","74","J","1","","","202","main_expt","",""
"","bandit","284","772094","0.0-244.0-0.0","41573508","wem/bandit_party_1","ABS3F4WC2JSRG","either","7","252","","","","","","","0","0","1","0.2769745997","","0.4","0.2","0.8","0.6","","","","","0.4506576586","0.3581848779","0.2769745997","0.120655788","","","","","","","","","","75","K","2","","","203","main_expt","",""
"","bandit","285","774090","0.0-245.0-0.0","41573508","wem/bandit_party_1","ABS3F4WC2JSRG","either","7","458","","","","","","","0","0","1","","0.1082970726","0.4","0.2","0.8","0.6","0.454839243","0.3597133043","0.2752990059","0.1082970726","","","","","","","","","","","","","","76","L","3","","","204","main_expt","",""
"","bandit","286","776003","0.0-246.0-0.0","41573508","wem/bandit_party_1","ABS3F4WC2JSRG","either","7","370","","","","","","","0","0","1","","0.2901512169","0.4","0.2","0.8","0.6","0.4512889682","0.3630183988","0.2901512169","0.09143681274","","","","","","","","","","","","","","75","K","2","","","205","main_expt","",""
"","bandit","287","777814","0.0-247.0-0.0","41573508","wem/bandit_party_1","ABS3F4WC2JSRG","either","7","250","","","","","","","0","0","1","","0.3737494834","0.4","0.2","0.8","0.6","0.4591490044","0.3737494834","0.2823763913","0.08377413986","","","","","","","","","","","","","","74","J","1","","","206","main_expt","",""
"","bandit","288","779849","0.0-248.0-0.0","41573508","wem/bandit_party_1","ABS3F4WC2JSRG","either","7","492","","","","","","","0","1","0","","0.4650593633","0.4","0.2","0.8","0.6","0.4650593633","0.3668784438","0.2708062506","0.1585073664","","","","","","","","","","","","","","72","H","0","img/none_selected.jpg","","207","main_expt","",""
"","bandit","289","781800","0.0-249.0-0.0","41573508","wem/bandit_party_1","ABS3F4WC2JSRG","either","7","407","","","","","","","0","0","1","","0.4641513068","0.4","0.2","0.8","0.6","0.4641513068","0.4045351895","0.2641553663","0.162299901","","","","","","","","","","","","","","72","H","0","img/none_selected.jpg","","208","main_expt","",""
"","bandit","290","783404","0.0-250.0-0.0","41573508","wem/bandit_party_1","ABS3F4WC2JSRG","either","7","61","","","","","","","0","0","1","0.2704675845","","0.4","0.2","0.8","0.6","","","","","0.4567807332","0.4402386934","0.2704675845","0.1542266077","","","","","","","","","","75","K","2","","","209","main_expt","",""
"","bandit","291","785244","0.0-251.0-0.0","41573508","wem/bandit_party_1","ABS3F4WC2JSRG","either","7","284","","","","","","","0","0","1","","0.4483623408","0.4","0.2","0.8","0.6","0.428253188","0.4483623408","0.3420868926","0.1890415559","","","","","","","","","","","","","","74","J","1","","","210","main_expt","",""
"","bandit","292","787081","0.0-252.0-0.0","41573508","wem/bandit_party_1","ABS3F4WC2JSRG","either","7","290","","","","","","","0","1","0","","0.4471415093","0.4","0.2","0.8","0.6","0.410271385","0.4471415093","0.3069688952","0.1818133019","","","","","","","","","","","","","","74","J","1","","","211","main_expt","",""
"","bandit","293","789006","0.0-253.0-0.0","41573508","wem/bandit_party_1","ABS3F4WC2JSRG","either","7","387","","","","","","","1","0","0","0.1782747956","","0.4","0.2","0.8","0.6","","","","","0.4065587724","0.4374655127","0.3005379093","0.1782747956","","","","","","","","","","76","L","3","","","212","main_expt","",""
"","bandit","294","790983","0.0-254.0-0.0","41573508","wem/bandit_party_1","ABS3F4WC2JSRG","either","7","434","","","","","","","0","0","1","","0.1935195711","0.4","0.2","0.8","0.6","0.4007116542","0.4381457257","0.213882915","0.1935195711","","","","","","","","","","","","","","76","L","3","","","213","main_expt","",""
"","bandit","295","792824","0.0-255.0-0.0","41573508","wem/bandit_party_1","ABS3F4WC2JSRG","either","7","286","","","","","","","0","0","1","0.2138557204","","0.4","0.2","0.8","0.6","","","","","0.4246209323","0.4643769008","0.2138557204","0.2421176173","","","","","","","","","","75","K","2","","","214","main_expt","",""
"","bandit","296","794645","0.0-256.0-0.0","41573508","wem/bandit_party_1","ABS3F4WC2JSRG","either","7","270","","","","","","","0","0","1","0.2142566612","","0.4","0.2","0.8","0.6","","","","","0.3993057066","0.4328812357","0.2142566612","0.2629876012","","","","","","","","","","75","K","2","","","215","main_expt","",""
"","bandit","297","796575","0.0-257.0-0.0","41573508","wem/bandit_party_1","ABS3F4WC2JSRG","either","7","376","","","","","","","0","1","0","","0.4064507999","0.4","0.2","0.8","0.6","0.3987772474","0.4064507999","0.1900351118","0.2977714141","","","","","","","","","","","","","","74","J","1","","","216","main_expt","",""
"","bandit","298","798445","0.0-258.0-0.0","41573508","wem/bandit_party_1","ABS3F4WC2JSRG","either","7","304","","","","","","","0","0","1","","0.4101433534","0.4","0.2","0.8","0.6","0.4101433534","0.4197961641","0.2185169477","0.3017601552","","","","","","","","","","","","","","72","H","0","img/none_selected.jpg","","217","main_expt","",""
"","bandit","299","800438","0.0-259.0-0.0","41573508","wem/bandit_party_1","ABS3F4WC2JSRG","either","7","450","","","","","","","0","0","1","","0.4167397569","0.4","0.2","0.8","0.6","0.4448029092","0.4167397569","0.2240895604","0.2888566207","","","","","","","","","","","","","","74","J","1","","","218","main_expt","",""
"","bandit","300","802220","0.0-260.0-0.0","41573508","wem/bandit_party_1","ABS3F4WC2JSRG","either","7","235","","","","","","","0","0","1","","0.4250944588","0.4","0.2","0.8","0.6","0.4454766299","0.4250944588","0.1990808675","0.2844008008","","","","","","","","","","","","","","74","J","1","","","219","main_expt","",""
"","bandit","301","804174","0.0-261.0-0.0","41573508","wem/bandit_party_1","ABS3F4WC2JSRG","either","7","400","","","","","","","0","0","1","","0.4610997771","0.4","0.2","0.8","0.6","0.4610997771","0.4173336587","0.266602996","0.2225062479","","","","","","","","","","","","","","72","H","0","img/none_selected.jpg","","220","main_expt","",""
"","bandit","302","806062","0.0-262.0-0.0","41573508","wem/bandit_party_1","ABS3F4WC2JSRG","either","7","351","","","","","","","0","0","1","0.2443661227","","0.4","0.2","0.8","0.6","","","","","0.4642289789","0.3944711005","0.2443661227","0.2409900116","","","","","","","","","","75","K","2","","","221","main_expt","",""
"","bandit","303","807731","0.0-263.0-0.0","41573508","wem/bandit_party_1","ABS3F4WC2JSRG","either","7","121","","","","","","","0","1","0","","0.3619306912","0.4","0.2","0.8","0.6","0.4641270597","0.3619306912","0.2205922116","0.1989678636","","","","","","","","","","","","","","74","J","1","","","222","main_expt","",""
"","bandit","304","809541","0.0-264.0-0.0","41573508","wem/bandit_party_1","ABS3F4WC2JSRG","either","7","275","","","","","","","0","0","1","","0.4117842179","0.4","0.2","0.8","0.6","0.4697433819","0.4117842179","0.1861223506","0.1902867071","","","","","","","","","","","","","","74","J","1","","","223","main_expt","",""
"","bandit","305","811443","0.0-265.0-0.0","41573508","wem/bandit_party_1","ABS3F4WC2JSRG","either","7","355","","","","","","","0","0","1","","0.460898083","0.4","0.2","0.8","0.6","0.460898083","0.3965092367","0.1668884863","0.2076415522","","","","","","","","","","","","","","72","H","0","img/none_selected.jpg","","224","main_expt","",""
"","bandit","306","813253","0.0-266.0-0.0","41573508","wem/bandit_party_1","ABS3F4WC2JSRG","either","7","272","","","","","","","0","1","0","","0.4394890665","0.4","0.2","0.8","0.6","0.4394890665","0.4084477862","0.1481472712","0.2393469174","","","","","","","","","","","","","","72","H","0","img/none_selected.jpg","","225","main_expt","",""
"","bandit","307","815520","0.0-267.0-0.0","41573508","wem/bandit_party_1","ABS3F4WC2JSRG","either","7","709","","","","","","","0","0","1","","0.1140846591","0.4","0.2","0.8","0.6","0.4520955237","0.4104601526","0.1140846591","0.2425440376","","","","","","","","","","","","","","75","K","2","","","226","main_expt","",""
"","bandit","308","817498","0.0-268.0-0.0","41573508","wem/bandit_party_1","ABS3F4WC2JSRG","either","7","423","","","","","","","0","1","0","","0.4324220164","0.4","0.2","0.8","0.6","0.4324220164","0.3899733519","0.1074218354","0.2365603363","","","","","","","","","","","","","","72","H","0","img/none_selected.jpg","","227","main_expt","",""
"","bandit","309","819370","0.0-269.0-0.0","41573508","wem/bandit_party_1","ABS3F4WC2JSRG","either","7","323","","","","","","","0","0","1","0.2127958296","","0.4","0.2","0.8","0.6","","","","","0.4220482421","0.3796730737","0.08065165665","0.2127958296","","","","","","","","","","76","L","3","","","228","main_expt","",""
"","bandit","310","821273","0.0-270.0-0.0","41573508","wem/bandit_party_1","ABS3F4WC2JSRG","either","7","350","","","","","","","0","0","1","","0.3885749154","0.4","0.2","0.8","0.6","0.3885749154","0.4046866514","0.07774059362","0.2207861463","","","","","","","","","","","","","","72","H","0","img/none_selected.jpg","","229","main_expt","",""
"","bandit","311","823298","0.0-271.0-0.0","41573508","wem/bandit_party_1","ABS3F4WC2JSRG","either","7","482","","","","","","","0","0","1","0.3988793555","","0.4","0.2","0.8","0.6","","","","","0.4023755806","0.3988793555","0.1109483114","0.2589226453","","","","","","","","","","74","J","1","","","230","main_expt","",""
"","bandit","312","825184","0.0-272.0-0.0","41573508","wem/bandit_party_1","ABS3F4WC2JSRG","either","7","341","","","","","","","0","0","1","0.3768725222","","0.4","0.2","0.8","0.6","","","","","0.3768725222","0.3981898202","0.05902300203","0.2956158432","","","","","","","","","","72","H","0","img/none_selected.jpg","","231","main_expt","",""
"","bandit","313","827037","0.0-273.0-0.0","41573508","wem/bandit_party_1","ABS3F4WC2JSRG","either","7","308","","","","","","","0","0","1","0.06675855664","","0.4","0.2","0.8","0.6","","","","","0.3619917427","0.4411941832","0.06675855664","0.3202484073","","","","","","","","","","75","K","2","","","232","main_expt","",""
"","bandit","314","828817","0.0-274.0-0.0","41573508","wem/bandit_party_1","ABS3F4WC2JSRG","either","7","238","","","","","","","0","0","1","","0.2933644042","0.4","0.2","0.8","0.6","0.3833578816","0.42967461","0.06703699679","0.2933644042","","","","","","","","","","","","","","76","L","3","","","233","main_expt","",""
