"consent","trial_type","trial_index","time_elapsed","internal_node_id","subjID","study","MID","cond","drift","rt","responses","button_pressed","key_press","like","value","connected","gems","bombs","no_reward","GemPrChosen","BombPrChosen","GainOverPainPr_0","GainOverPainPr_1","GainOverPainPr_2","GainOverPainPr_3","LosePr_0","LosePr_1","LosePr_2","LosePr_3","WinPr_0","WinPr_1","WinPr_2","WinPr_3","Q0","Q1","Q2","gender","age","ethnicity","label","expt_phase","target","respCharCode","respKey","respChoiceNum","respChoice","practice","trial_counter","trial_label","Q0_index"
"GDM/GDM_behavioral_consent_30min_online.html","consent","0","29289","0.0-0.0","42436666","wem/bandit_party_1","A28N97P3R495WM","either","8","","","","","","","","","","","","","","","","","","","","","","","","","","","","","","","","","","","","","","","","",""
"","survey-text","1","36945","0.0-1.0","42436666","wem/bandit_party_1","A28N97P3R495WM","either","8","6648","{""Q0"":""A28N97P3R495WM""}","","","","","","","","","","","","","","","","","","","","","","","","","","","","","","","","","","","","","","",""
"","button-response","2","39455","0.0-2.0","42436666","wem/bandit_party_1","A28N97P3R495WM","either","8","1505","","0","","","","","","","","","","","","","","","","","","","","","","","","","","","","","","","","","","","","","",""
"","text-replacement","3","50523","0.0-3.0","42436666","wem/bandit_party_1","A28N97P3R495WM","either","8","10065","","","32","","","","","","","","","","","","","","","","","","","","","","","","","","","","","","","","","","","","",""
"","text-replacement","4","61183","0.0-4.0","42436666","wem/bandit_party_1","A28N97P3R495WM","either","8","10658","","","32","","","","","","","","","","","","","","","","","","","","","","","","","","","","","","","","","","","","",""
"","identification","5","67881","0.0-6.0-0.0","42436666","wem/bandit_party_1","A28N97P3R495WM","either","8","6686","","","","6","6","6","","","","","","","","","","","","","","","","","","","","","","","","pre","identification_pre","the Republican party","","","","","","","",""
"","identification","6","79737","0.0-6.0-1.0","42436666","wem/bandit_party_1","A28N97P3R495WM","either","8","10845","","","","3","2","1","","","","","","","","","","","","","","","","","","","","","","","","pre","identification_pre","the Democratic Party","","","","","","","",""
"","text-replacement","7","142246","0.0-7.0","42436666","wem/bandit_party_1","A28N97P3R495WM","either","8","61507","","","32","","","","","","","","","","","","","","","","","","","","","","","","","","","","","","","","","","","","",""
"","text-replacement","8","149714","0.0-8.0","42436666","wem/bandit_party_1","A28N97P3R495WM","either","8","7466","","","32","","","","","","","","","","","","","","","","","","","","","","","","","","","","","","","","","","","","",""
"","text-replacement","9","164106","0.0-9.0","42436666","wem/bandit_party_1","A28N97P3R495WM","either","8","14391","","","32","","","","","","","","","","","","","","","","","","","","","","","","","","","","","","","","","","","","",""
"","text-replacement","10","168003","0.0-10.0","42436666","wem/bandit_party_1","A28N97P3R495WM","either","8","3896","","","32","","","","","","","","","","","","","","","","","","","","","","","","","","","","","","","","","","","","",""
"","text-replacement","11","172519","0.0-11.0","42436666","wem/bandit_party_1","A28N97P3R495WM","either","8","4514","","","32","","","","","","","","","","","","","","","","","","","","","","","","","","","","","","","","","","","","",""
"","bandit","12","179847","0.0-12.0-0.0","42436666","wem/bandit_party_1","A28N97P3R495WM","either","8","5822","","","","","","","0","0","1","0","0","","","","","0","","","","0","","","","","","","","","","","","","74","J","0","img/none_selected_demo.jpg","true","0","",""
"","bandit","13","183126","0.0-13.0-0.0","42436666","wem/bandit_party_1","A28N97P3R495WM","either","8","1774","","","","","","","0","0","1","0","0","","","","","0","","","","0","","","","","","","","","","","","","75","K","0","img/none_selected_demo.jpg","true","0","",""
"","text-replacement","14","188859","0.0-14.0","42436666","wem/bandit_party_1","A28N97P3R495WM","either","8","5731","","","32","","","","","","","","","","","","","","","","","","","","","","","","","","","","","","","","","","","","",""
"","text-replacement","15","195221","0.0-15.0","42436666","wem/bandit_party_1","A28N97P3R495WM","either","8","6361","","","32","","","","","","","","","","","","","","","","","","","","","","","","","","","","","","","","","","","","",""
"","text-replacement","16","201580","0.0-16.0","42436666","wem/bandit_party_1","A28N97P3R495WM","either","8","6357","","","32","","","","","","","","","","","","","","","","","","","","","","","","","","","","","","","","","","","","",""
"","text-replacement","17","205617","0.0-17.0","42436666","wem/bandit_party_1","A28N97P3R495WM","either","8","4035","","","32","","","","","","","","","","","","","","","","","","","","","","","","","","","","","","","","","","","","",""
"","bandit","18","208612","0.0-18.0-0.0","42436666","wem/bandit_party_1","A28N97P3R495WM","either","8","1491","","","","","","","1","0","0","0.8","","0.5","0.5","","","","","","","0.8","0.2","","","","","","","","","","","","74","J","0","img/none_selected_demo.jpg","true","0","80_20_practice",""
"","bandit","19","210618","0.0-18.0-1.0","42436666","wem/bandit_party_1","A28N97P3R495WM","either","8","499","","","","","","","0","1","0","","0.8","0.5","0.5","","","0.8","0.2","","","","","","","","","","","","","","","","74","J","0","img/none_selected_demo.jpg","true","0","80_20_practice",""
"","bandit","20","212427","0.0-18.0-2.0","42436666","wem/bandit_party_1","A28N97P3R495WM","either","8","305","","","","","","","1","0","0","0.8","","0.5","0.5","","","","","","","0.8","0.2","","","","","","","","","","","","74","J","0","img/none_selected_demo.jpg","true","0","80_20_practice",""
"","bandit","21","214440","0.0-18.0-3.0","42436666","wem/bandit_party_1","A28N97P3R495WM","either","8","508","","","","","","","0","1","0","","0.8","0.5","0.5","","","0.8","0.2","","","","","","","","","","","","","","","","74","J","0","img/none_selected_demo.jpg","true","0","80_20_practice",""
"","bandit","22","216209","0.0-18.0-4.0","42436666","wem/bandit_party_1","A28N97P3R495WM","either","8","266","","","","","","","0","1","0","","0.8","0.5","0.5","","","0.8","0.2","","","","","","","","","","","","","","","","74","J","0","img/none_selected_demo.jpg","true","0","80_20_practice",""
"","bandit","23","218091","0.0-18.0-5.0","42436666","wem/bandit_party_1","A28N97P3R495WM","either","8","378","","","","","","","1","0","0","0.8","","0.5","0.5","","","","","","","0.8","0.2","","","","","","","","","","","","74","J","0","img/none_selected_demo.jpg","true","0","80_20_practice",""
"","bandit","24","220090","0.0-18.0-6.0","42436666","wem/bandit_party_1","A28N97P3R495WM","either","8","493","","","","","","","0","1","0","","0.8","0.5","0.5","","","0.8","0.2","","","","","","","","","","","","","","","","74","J","0","img/none_selected_demo.jpg","true","0","80_20_practice",""
"","bandit","25","221868","0.0-18.0-7.0","42436666","wem/bandit_party_1","A28N97P3R495WM","either","8","273","","","","","","","1","0","0","0.2","","0.5","0.5","","","","","","","0.8","0.2","","","","","","","","","","","","75","K","1","","true","0","80_20_practice",""
"","bandit","26","223594","0.0-18.0-8.0","42436666","wem/bandit_party_1","A28N97P3R495WM","either","8","221","","","","","","","0","0","1","0.2","","0.5","0.5","","","","","","","0.8","0.2","","","","","","","","","","","","75","K","1","","true","0","80_20_practice",""
"","bandit","27","225495","0.0-18.0-9.0","42436666","wem/bandit_party_1","A28N97P3R495WM","either","8","396","","","","","","","0","0","1","","0.2","0.5","0.5","","","0.8","0.2","","","","","","","","","","","","","","","","75","K","1","","true","0","80_20_practice",""
"","bandit","28","227481","0.0-18.0-10.0","42436666","wem/bandit_party_1","A28N97P3R495WM","either","8","482","","","","","","","1","0","0","0.8","","0.5","0.5","","","","","","","0.8","0.2","","","","","","","","","","","","74","J","0","img/none_selected_demo.jpg","true","0","80_20_practice",""
"","bandit","29","229027","0.0-18.0-11.0","42436666","wem/bandit_party_1","A28N97P3R495WM","either","8","41","","","","","","","0","1","0","","0.8","0.5","0.5","","","0.8","0.2","","","","","","","","","","","","","","","","74","J","0","img/none_selected_demo.jpg","true","0","80_20_practice",""
"","bandit","30","232332","0.0-18.0-12.0","42436666","wem/bandit_party_1","A28N97P3R495WM","either","8","1802","","","","","","","1","0","0","0.8","","0.5","0.5","","","","","","","0.8","0.2","","","","","","","","","","","","74","J","0","img/none_selected_demo.jpg","true","0","80_20_practice",""
"","bandit","31","234178","0.0-18.0-13.0","42436666","wem/bandit_party_1","A28N97P3R495WM","either","8","342","","","","","","","0","1","0","","0.8","0.5","0.5","","","0.8","0.2","","","","","","","","","","","","","","","","74","J","0","img/none_selected_demo.jpg","true","0","80_20_practice",""
"","bandit","32","235982","0.0-18.0-14.0","42436666","wem/bandit_party_1","A28N97P3R495WM","either","8","298","","","","","","","0","1","0","","0.8","0.5","0.5","","","0.8","0.2","","","","","","","","","","","","","","","","74","J","0","img/none_selected_demo.jpg","true","0","80_20_practice",""
"","bandit","33","237716","0.0-18.0-15.0","42436666","wem/bandit_party_1","A28N97P3R495WM","either","8","227","","","","","","","0","1","0","","0.8","0.5","0.5","","","0.8","0.2","","","","","","","","","","","","","","","","74","J","0","img/none_selected_demo.jpg","true","0","80_20_practice",""
"","bandit","34","239460","0.0-18.0-16.0","42436666","wem/bandit_party_1","A28N97P3R495WM","either","8","240","","","","","","","1","0","0","0.8","","0.5","0.5","","","","","","","0.8","0.2","","","","","","","","","","","","74","J","0","img/none_selected_demo.jpg","true","0","80_20_practice",""
"","bandit","35","241193","0.0-18.0-17.0","42436666","wem/bandit_party_1","A28N97P3R495WM","either","8","227","","","","","","","0","1","0","","0.8","0.5","0.5","","","0.8","0.2","","","","","","","","","","","","","","","","74","J","0","img/none_selected_demo.jpg","true","0","80_20_practice",""
"","bandit","36","242849","0.0-18.0-18.0","42436666","wem/bandit_party_1","A28N97P3R495WM","either","8","152","","","","","","","0","1","0","","0.8","0.5","0.5","","","0.8","0.2","","","","","","","","","","","","","","","","74","J","0","img/none_selected_demo.jpg","true","0","80_20_practice",""
"","bandit","37","244633","0.0-18.0-19.0","42436666","wem/bandit_party_1","A28N97P3R495WM","either","8","280","","","","","","","0","1","0","","0.8","0.5","0.5","","","0.8","0.2","","","","","","","","","","","","","","","","74","J","0","img/none_selected_demo.jpg","true","0","80_20_practice",""
"","text-replacement","38","251165","0.0-19.0","42436666","wem/bandit_party_1","A28N97P3R495WM","either","8","6530","","","32","","","","","","","","","","","","","","","","","","","","","","","","","","","","","","","","","","","","",""
"","bandit","39","254674","0.0-20.0-0.0","42436666","wem/bandit_party_1","A28N97P3R495WM","either","8","2003","","","","","","","1","0","0","1","0","","","","","0","1","","","1","0","","","","","","","","","","","","74","J","0","img/none_selected_demo.jpg","true","0","",""
"","text-replacement","40","258696","0.0-21.0","42436666","wem/bandit_party_1","A28N97P3R495WM","either","8","4020","","","32","","","","","","","","","","","","","","","","","","","","","","","","","","","","","","","","","","","","",""
"","text-replacement","41","263083","0.0-22.0","42436666","wem/bandit_party_1","A28N97P3R495WM","either","8","4385","","","32","","","","","","","","","","","","","","","","","","","","","","","","","","","","","","","","","","","","",""
"","text-replacement","42","266008","0.0-23.0","42436666","wem/bandit_party_1","A28N97P3R495WM","either","8","2924","","","32","","","","","","","","","","","","","","","","","","","","","","","","","","","","","","","","","","","","",""
"","text-replacement","43","269340","0.0-24.0","42436666","wem/bandit_party_1","A28N97P3R495WM","either","8","3330","","","32","","","","","","","","","","","","","","","","","","","","","","","","","","","","","","","","","","","","",""
"","text-replacement","44","278410","0.0-25.0","42436666","wem/bandit_party_1","A28N97P3R495WM","either","8","9069","","","32","","","","","","","","","","","","","","","","","","","","","","","","","","","","","","","","","","","","",""
"","text-replacement","45","281177","0.0-26.0","42436666","wem/bandit_party_1","A28N97P3R495WM","either","8","2766","","","32","","","","","","","","","","","","","","","","","","","","","","","","","","","","","","","","","","","","",""
"","text-replacement","46","285251","0.0-27.0","42436666","wem/bandit_party_1","A28N97P3R495WM","either","8","4071","","","32","","","","","","","","","","","","","","","","","","","","","","","","","","","","","","","","","","","","",""
"","text-replacement","47","288285","0.0-28.0","42436666","wem/bandit_party_1","A28N97P3R495WM","either","8","3032","","","32","","","","","","","","","","","","","","","","","","","","","","","","","","","","","","","","","","","","",""
"","text-replacement","48","291616","0.0-29.0","42436666","wem/bandit_party_1","A28N97P3R495WM","either","8","3331","","","32","","","","","","","","","","","","","","","","","","","","","","","","","","","","","","","","","","","","",""
"","text-replacement","49","293459","0.0-30.0","42436666","wem/bandit_party_1","A28N97P3R495WM","either","8","1842","","","32","","","","","","","","","","","","","","","","","","","","","","","","","","","","","","","","","","","","",""
"","text-replacement","50","300866","0.0-31.0","42436666","wem/bandit_party_1","A28N97P3R495WM","either","8","7405","","","32","","","","","","","","","","","","","","","","","","","","","","","","","","","","","","","","","","","","",""
"","bandit","51","303670","0.0-32.0-0.0","42436666","wem/bandit_party_1","A28N97P3R495WM","either","8","1300","","","","","","","1","0","0","0.8","","0.5","0.5","0.5","0.5","","","","","0.8","0.2","0.6","0.2","","","","","","","","","","72","H","0","img/none_selected.jpg","true","0","full_practice",""
"","bandit","52","305447","0.0-32.0-1.0","42436666","wem/bandit_party_1","A28N97P3R495WM","either","8","272","","","","","","","0","0","1","","0.8","0.5","0.5","0.5","0.5","0.8","0.2","0.6","0.2","","","","","","","","","","","","","","72","H","0","img/none_selected.jpg","true","0","full_practice",""
"","bandit","53","307240","0.0-32.0-2.0","42436666","wem/bandit_party_1","A28N97P3R495WM","either","8","288","","","","","","","0","0","1","","0.2","0.5","0.5","0.5","0.5","0.8","0.2","0.6","0.2","","","","","","","","","","","","","","74","J","1","","true","0","full_practice",""
"","bandit","54","308986","0.0-32.0-3.0","42436666","wem/bandit_party_1","A28N97P3R495WM","either","8","242","","","","","","","1","0","0","0.6","","0.5","0.5","0.5","0.5","","","","","0.8","0.2","0.6","0.2","","","","","","","","","","75","K","2","","true","0","full_practice",""
"","bandit","55","310867","0.0-32.0-4.0","42436666","wem/bandit_party_1","A28N97P3R495WM","either","8","376","","","","","","","1","0","0","0.6","","0.5","0.5","0.5","0.5","","","","","0.8","0.2","0.6","0.2","","","","","","","","","","75","K","2","","true","0","full_practice",""
"","bandit","56","312770","0.0-32.0-5.0","42436666","wem/bandit_party_1","A28N97P3R495WM","either","8","398","","","","","","","0","0","1","","0.6","0.5","0.5","0.5","0.5","0.8","0.2","0.6","0.2","","","","","","","","","","","","","","75","K","2","","true","0","full_practice",""
"","bandit","57","314640","0.0-32.0-6.0","42436666","wem/bandit_party_1","A28N97P3R495WM","either","8","365","","","","","","","0","1","0","","0.2","0.5","0.5","0.5","0.5","0.8","0.2","0.6","0.2","","","","","","","","","","","","","","76","L","3","","true","0","full_practice",""
"","bandit","58","316523","0.0-32.0-7.0","42436666","wem/bandit_party_1","A28N97P3R495WM","either","8","378","","","","","","","0","0","1","","0.2","0.5","0.5","0.5","0.5","0.8","0.2","0.6","0.2","","","","","","","","","","","","","","76","L","3","","true","0","full_practice",""
"","bandit","59","318396","0.0-32.0-8.0","42436666","wem/bandit_party_1","A28N97P3R495WM","either","8","369","","","","","","","0","1","0","","0.2","0.5","0.5","0.5","0.5","0.8","0.2","0.6","0.2","","","","","","","","","","","","","","76","L","3","","true","0","full_practice",""
"","bandit","60","320243","0.0-32.0-9.0","42436666","wem/bandit_party_1","A28N97P3R495WM","either","8","342","","","","","","","0","0","1","","0.2","0.5","0.5","0.5","0.5","0.8","0.2","0.6","0.2","","","","","","","","","","","","","","76","L","3","","true","0","full_practice",""
"","bandit","61","322034","0.0-32.0-10.0","42436666","wem/bandit_party_1","A28N97P3R495WM","either","8","286","","","","","","","0","0","1","0.6","","0.5","0.5","0.5","0.5","","","","","0.8","0.2","0.6","0.2","","","","","","","","","","75","K","2","","true","0","full_practice",""
"","bandit","62","323904","0.0-32.0-11.0","42436666","wem/bandit_party_1","A28N97P3R495WM","either","8","364","","","","","","","0","0","1","0.6","","0.5","0.5","0.5","0.5","","","","","0.8","0.2","0.6","0.2","","","","","","","","","","75","K","2","","true","0","full_practice",""
"","bandit","63","325739","0.0-32.0-12.0","42436666","wem/bandit_party_1","A28N97P3R495WM","either","8","330","","","","","","","0","0","1","","0.2","0.5","0.5","0.5","0.5","0.8","0.2","0.6","0.2","","","","","","","","","","","","","","74","J","1","","true","0","full_practice",""
"","bandit","64","327555","0.0-32.0-13.0","42436666","wem/bandit_party_1","A28N97P3R495WM","either","8","311","","","","","","","0","0","1","","0.2","0.5","0.5","0.5","0.5","0.8","0.2","0.6","0.2","","","","","","","","","","","","","","74","J","1","","true","0","full_practice",""
"","bandit","65","329421","0.0-32.0-14.0","42436666","wem/bandit_party_1","A28N97P3R495WM","either","8","360","","","","","","","0","0","1","","0.8","0.5","0.5","0.5","0.5","0.8","0.2","0.6","0.2","","","","","","","","","","","","","","72","H","0","img/none_selected.jpg","true","0","full_practice",""
"","bandit","66","331510","0.0-32.0-15.0","42436666","wem/bandit_party_1","A28N97P3R495WM","either","8","585","","","","","","","0","0","1","","0.2","0.5","0.5","0.5","0.5","0.8","0.2","0.6","0.2","","","","","","","","","","","","","","76","L","3","","true","0","full_practice",""
"","bandit","67","333374","0.0-32.0-16.0","42436666","wem/bandit_party_1","A28N97P3R495WM","either","8","359","","","","","","","0","0","1","","0.2","0.5","0.5","0.5","0.5","0.8","0.2","0.6","0.2","","","","","","","","","","","","","","76","L","3","","true","0","full_practice",""
"","bandit","68","335248","0.0-32.0-17.0","42436666","wem/bandit_party_1","A28N97P3R495WM","either","8","368","","","","","","","0","0","1","0.2","","0.5","0.5","0.5","0.5","","","","","0.8","0.2","0.6","0.2","","","","","","","","","","76","L","3","","true","0","full_practice",""
"","bandit","69","337142","0.0-32.0-18.0","42436666","wem/bandit_party_1","A28N97P3R495WM","either","8","387","","","","","","","0","0","1","","0.6","0.5","0.5","0.5","0.5","0.8","0.2","0.6","0.2","","","","","","","","","","","","","","75","K","2","","true","0","full_practice",""
"","bandit","70","339039","0.0-32.0-19.0","42436666","wem/bandit_party_1","A28N97P3R495WM","either","8","392","","","","","","","0","0","1","0.6","","0.5","0.5","0.5","0.5","","","","","0.8","0.2","0.6","0.2","","","","","","","","","","75","K","2","","true","0","full_practice",""
"","text","71","342403","0.0-33.0","42436666","wem/bandit_party_1","A28N97P3R495WM","either","8","3357","","","32","","","","","","","","","","","","","","","","","","","","","","","","","","","","","","","","","","","","",""
"","text-replacement","72","362471","0.0-34.0","42436666","wem/bandit_party_1","A28N97P3R495WM","either","8","19066","","","32","","","","","","","","","","","","","","","","","","","","","","","","","","","","","","","","","","","","",""
"","text-replacement","73","372887","0.0-35.0","42436666","wem/bandit_party_1","A28N97P3R495WM","either","8","10414","","","32","","","","","","","","","","","","","","","","","","","","","","","","","","","","","","","","","","","","",""
"","text-replacement","74","377729","0.0-36.0","42436666","wem/bandit_party_1","A28N97P3R495WM","either","8","4839","","","32","","","","","","","","","","","","","","","","","","","","","","","","","","","","","","","","","","","","",""
"","text-replacement","75","384090","0.0-37.0","42436666","wem/bandit_party_1","A28N97P3R495WM","either","8","6359","","","32","","","","","","","","","","","","","","","","","","","","","","","","","","","","","","","","","","","","",""
"","text-replacement","76","388230","0.0-38.0","42436666","wem/bandit_party_1","A28N97P3R495WM","either","8","4137","","","32","","","","","","","","","","","","","","","","","","","","","","","","","","","","","","","","","","","","",""
"","survey-multi-choice-replacement","77","393182","0.0-39.0-0.0","42436666","wem/bandit_party_1","A28N97P3R495WM","either","8","4944","","","","","","","","","","","","","","","","","","","","","","","","Money will be added to the pool for <span style='color:red;'>REPUBLICANS</span>","","","","","","","attn_check","","","","","","","","","0"
"","survey-multi-choice-replacement","78","403660","0.0-40.0-0.0","42436666","wem/bandit_party_1","A28N97P3R495WM","either","8","9468","","","","","","","","","","","","","","","","","","","","","","","","Equal amounts of money will be added to the pool for <span style='color:red;'>REPUBLICANS</span> and subtracted from the pool for <span style='color:blue;'>DEMOCRATS</span>","","","","","","","attn_check","","","","","","","","","2"
"","survey-multi-choice-replacement","79","406956","0.0-41.0-0.0","42436666","wem/bandit_party_1","A28N97P3R495WM","either","8","2288","","","","","","","","","","","","","","","","","","","","","","","","No money will be added to either pool","","","","","","","attn_check","","","","","","","","","3"
"","bandit","80","413102","0.0-42.0-0.0","42436666","wem/bandit_party_1","A28N97P3R495WM","either","8","3638","","","","","","","0","0","1","","0.2637293772","0.2","0.6","0.4","0.8","0.2637293772","0.3540548627","0.1351790469","0.2928194041","","","","","","","","","","","","","","72","H","0","img/none_selected.jpg","","1","main_expt",""
"","bandit","81","415743","0.0-43.0-0.0","42436666","wem/bandit_party_1","A28N97P3R495WM","either","8","1135","","","","","","","0","0","1","","0.2760013096","0.2","0.6","0.4","0.8","0.2760013096","0.3812516843","0.125602744","0.3040419902","","","","","","","","","","","","","","72","H","0","img/none_selected.jpg","","2","main_expt",""
"","bandit","82","417779","0.0-44.0-0.0","42436666","wem/bandit_party_1","A28N97P3R495WM","either","8","530","","","","","","","0","0","1","","0.3240499928","0.2","0.6","0.4","0.8","0.3240499928","0.3901316494","0.09574082279","0.2875251023","","","","","","","","","","","","","","72","H","0","img/none_selected.jpg","","3","main_expt",""
"","bandit","83","419754","0.0-45.0-0.0","42436666","wem/bandit_party_1","A28N97P3R495WM","either","8","469","","","","","","","0","0","1","","0.3945399471","0.2","0.6","0.4","0.8","0.3510822359","0.3945399471","0.0913382225","0.2965567903","","","","","","","","","","","","","","74","J","1","","","4","main_expt",""
"","bandit","84","421588","0.0-46.0-0.0","42436666","wem/bandit_party_1","A28N97P3R495WM","either","8","328","","","","","","","0","0","1","0.3997977613","","0.2","0.6","0.4","0.8","","","","","0.3522827721","0.3997977613","0.106177601","0.2681113314","","","","","","","","","","74","J","1","","","5","main_expt",""
"","bandit","85","423424","0.0-47.0-0.0","42436666","wem/bandit_party_1","A28N97P3R495WM","either","8","331","","","","","","","0","0","1","","0.08998955495","0.2","0.6","0.4","0.8","0.382674005","0.390783501","0.08998955495","0.2330443498","","","","","","","","","","","","","","75","K","2","","","6","main_expt",""
"","bandit","86","425416","0.0-48.0-0.0","42436666","wem/bandit_party_1","A28N97P3R495WM","either","8","487","","","","","","","0","0","1","0.1077526668","","0.2","0.6","0.4","0.8","","","","","0.3998463606","0.3305693427","0.1077526668","0.1630509172","","","","","","","","","","75","K","2","","","7","main_expt",""
"","bandit","87","427325","0.0-49.0-0.0","42436666","wem/bandit_party_1","A28N97P3R495WM","either","8","403","","","","","","","0","0","1","","0.2002468685","0.2","0.6","0.4","0.8","0.3832029687","0.3056545716","0.1243697388","0.2002468685","","","","","","","","","","","","","","76","L","3","","","8","main_expt",""
"","bandit","88","429322","0.0-50.0-0.0","42436666","wem/bandit_party_1","A28N97P3R495WM","either","8","491","","","","","","","1","0","0","0.1835034381","","0.2","0.6","0.4","0.8","","","","","0.3796681134","0.3278889804","0.1698108096","0.1835034381","","","","","","","","","","76","L","3","","","9","main_expt",""
"","bandit","89","431205","0.0-51.0-0.0","42436666","wem/bandit_party_1","A28N97P3R495WM","either","8","375","","","","","","","1","0","0","0.1939723001","","0.2","0.6","0.4","0.8","","","","","0.3614311416","0.3137855556","0.221757114","0.1939723001","","","","","","","","","","76","L","3","","","10","main_expt",""
"","bandit","90","433093","0.0-52.0-0.0","42436666","wem/bandit_party_1","A28N97P3R495WM","either","8","383","","","","","","","0","1","0","","0.1949806013","0.2","0.6","0.4","0.8","0.3938737051","0.3253079181","0.1961062924","0.1949806013","","","","","","","","","","","","","","76","L","3","","","11","main_expt",""
"","bandit","91","435077","0.0-53.0-0.0","42436666","wem/bandit_party_1","A28N97P3R495WM","either","8","478","","","","","","","0","0","1","0.2587943474","","0.2","0.6","0.4","0.8","","","","","0.3810544723","0.3298150516","0.1907056259","0.2587943474","","","","","","","","","","76","L","3","","","12","main_expt",""
"","bandit","92","436935","0.0-54.0-0.0","42436666","wem/bandit_party_1","A28N97P3R495WM","either","8","352","","","","","","","1","0","0","0.3085985727","","0.2","0.6","0.4","0.8","","","","","0.3707046684","0.3673307406","0.2162865666","0.3085985727","","","","","","","","","","76","L","3","","","13","main_expt",""
"","bandit","93","438856","0.0-55.0-0.0","42436666","wem/bandit_party_1","A28N97P3R495WM","either","8","412","","","","","","","1","0","0","0.2464992766","","0.2","0.6","0.4","0.8","","","","","0.3486531997","0.3679224674","0.2399362825","0.2464992766","","","","","","","","","","76","L","3","","","14","main_expt",""
"","bandit","94","440675","0.0-56.0-0.0","42436666","wem/bandit_party_1","A28N97P3R495WM","either","8","314","","","","","","","0","0","1","0.2474611475","","0.2","0.6","0.4","0.8","","","","","0.3263578384","0.3062507314","0.1986859052","0.2474611475","","","","","","","","","","76","L","3","","","15","main_expt",""
"","bandit","95","442498","0.0-57.0-0.0","42436666","wem/bandit_party_1","A28N97P3R495WM","either","8","318","","","","","","","0","0","1","0.2835538477","","0.2","0.6","0.4","0.8","","","","","0.3514189979","0.2892976033","0.1865641621","0.2835538477","","","","","","","","","","76","L","3","","","16","main_expt",""
"","bandit","96","444311","0.0-58.0-0.0","42436666","wem/bandit_party_1","A28N97P3R495WM","either","8","307","","","","","","","0","0","1","0.3256112075","","0.2","0.6","0.4","0.8","","","","","0.3532592314","0.2861796528","0.2035525071","0.3256112075","","","","","","","","","","76","L","3","","","17","main_expt",""
"","bandit","97","446073","0.0-59.0-0.0","42436666","wem/bandit_party_1","A28N97P3R495WM","either","8","257","","","","","","","0","0","1","0.3802227677","","0.2","0.6","0.4","0.8","","","","","0.3858608091","0.2958570682","0.2039336531","0.3802227677","","","","","","","","","","76","L","3","","","18","main_expt",""
"","bandit","98","447931","0.0-60.0-0.0","42436666","wem/bandit_party_1","A28N97P3R495WM","either","8","353","","","","","","","0","0","1","","0.1598579642","0.2","0.6","0.4","0.8","0.3837638756","0.3353028819","0.1598579642","0.360566968","","","","","","","","","","","","","","75","K","2","","","19","main_expt",""
"","bandit","99","449778","0.0-61.0-0.0","42436666","wem/bandit_party_1","A28N97P3R495WM","either","8","341","","","","","","","0","0","1","","0.1437622327","0.2","0.6","0.4","0.8","0.2872100501","0.3139704528","0.1437622327","0.3696799013","","","","","","","","","","","","","","75","K","2","","","20","main_expt",""
"","bandit","100","451566","0.0-62.0-0.0","42436666","wem/bandit_party_1","A28N97P3R495WM","either","8","282","","","","","","","1","0","0","0.07974703335","","0.2","0.6","0.4","0.8","","","","","0.2975414498","0.2524707143","0.07974703335","0.4006907501","","","","","","","","","","75","K","2","","","21","main_expt",""
"","bandit","101","453411","0.0-63.0-0.0","42436666","wem/bandit_party_1","A28N97P3R495WM","either","8","340","","","","","","","0","0","1","","0.1361132429","0.2","0.6","0.4","0.8","0.2741965999","0.248326021","0.1361132429","0.4081217326","","","","","","","","","","","","","","75","K","2","","","22","main_expt",""
"","bandit","102","455215","0.0-64.0-0.0","42436666","wem/bandit_party_1","A28N97P3R495WM","either","8","298","","","","","","","0","0","1","","0.1705973249","0.2","0.6","0.4","0.8","0.2379064449","0.2937153481","0.1705973249","0.3740207531","","","","","","","","","","","","","","75","K","2","","","23","main_expt",""
"","bandit","103","457069","0.0-65.0-0.0","42436666","wem/bandit_party_1","A28N97P3R495WM","either","8","349","","","","","","","0","0","1","","0.2625315469","0.2","0.6","0.4","0.8","0.2078598572","0.2625315469","0.1392759225","0.3913756451","","","","","","","","","","","","","","74","J","1","","","24","main_expt",""
"","bandit","104","458840","0.0-66.0-0.0","42436666","wem/bandit_party_1","A28N97P3R495WM","either","8","263","","","","","","","0","0","1","0.2405651368","","0.2","0.6","0.4","0.8","","","","","0.2764850733","0.2405651368","0.1800538527","0.4100905738","","","","","","","","","","74","J","1","","","25","main_expt",""
"","bandit","105","460650","0.0-67.0-0.0","42436666","wem/bandit_party_1","A28N97P3R495WM","either","8","304","","","","","","","0","0","1","","0.2503350336","0.2","0.6","0.4","0.8","0.3080191348","0.2503350336","0.2146400533","0.3600668969","","","","","","","","","","","","","","74","J","1","","","26","main_expt",""
"","bandit","106","462409","0.0-68.0-0.0","42436666","wem/bandit_party_1","A28N97P3R495WM","either","8","254","","","","","","","0","1","0","","0.3606197488","0.2","0.6","0.4","0.8","0.3606197488","0.354091838","0.1948367851","0.3703096079","","","","","","","","","","","","","","72","H","0","img/none_selected.jpg","","27","main_expt",""
"","bandit","107","464220","0.0-69.0-0.0","42436666","wem/bandit_party_1","A28N97P3R495WM","either","8","304","","","","","","","1","0","0","0.3696097963","","0.2","0.6","0.4","0.8","","","","","0.3696097963","0.3419366675","0.2282666016","0.3527269899","","","","","","","","","","72","H","0","img/none_selected.jpg","","28","main_expt",""
"","bandit","108","466116","0.0-70.0-0.0","42436666","wem/bandit_party_1","A28N97P3R495WM","either","8","391","","","","","","","0","0","1","","0.3434444954","0.2","0.6","0.4","0.8","0.3434444954","0.361896517","0.1842618798","0.2854860911","","","","","","","","","","","","","","72","H","0","img/none_selected.jpg","","29","main_expt",""
"","bandit","109","467972","0.0-71.0-0.0","42436666","wem/bandit_party_1","A28N97P3R495WM","either","8","350","","","","","","","0","1","0","","0.3528183973","0.2","0.6","0.4","0.8","0.3528183973","0.3701160785","0.1930267653","0.2971434158","","","","","","","","","","","","","","72","H","0","img/none_selected.jpg","","30","main_expt",""
"","bandit","110","469750","0.0-72.0-0.0","42436666","wem/bandit_party_1","A28N97P3R495WM","either","8","273","","","","","","","0","0","1","","0.3436926249","0.2","0.6","0.4","0.8","0.3436926249","0.3602312343","0.2279264959","0.3192935598","","","","","","","","","","","","","","72","H","0","img/none_selected.jpg","","31","main_expt",""
"","bandit","111","471570","0.0-73.0-0.0","42436666","wem/bandit_party_1","A28N97P3R495WM","either","8","315","","","","","","","0","0","1","","0.3392376576","0.2","0.6","0.4","0.8","0.3392376576","0.3550043818","0.1922668126","0.2910845839","","","","","","","","","","","","","","72","H","0","img/none_selected.jpg","","32","main_expt",""
"","bandit","112","473456","0.0-74.0-0.0","42436666","wem/bandit_party_1","A28N97P3R495WM","either","8","381","","","","","","","0","0","1","0.2524106513","","0.2","0.6","0.4","0.8","","","","","0.2524106513","0.3927862597","0.1503247695","0.2956883229","","","","","","","","","","72","H","0","img/none_selected.jpg","","33","main_expt",""
"","bandit","113","475330","0.0-75.0-0.0","42436666","wem/bandit_party_1","A28N97P3R495WM","either","8","366","","","","","","","0","1","0","","0.2918182698","0.2","0.6","0.4","0.8","0.2378308988","0.4185963197","0.1875072744","0.2918182698","","","","","","","","","","","","","","76","L","3","","","34","main_expt",""
"","bandit","114","477267","0.0-76.0-0.0","42436666","wem/bandit_party_1","A28N97P3R495WM","either","8","429","","","","","","","1","0","0","0.3063909307","","0.2","0.6","0.4","0.8","","","","","0.2683654211","0.441983755","0.2135507624","0.3063909307","","","","","","","","","","76","L","3","","","35","main_expt",""
"","bandit","115","479233","0.0-77.0-0.0","42436666","wem/bandit_party_1","A28N97P3R495WM","either","8","461","","","","","","","0","0","1","0.2820805085","","0.2","0.6","0.4","0.8","","","","","0.2645223933","0.4352827683","0.2042402853","0.2820805085","","","","","","","","","","76","L","3","","","36","main_expt",""
"","bandit","116","481087","0.0-78.0-0.0","42436666","wem/bandit_party_1","A28N97P3R495WM","either","8","347","","","","","","","0","0","1","0.2610370824","","0.2","0.6","0.4","0.8","","","","","0.2360561858","0.450520142","0.2024605481","0.2610370824","","","","","","","","","","76","L","3","","","37","main_expt",""
"","bandit","117","482938","0.0-79.0-0.0","42436666","wem/bandit_party_1","A28N97P3R495WM","either","8","346","","","","","","","0","0","1","0.1896233007","","0.2","0.6","0.4","0.8","","","","","0.2001865083","0.4681224698","0.1677713785","0.1896233007","","","","","","","","","","76","L","3","","","38","main_expt",""
"","bandit","118","484809","0.0-80.0-0.0","42436666","wem/bandit_party_1","A28N97P3R495WM","either","8","363","","","","","","","1","0","0","0.168851025","","0.2","0.6","0.4","0.8","","","","","0.1687915361","0.4711022053","0.221779122","0.168851025","","","","","","","","","","76","L","3","","","39","main_expt",""
"","bandit","119","486630","0.0-81.0-0.0","42436666","wem/bandit_party_1","A28N97P3R495WM","either","8","316","","","","","","","0","0","1","0.1615787635","","0.2","0.6","0.4","0.8","","","","","0.1503151413","0.4559447699","0.2722397218","0.1615787635","","","","","","","","","","76","L","3","","","40","main_expt",""
"","bandit","120","488468","0.0-82.0-0.0","42436666","wem/bandit_party_1","A28N97P3R495WM","either","8","332","","","","","","","0","0","1","","0.3298230943","0.2","0.6","0.4","0.8","0.08168262283","0.4412687596","0.3298230943","0.1472326003","","","","","","","","","","","","","","75","K","2","","","41","main_expt",""
"","bandit","121","490351","0.0-83.0-0.0","42436666","wem/bandit_party_1","A28N97P3R495WM","either","8","377","","","","","","","0","1","0","","0.3104885444","0.2","0.6","0.4","0.8","0.07668629145","0.4457751761","0.3104885444","0.1533480506","","","","","","","","","","","","","","75","K","2","","","42","main_expt",""
"","bandit","122","492181","0.0-84.0-0.0","42436666","wem/bandit_party_1","A28N97P3R495WM","either","8","324","","","","","","","0","0","1","0.3005355489","","0.2","0.6","0.4","0.8","","","","","0.07394587158","0.4298378352","0.3005355489","0.1414351437","","","","","","","","","","75","K","2","","","43","main_expt",""
"","bandit","123","493991","0.0-85.0-0.0","42436666","wem/bandit_party_1","A28N97P3R495WM","either","8","305","","","","","","","0","0","1","0.2456242138","","0.2","0.6","0.4","0.8","","","","","0.1192337685","0.4416915379","0.2456242138","0.1067646429","","","","","","","","","","75","K","2","","","44","main_expt",""
"","bandit","124","495766","0.0-86.0-0.0","42436666","wem/bandit_party_1","A28N97P3R495WM","either","8","266","","","","","","","0","0","1","","0.3915522423","0.2","0.6","0.4","0.8","0.1285724119","0.3915522423","0.2839901561","0.1250796286","","","","","","","","","","","","","","74","J","1","","","45","main_expt",""
"","bandit","125","497627","0.0-87.0-0.0","42436666","wem/bandit_party_1","A28N97P3R495WM","either","8","352","","","","","","","0","1","0","","0.4318427431","0.2","0.6","0.4","0.8","0.1112684106","0.4318427431","0.2353621531","0.1927264636","","","","","","","","","","","","","","74","J","1","","","46","main_expt",""
"","bandit","126","499457","0.0-88.0-0.0","42436666","wem/bandit_party_1","A28N97P3R495WM","either","8","322","","","","","","","0","0","1","0.4395998441","","0.2","0.6","0.4","0.8","","","","","0.1207340475","0.4395998441","0.2405257196","0.1804488412","","","","","","","","","","74","J","1","","","47","main_expt",""
"","bandit","127","501221","0.0-89.0-0.0","42436666","wem/bandit_party_1","A28N97P3R495WM","either","8","258","","","","","","","0","0","1","0.4630443269","","0.2","0.6","0.4","0.8","","","","","0.1182533935","0.4630443269","0.2629408555","0.168268176","","","","","","","","","","74","J","1","","","48","main_expt",""
"","bandit","128","503082","0.0-90.0-0.0","42436666","wem/bandit_party_1","A28N97P3R495WM","either","8","354","","","","","","","0","1","0","","0.4794982466","0.2","0.6","0.4","0.8","0.1460801474","0.4794982466","0.2902453213","0.1466838001","","","","","","","","","","","","","","74","J","1","","","49","main_expt",""
"","bandit","129","504857","0.0-91.0-0.0","42436666","wem/bandit_party_1","A28N97P3R495WM","either","8","269","","","","","","","0","1","0","","0.4562783041","0.2","0.6","0.4","0.8","0.1765155983","0.4562783041","0.3033715012","0.1336340117","","","","","","","","","","","","","","74","J","1","","","50","main_expt",""
"","bandit","130","506694","0.0-92.0-0.0","42436666","wem/bandit_party_1","A28N97P3R495WM","either","8","330","","","","","","","0","0","1","0.4515646323","","0.2","0.6","0.4","0.8","","","","","0.1614266163","0.4515646323","0.3536831403","0.1067821754","","","","","","","","","","74","J","1","","","51","main_expt",""
"","bandit","131","508479","0.0-93.0-0.0","42436666","wem/bandit_party_1","A28N97P3R495WM","either","8","280","","","","","","","0","0","1","","0.4344137529","0.2","0.6","0.4","0.8","0.1938643747","0.4344137529","0.3058792917","0.07294577227","","","","","","","","","","","","","","74","J","1","","","52","main_expt",""
"","bandit","132","510247","0.0-94.0-0.0","42436666","wem/bandit_party_1","A28N97P3R495WM","either","8","259","","","","","","","0","0","1","","0.1721886996","0.2","0.6","0.4","0.8","0.1721886996","0.4421766306","0.3466820038","0.07676454597","","","","","","","","","","","","","","72","H","0","img/none_selected.jpg","","53","main_expt",""
"","bandit","133","511999","0.0-95.0-0.0","42436666","wem/bandit_party_1","A28N97P3R495WM","either","8","245","","","","","","","0","0","1","","0.1542880765","0.2","0.6","0.4","0.8","0.1542880765","0.4591875032","0.3159173384","0.07707135067","","","","","","","","","","","","","","72","H","0","img/none_selected.jpg","","54","main_expt",""
"","bandit","134","513793","0.0-96.0-0.0","42436666","wem/bandit_party_1","A28N97P3R495WM","either","8","288","","","","","","","0","0","1","0.2155598061","","0.2","0.6","0.4","0.8","","","","","0.2155598061","0.4455250987","0.3205246683","0.08227932488","","","","","","","","","","72","H","0","img/none_selected.jpg","","55","main_expt",""
"","bandit","135","515632","0.0-97.0-0.0","42436666","wem/bandit_party_1","A28N97P3R495WM","either","8","334","","","","","","","1","0","0","0.09013031375","","0.2","0.6","0.4","0.8","","","","","0.199350645","0.4200701886","0.3067659888","0.09013031375","","","","","","","","","","76","L","3","","","56","main_expt",""
"","bandit","136","517497","0.0-98.0-0.0","42436666","wem/bandit_party_1","A28N97P3R495WM","either","8","358","","","","","","","0","0","1","","0.106866739","0.2","0.6","0.4","0.8","0.1991981904","0.3635567377","0.3786279545","0.106866739","","","","","","","","","","","","","","76","L","3","","","57","main_expt",""
"","bandit","137","519384","0.0-99.0-0.0","42436666","wem/bandit_party_1","A28N97P3R495WM","either","8","381","","","","","","","0","0","1","0.0915584437","","0.2","0.6","0.4","0.8","","","","","0.1307276253","0.3647217687","0.3796022377","0.0915584437","","","","","","","","","","76","L","3","","","58","main_expt",""
"","bandit","138","521231","0.0-100.0-0.0","42436666","wem/bandit_party_1","A28N97P3R495WM","either","8","341","","","","","","","0","0","1","0.1036540812","","0.2","0.6","0.4","0.8","","","","","0.1540949786","0.3975499765","0.3570845549","0.1036540812","","","","","","","","","","76","L","3","","","59","main_expt",""
"","bandit","139","523245","0.0-101.0-0.0","42436666","wem/bandit_party_1","A28N97P3R495WM","either","8","507","","","","","","","0","0","1","","0.07948280662","0.2","0.6","0.4","0.8","0.1187181044","0.376383165","0.398525789","0.07948280662","","","","","","","","","","","","","","76","L","3","","","60","main_expt",""
"","bandit","140","525190","0.0-102.0-0.0","42436666","wem/bandit_party_1","A28N97P3R495WM","either","8","438","","","","","","","0","0","1","0.380986593","","0.2","0.6","0.4","0.8","","","","","0.1734870435","0.3384437455","0.380986593","0.0685056185","","","","","","","","","","75","K","2","","","61","main_expt",""
"","bandit","141","527134","0.0-103.0-0.0","42436666","wem/bandit_party_1","A28N97P3R495WM","either","8","436","","","","","","","0","1","0","","0.3928002855","0.2","0.6","0.4","0.8","0.2056999461","0.3086389155","0.3928002855","0.04196312691","","","","","","","","","","","","","","75","K","2","","","62","main_expt",""
"","bandit","142","529108","0.0-104.0-0.0","42436666","wem/bandit_party_1","A28N97P3R495WM","either","8","469","","","","","","","0","0","1","","0.4097838671","0.2","0.6","0.4","0.8","0.2421495796","0.3098998428","0.4097838671","0.06524357318","","","","","","","","","","","","","","75","K","2","","","63","main_expt",""
"","bandit","143","530795","0.0-105.0-0.0","42436666","wem/bandit_party_1","A28N97P3R495WM","either","8","181","","","","","","","0","1","0","","0.3942475769","0.2","0.6","0.4","0.8","0.2678986655","0.2859800092","0.3942475769","0.04599317762","","","","","","","","","","","","","","75","K","2","","","64","main_expt",""
"","bandit","144","532886","0.0-106.0-0.0","42436666","wem/bandit_party_1","A28N97P3R495WM","either","8","585","","","","","","","1","0","0","0.3756823908","","0.2","0.6","0.4","0.8","","","","","0.2780805564","0.2780623804","0.3756823908","0.04738713632","","","","","","","","","","75","K","2","","","65","main_expt",""
"","bandit","145","534693","0.0-107.0-0.0","42436666","wem/bandit_party_1","A28N97P3R495WM","either","8","300","","","","","","","0","0","1","","0.3780323226","0.2","0.6","0.4","0.8","0.2923516192","0.2740889186","0.3780323226","0.02873144913","","","","","","","","","","","","","","75","K","2","","","66","main_expt",""
"","bandit","146","536493","0.0-108.0-0.0","42436666","wem/bandit_party_1","A28N97P3R495WM","either","8","294","","","","","","","0","0","1","","0.382091886","0.2","0.6","0.4","0.8","0.3481747094","0.3122756929","0.382091886","0.0355516853","","","","","","","","","","","","","","75","K","2","","","67","main_expt",""
"","bandit","147","538321","0.0-109.0-0.0","42436666","wem/bandit_party_1","A28N97P3R495WM","either","8","321","","","","","","","0","0","1","0.3004294993","","0.2","0.6","0.4","0.8","","","","","0.3540590834","0.3004294993","0.4080562953","0.04483006882","","","","","","","","","","74","J","1","","","68","main_expt",""
"","bandit","148","540082","0.0-110.0-0.0","42436666","wem/bandit_party_1","A28N97P3R495WM","either","8","255","","","","","","","0","0","1","","0.3312842332","0.2","0.6","0.4","0.8","0.3348318208","0.3312842332","0.419826639","0.04300650393","","","","","","","","","","","","","","74","J","1","","","69","main_expt",""
"","bandit","149","541851","0.0-111.0-0.0","42436666","wem/bandit_party_1","A28N97P3R495WM","either","8","262","","","","","","","0","0","1","0.2362018798","","0.2","0.6","0.4","0.8","","","","","0.3844983113","0.2362018798","0.3889643965","0.03960880855","","","","","","","","","","74","J","1","","","70","main_expt",""
"","bandit","150","543652","0.0-112.0-0.0","42436666","wem/bandit_party_1","A28N97P3R495WM","either","8","293","","","","","","","0","0","1","","0.1838323472","0.2","0.6","0.4","0.8","0.3753843975","0.1838323472","0.3492343966","0.02401392238","","","","","","","","","","","","","","74","J","1","","","71","main_expt",""
"","bandit","151","545531","0.0-113.0-0.0","42436666","wem/bandit_party_1","A28N97P3R495WM","either","8","374","","","","","","","0","0","1","","0.3861429343","0.2","0.6","0.4","0.8","0.3861429343","0.1749810972","0.3502155883","0.008756159955","","","","","","","","","","","","","","72","H","0","img/none_selected.jpg","","72","main_expt",""
"","bandit","152","547431","0.0-114.0-0.0","42436666","wem/bandit_party_1","A28N97P3R495WM","either","8","394","","","","","","","0","1","0","","0.3978436086","0.2","0.6","0.4","0.8","0.3978436086","0.1664097112","0.3568691787","0.006257651783","","","","","","","","","","","","","","72","H","0","img/none_selected.jpg","","73","main_expt",""
"","bandit","153","549229","0.0-115.0-0.0","42436666","wem/bandit_party_1","A28N97P3R495WM","either","8","292","","","","","","","0","0","1","0.3847979518","","0.2","0.6","0.4","0.8","","","","","0.3847979518","0.2001176207","0.3303653739","0.004732084297","","","","","","","","","","72","H","0","img/none_selected.jpg","","74","main_expt",""
"","bandit","154","551088","0.0-116.0-0.0","42436666","wem/bandit_party_1","A28N97P3R495WM","either","8","351","","","","","","","0","0","1","","0.3974319157","0.2","0.6","0.4","0.8","0.3974319157","0.1848717924","0.3353283381","0.006967558871","","","","","","","","","","","","","","72","H","0","img/none_selected.jpg","","75","main_expt",""
"","bandit","155","552872","0.0-117.0-0.0","42436666","wem/bandit_party_1","A28N97P3R495WM","either","8","278","","","","","","","0","1","0","","0.3987985884","0.2","0.6","0.4","0.8","0.3987985884","0.1510178238","0.3009524994","0.004525860487","","","","","","","","","","","","","","72","H","0","img/none_selected.jpg","","76","main_expt",""
"","bandit","156","554809","0.0-118.0-0.0","42436666","wem/bandit_party_1","A28N97P3R495WM","either","8","430","","","","","","","0","0","1","0.4127312768","","0.2","0.6","0.4","0.8","","","","","0.4127312768","0.2089633591","0.3316028908","0.007245535115","","","","","","","","","","72","H","0","img/none_selected.jpg","","77","main_expt",""
"","bandit","157","557990","0.0-119.0-0.0","42436666","wem/bandit_party_1","A28N97P3R495WM","either","8","1674","","","","","","","0","1","0","","0.4257675477","0.2","0.6","0.4","0.8","0.4257675477","0.2285147345","0.3571024926","0.00483057751","","","","","","","","","","","","","","72","H","0","img/none_selected.jpg","","78","main_expt",""
"","bandit","158","560068","0.0-120.0-0.0","42436666","wem/bandit_party_1","A28N97P3R495WM","either","8","573","","","","","","","0","0","1","","0.4331167668","0.2","0.6","0.4","0.8","0.4331167668","0.2246975601","0.3542776451","0.005956317848","","","","","","","","","","","","","","72","H","0","img/none_selected.jpg","","79","main_expt",""
"","bandit","159","561949","0.0-121.0-0.0","42436666","wem/bandit_party_1","A28N97P3R495WM","either","8","375","","","","","","","0","0","1","","0.1878766281","0.2","0.6","0.4","0.8","0.4294395537","0.1878766281","0.3201174307","0.0076590047","","","","","","","","","","","","","","74","J","1","","","80","main_expt",""
"","bandit","160","563801","0.0-122.0-0.0","42436666","wem/bandit_party_1","A28N97P3R495WM","either","8","344","","","","","","","0","0","1","0.2436254364","","0.2","0.6","0.4","0.8","","","","","0.4234249918","0.2436254364","0.3503003334","0.009115568074","","","","","","","","","","74","J","1","","","81","main_expt",""
"","bandit","161","565652","0.0-123.0-0.0","42436666","wem/bandit_party_1","A28N97P3R495WM","either","8","343","","","","","","","0","0","1","0.2627531714","","0.2","0.6","0.4","0.8","","","","","0.3956977209","0.2627531714","0.3509066846","0.01382977225","","","","","","","","","","74","J","1","","","82","main_expt",""
"","bandit","162","567531","0.0-124.0-0.0","42436666","wem/bandit_party_1","A28N97P3R495WM","either","8","373","","","","","","","0","0","1","","0.3951868033","0.2","0.6","0.4","0.8","0.4248650233","0.2672212524","0.3951868033","0.01500629599","","","","","","","","","","","","","","75","K","2","","","83","main_expt",""
"","bandit","163","569306","0.0-125.0-0.0","42436666","wem/bandit_party_1","A28N97P3R495WM","either","8","266","","","","","","","0","1","0","","0.4131477378","0.2","0.6","0.4","0.8","0.4196907627","0.2817484998","0.4131477378","0.02310127573","","","","","","","","","","","","","","75","K","2","","","84","main_expt",""
"","bandit","164","571118","0.0-126.0-0.0","42436666","wem/bandit_party_1","A28N97P3R495WM","either","8","307","","","","","","","1","0","0","0.3889697292","","0.2","0.6","0.4","0.8","","","","","0.435633498","0.3074775227","0.3889697292","0.02639065846","","","","","","","","","","75","K","2","","","85","main_expt",""
"","bandit","165","572900","0.0-127.0-0.0","42436666","wem/bandit_party_1","A28N97P3R495WM","either","8","275","","","","","","","0","0","1","0.3885636443","","0.2","0.6","0.4","0.8","","","","","0.4322222521","0.2717847629","0.3885636443","0.01746441632","","","","","","","","","","75","K","2","","","86","main_expt",""
"","bandit","166","574753","0.0-128.0-0.0","42436666","wem/bandit_party_1","A28N97P3R495WM","either","8","347","","","","","","","0","0","1","","0.4028282504","0.2","0.6","0.4","0.8","0.4476119451","0.2183858348","0.4028282504","0.01256144444","","","","","","","","","","","","","","75","K","2","","","87","main_expt",""
"","bandit","167","576575","0.0-129.0-0.0","42436666","wem/bandit_party_1","A28N97P3R495WM","either","8","315","","","","","","","0","0","1","0.01178158386","","0.2","0.6","0.4","0.8","","","","","0.4073123198","0.2054961256","0.4306890759","0.01178158386","","","","","","","","","","76","L","3","","","88","main_expt",""
"","bandit","168","578402","0.0-130.0-0.0","42436666","wem/bandit_party_1","A28N97P3R495WM","either","8","320","","","","","","","0","0","1","0.008722555822","","0.2","0.6","0.4","0.8","","","","","0.3862301724","0.1452714398","0.4103738654","0.008722555822","","","","","","","","","","76","L","3","","","89","main_expt",""
"","bandit","169","580447","0.0-131.0-0.0","42436666","wem/bandit_party_1","A28N97P3R495WM","either","8","538","","","","","","","0","0","1","0.008232471735","","0.2","0.6","0.4","0.8","","","","","0.3596745144","0.1077779513","0.3980827974","0.008232471735","","","","","","","","","","76","L","3","","","90","main_expt",""
"","bandit","170","582295","0.0-132.0-0.0","42436666","wem/bandit_party_1","A28N97P3R495WM","either","8","341","","","","","","","0","0","1","0.01249180717","","0.2","0.6","0.4","0.8","","","","","0.3082854458","0.1308407065","0.4040531024","0.01249180717","","","","","","","","","","76","L","3","","","91","main_expt",""
"","bandit","171","584286","0.0-133.0-0.0","42436666","wem/bandit_party_1","A28N97P3R495WM","either","8","484","","","","","","","0","0","1","0.3462944796","","0.2","0.6","0.4","0.8","","","","","0.312225492","0.1652322036","0.3462944796","0.01470986316","","","","","","","","","","75","K","2","","","92","main_expt",""
"","bandit","172","586155","0.0-134.0-0.0","42436666","wem/bandit_party_1","A28N97P3R495WM","either","8","362","","","","","","","0","0","1","0.3411451966","","0.2","0.6","0.4","0.8","","","","","0.3671658277","0.1344678182","0.3411451966","0.02655281846","","","","","","","","","","75","K","2","","","93","main_expt",""
"","bandit","173","587994","0.0-135.0-0.0","42436666","wem/bandit_party_1","A28N97P3R495WM","either","8","331","","","","","","","0","0","1","0.1301314301","","0.2","0.6","0.4","0.8","","","","","0.3401731108","0.1301314301","0.3384154489","0.02575246025","","","","","","","","","","74","J","1","","","94","main_expt",""
"","bandit","174","589928","0.0-136.0-0.0","42436666","wem/bandit_party_1","A28N97P3R495WM","either","8","428","","","","","","","0","0","1","0.1746055711","","0.2","0.6","0.4","0.8","","","","","0.3413923724","0.1746055711","0.3126988266","0.02262355665","","","","","","","","","","74","J","1","","","95","main_expt",""
"","bandit","175","592417","0.0-137.0-0.0","42436666","wem/bandit_party_1","A28N97P3R495WM","either","8","981","","","","","","","0","0","1","0.1994244555","","0.2","0.6","0.4","0.8","","","","","0.3570420485","0.1994244555","0.3800019137","0.02047181149","","","","","","","","","","74","J","1","","","96","main_expt",""
"","bandit","176","594357","0.0-138.0-0.0","42436666","wem/bandit_party_1","A28N97P3R495WM","either","8","432","","","","","","","0","0","1","","0.3435474977","0.2","0.6","0.4","0.8","0.3435474977","0.1834602947","0.3328121005","0.0207754381","","","","","","","","","","","","","","72","H","0","img/none_selected.jpg","","97","main_expt",""
"","bandit","177","596537","0.0-139.0-0.0","42436666","wem/bandit_party_1","A28N97P3R495WM","either","8","673","","","","","","","0","0","1","","0.3614714926","0.2","0.6","0.4","0.8","0.3614714926","0.1719221531","0.332228596","0.02955834597","","","","","","","","","","","","","","72","H","0","img/none_selected.jpg","","98","main_expt",""
"","bandit","178","598333","0.0-140.0-0.0","42436666","wem/bandit_party_1","A28N97P3R495WM","either","8","287","","","","","","","0","0","1","","0.3176405447","0.2","0.6","0.4","0.8","0.3176405447","0.1183399241","0.2843854285","0.0383131093","","","","","","","","","","","","","","72","H","0","img/none_selected.jpg","","99","main_expt",""
"","bandit","179","728153","0.0-141.0-0.0","42436666","wem/bandit_party_1","A28N97P3R495WM","either","8","128313","","","","","","","0","0","1","","0.3586553183","0.2","0.6","0.4","0.8","0.3586553183","0.1558635017","0.309751149","0.03580757471","","","","","","","","","","","","","","72","H","0","img/none_selected.jpg","","100","main_expt",""
"","bandit","180","729758","0.0-142.0-0.0","42436666","wem/bandit_party_1","A28N97P3R495WM","either","8","98","","","","","","","0","1","0","","0.2951503345","0.2","0.6","0.4","0.8","0.2951503345","0.1389665978","0.2993195944","0.04899620691","","","","","","","","","","","","","","72","H","0","img/none_selected.jpg","","101","main_expt",""
"","bandit","181","731635","0.0-143.0-0.0","42436666","wem/bandit_party_1","A28N97P3R495WM","either","8","369","","","","","","","0","0","1","","0.2998391809","0.2","0.6","0.4","0.8","0.2998391809","0.1377203561","0.3551890872","0.08055650644","","","","","","","","","","","","","","72","H","0","img/none_selected.jpg","","102","main_expt",""
"","bandit","182","733619","0.0-144.0-0.0","42436666","wem/bandit_party_1","A28N97P3R495WM","either","8","477","","","","","","","0","0","1","0.2791823827","","0.2","0.6","0.4","0.8","","","","","0.2791823827","0.1285548106","0.3148404956","0.1040447627","","","","","","","","","","72","H","0","img/none_selected.jpg","","103","main_expt",""
"","bandit","183","735437","0.0-145.0-0.0","42436666","wem/bandit_party_1","A28N97P3R495WM","either","8","312","","","","","","","0","0","1","0.1555523735","","0.2","0.6","0.4","0.8","","","","","0.3382769334","0.1555523735","0.3286912191","0.1143547335","","","","","","","","","","74","J","1","","","104","main_expt",""
"","bandit","184","737244","0.0-146.0-0.0","42436666","wem/bandit_party_1","A28N97P3R495WM","either","8","301","","","","","","","1","0","0","0.1775592141","","0.2","0.6","0.4","0.8","","","","","0.3339697125","0.1775592141","0.298340497","0.1487676438","","","","","","","","","","74","J","1","","","105","main_expt",""
"","bandit","185","739016","0.0-147.0-0.0","42436666","wem/bandit_party_1","A28N97P3R495WM","either","8","265","","","","","","","0","0","1","0.2263451353","","0.2","0.6","0.4","0.8","","","","","0.3124129253","0.2263451353","0.3504464386","0.152088545","","","","","","","","","","74","J","1","","","106","main_expt",""
"","bandit","186","741132","0.0-148.0-0.0","42436666","wem/bandit_party_1","A28N97P3R495WM","either","8","610","","","","","","","0","0","1","","0.1679769802","0.2","0.6","0.4","0.8","0.3400683723","0.1679769802","0.3510410077","0.2406734145","","","","","","","","","","","","","","74","J","1","","","107","main_expt",""
"","bandit","187","743130","0.0-149.0-0.0","42436666","wem/bandit_party_1","A28N97P3R495WM","either","8","492","","","","","","","0","0","1","0.1999870147","","0.2","0.6","0.4","0.8","","","","","0.3557340834","0.1999870147","0.3282766846","0.3048040024","","","","","","","","","","74","J","1","","","108","main_expt",""
"","bandit","188","745391","0.0-150.0-0.0","42436666","wem/bandit_party_1","A28N97P3R495WM","either","8","754","","","","","","","0","0","1","0.3561186451","","0.2","0.6","0.4","0.8","","","","","0.3846418901","0.208992856","0.3561186451","0.3418503096","","","","","","","","","","75","K","2","","","109","main_expt",""
"","bandit","189","748852","0.0-151.0-0.0","42436666","wem/bandit_party_1","A28N97P3R495WM","either","8","1955","","","","","","","0","0","1","","0.3576445865","0.2","0.6","0.4","0.8","0.4057962062","0.1716040471","0.3576445865","0.3198501315","","","","","","","","","","","","","","75","K","2","","","110","main_expt",""
"","bandit","190","750677","0.0-152.0-0.0","42436666","wem/bandit_party_1","A28N97P3R495WM","either","8","318","","","","","","","1","0","0","0.3681534847","","0.2","0.6","0.4","0.8","","","","","0.3692451483","0.08984071331","0.3377543854","0.3681534847","","","","","","","","","","76","L","3","","","111","main_expt",""
"","bandit","191","752630","0.0-153.0-0.0","42436666","wem/bandit_party_1","A28N97P3R495WM","either","8","445","","","","","","","0","0","1","0.3757830796","","0.2","0.6","0.4","0.8","","","","","0.3577317973","0.1243463141","0.286234052","0.3757830796","","","","","","","","","","76","L","3","","","112","main_expt",""
"","bandit","192","755411","0.0-154.0-0.0","42436666","wem/bandit_party_1","A28N97P3R495WM","either","8","1273","","","","","","","1","0","0","0.3838999828","","0.2","0.6","0.4","0.8","","","","","0.3328808086","0.1433440675","0.1932674395","0.3838999828","","","","","","","","","","76","L","3","","","113","main_expt",""
"","bandit","193","757362","0.0-155.0-0.0","42436666","wem/bandit_party_1","A28N97P3R495WM","either","8","443","","","","","","","0","0","1","","0.4157938717","0.2","0.6","0.4","0.8","0.3416979579","0.1510662198","0.2403040534","0.4157938717","","","","","","","","","","","","","","76","L","3","","","114","main_expt",""
"","bandit","194","759254","0.0-156.0-0.0","42436666","wem/bandit_party_1","A28N97P3R495WM","either","8","384","","","","","","","0","0","1","0.4055870595","","0.2","0.6","0.4","0.8","","","","","0.3377137281","0.09845245139","0.254937398","0.4055870595","","","","","","","","","","76","L","3","","","115","main_expt",""
"","bandit","195","761094","0.0-157.0-0.0","42436666","wem/bandit_party_1","A28N97P3R495WM","either","8","333","","","","","","","0","0","1","0.4161015278","","0.2","0.6","0.4","0.8","","","","","0.3039448029","0.107393795","0.2605063941","0.4161015278","","","","","","","","","","76","L","3","","","116","main_expt",""
"","bandit","196","762869","0.0-158.0-0.0","42436666","wem/bandit_party_1","A28N97P3R495WM","either","8","267","","","","","","","1","0","0","0.414877819","","0.2","0.6","0.4","0.8","","","","","0.2974336912","0.07879800556","0.2161328783","0.414877819","","","","","","","","","","76","L","3","","","117","main_expt",""
"","bandit","197","764702","0.0-159.0-0.0","42436666","wem/bandit_party_1","A28N97P3R495WM","either","8","327","","","","","","","0","0","1","0.3968259953","","0.2","0.6","0.4","0.8","","","","","0.2651867246","0.08383735875","0.1931197841","0.3968259953","","","","","","","","","","76","L","3","","","118","main_expt",""
"","bandit","198","766680","0.0-160.0-0.0","42436666","wem/bandit_party_1","A28N97P3R495WM","either","8","471","","","","","","","1","0","0","0.1638183597","","0.2","0.6","0.4","0.8","","","","","0.3131666206","0.1392474383","0.1638183597","0.4198241006","","","","","","","","","","75","K","2","","","119","main_expt",""
"","bandit","199","768610","0.0-161.0-0.0","42436666","wem/bandit_party_1","A28N97P3R495WM","either","8","422","","","","","","","0","0","1","0.1893282748","","0.2","0.6","0.4","0.8","","","","","0.358829095","0.1649404926","0.1893282748","0.4286088018","","","","","","","","","","75","K","2","","","120","main_expt",""
"","bandit","200","770447","0.0-162.0-0.0","42436666","wem/bandit_party_1","A28N97P3R495WM","either","8","329","","","","","","","0","1","0","","0.2290368179","0.2","0.6","0.4","0.8","0.3189860171","0.1764152442","0.2290368179","0.4253829576","","","","","","","","","","","","","","75","K","2","","","121","main_expt",""
"","bandit","201","772291","0.0-163.0-0.0","42436666","wem/bandit_party_1","A28N97P3R495WM","either","8","338","","","","","","","0","1","0","","0.2445441383","0.2","0.6","0.4","0.8","0.3011672979","0.2092397698","0.2445441383","0.4235175979","","","","","","","","","","","","","","75","K","2","","","122","main_expt",""
"","bandit","202","774142","0.0-164.0-0.0","42436666","wem/bandit_party_1","A28N97P3R495WM","either","8","341","","","","","","","0","0","1","","0.2091075756","0.2","0.6","0.4","0.8","0.3037948063","0.1884058447","0.2091075756","0.4182090072","","","","","","","","","","","","","","75","K","2","","","123","main_expt",""
"","bandit","203","775980","0.0-165.0-0.0","42436666","wem/bandit_party_1","A28N97P3R495WM","either","8","330","","","","","","","0","0","1","","0.2216111921","0.2","0.6","0.4","0.8","0.2446200253","0.1876417206","0.2216111921","0.4356016004","","","","","","","","","","","","","","75","K","2","","","124","main_expt",""
"","bandit","204","777826","0.0-166.0-0.0","42436666","wem/bandit_party_1","A28N97P3R495WM","either","8","339","","","","","","","0","0","1","0.403953628","","0.2","0.6","0.4","0.8","","","","","0.2464628806","0.1890564589","0.1622020501","0.403953628","","","","","","","","","","76","L","3","","","125","main_expt",""
"","bandit","205","779706","0.0-167.0-0.0","42436666","wem/bandit_party_1","A28N97P3R495WM","either","8","373","","","","","","","0","0","1","0.4020675328","","0.2","0.6","0.4","0.8","","","","","0.281169445","0.1659850756","0.173533554","0.4020675328","","","","","","","","","","76","L","3","","","126","main_expt",""
"","bandit","206","781614","0.0-168.0-0.0","42436666","wem/bandit_party_1","A28N97P3R495WM","either","8","401","","","","","","","0","0","1","0.2006343121","","0.2","0.6","0.4","0.8","","","","","0.290080064","0.2006343121","0.189829559","0.338443572","","","","","","","","","","74","J","1","","","127","main_expt",""
"","bandit","207","783350","0.0-169.0-0.0","42436666","wem/bandit_party_1","A28N97P3R495WM","either","8","228","","","","","","","0","0","1","0.2637444583","","0.2","0.6","0.4","0.8","","","","","0.3280989756","0.2637444583","0.1764696366","0.323123489","","","","","","","","","","74","J","1","","","128","main_expt",""
"","bandit","208","785082","0.0-170.0-0.0","42436666","wem/bandit_party_1","A28N97P3R495WM","either","8","225","","","","","","","0","0","1","","0.2783394686","0.2","0.6","0.4","0.8","0.3052704822","0.2783394686","0.172709194","0.3615310162","","","","","","","","","","","","","","74","J","1","","","129","main_expt",""
"","bandit","209","786873","0.0-171.0-0.0","42436666","wem/bandit_party_1","A28N97P3R495WM","either","8","283","","","","","","","0","0","1","","0.314718742","0.2","0.6","0.4","0.8","0.314718742","0.2674474002","0.1407460215","0.3667448715","","","","","","","","","","","","","","72","H","0","img/none_selected.jpg","","130","main_expt",""
"","bandit","210","788734","0.0-172.0-0.0","42436666","wem/bandit_party_1","A28N97P3R495WM","either","8","355","","","","","","","0","0","1","","0.2492347367","0.2","0.6","0.4","0.8","0.2492347367","0.2122920843","0.143826562","0.341745941","","","","","","","","","","","","","","72","H","0","img/none_selected.jpg","","131","main_expt",""
"","bandit","211","790536","0.0-173.0-0.0","42436666","wem/bandit_party_1","A28N97P3R495WM","either","8","295","","","","","","","0","0","1","0.2495736985","","0.2","0.6","0.4","0.8","","","","","0.2495736985","0.1969346152","0.1862992663","0.2615325727","","","","","","","","","","72","H","0","img/none_selected.jpg","","132","main_expt",""
"","bandit","212","792513","0.0-174.0-0.0","42436666","wem/bandit_party_1","A28N97P3R495WM","either","8","469","","","","","","","0","0","1","0.27905624","","0.2","0.6","0.4","0.8","","","","","0.2487120015","0.1390835973","0.185648564","0.27905624","","","","","","","","","","76","L","3","","","133","main_expt",""
"","bandit","213","794947","0.0-175.0-0.0","42436666","wem/bandit_party_1","A28N97P3R495WM","either","8","927","","","","","","","1","0","0","0.2751163123","","0.2","0.6","0.4","0.8","","","","","0.3239420422","0.1437640715","0.2002276213","0.2751163123","","","","","","","","","","76","L","3","","","134","main_expt",""
"","bandit","214","797443","0.0-176.0-0.0","42436666","wem/bandit_party_1","A28N97P3R495WM","either","8","988","","","","","","","0","0","1","","0.2586507773","0.2","0.6","0.4","0.8","0.3903525049","0.1175999949","0.2474552851","0.2586507773","","","","","","","","","","","","","","76","L","3","","","135","main_expt",""
"","bandit","215","799556","0.0-177.0-0.0","42436666","wem/bandit_party_1","A28N97P3R495WM","either","8","605","","","","","","","0","0","1","","0.2385277364","0.2","0.6","0.4","0.8","0.3703049055","0.1108499649","0.2454982057","0.2385277364","","","","","","","","","","","","","","76","L","3","","","136","main_expt",""
"","bandit","216","801071","0.0-178.0-0.0","42436666","wem/bandit_party_1","A28N97P3R495WM","either","8","7","","","","","","","0","0","1","","0.2708690816","0.2","0.6","0.4","0.8","0.3657944308","0.1208727618","0.2708690816","0.1935782534","","","","","","","","","","","","","","75","K","2","","","137","main_expt",""
"","bandit","217","803090","0.0-179.0-0.0","42436666","wem/bandit_party_1","A28N97P3R495WM","either","8","512","","","","","","","0","0","1","0.2219039101","","0.2","0.6","0.4","0.8","","","","","0.3452946514","0.1098805161","0.2219039101","0.14087624","","","","","","","","","","75","K","2","","","138","main_expt",""
"","bandit","218","805044","0.0-180.0-0.0","42436666","wem/bandit_party_1","A28N97P3R495WM","either","8","446","","","","","","","0","0","1","","0.2485571535","0.2","0.6","0.4","0.8","0.3225052804","0.1359731218","0.2485571535","0.1340930794","","","","","","","","","","","","","","75","K","2","","","139","main_expt",""
"","bandit","219","806846","0.0-181.0-0.0","42436666","wem/bandit_party_1","A28N97P3R495WM","either","8","295","","","","","","","0","0","1","0.1419248406","","0.2","0.6","0.4","0.8","","","","","0.2997250911","0.1419248406","0.2605640439","0.1170750994","","","","","","","","","","74","J","1","","","140","main_expt",""
"","bandit","220","808810","0.0-182.0-0.0","42436666","wem/bandit_party_1","A28N97P3R495WM","either","8","457","","","","","","","0","0","1","","0.1269577117","0.2","0.6","0.4","0.8","0.311933389","0.1269577117","0.2260680923","0.1316830279","","","","","","","","","","","","","","74","J","1","","","141","main_expt",""
"","bandit","221","810423","0.0-183.0-0.0","42436666","wem/bandit_party_1","A28N97P3R495WM","either","8","105","","","","","","","0","0","1","0.1073819056","","0.2","0.6","0.4","0.8","","","","","0.3442568425","0.1073819056","0.2354846983","0.09490366034","","","","","","","","","","74","J","1","","","142","main_expt",""
"","bandit","222","812013","0.0-184.0-0.0","42436666","wem/bandit_party_1","A28N97P3R495WM","either","8","82","","","","","","","0","0","1","","0.3117203045","0.2","0.6","0.4","0.8","0.3117203045","0.1152767294","0.2089358464","0.1246024154","","","","","","","","","","","","","","72","H","0","img/none_selected.jpg","","143","main_expt",""
"","bandit","223","813791","0.0-185.0-0.0","42436666","wem/bandit_party_1","A28N97P3R495WM","either","8","269","","","","","","","0","0","1","","0.3080771123","0.2","0.6","0.4","0.8","0.3080771123","0.1317444946","0.1844607625","0.1179874238","","","","","","","","","","","","","","72","H","0","img/none_selected.jpg","","144","main_expt",""
"","bandit","224","815575","0.0-186.0-0.0","42436666","wem/bandit_party_1","A28N97P3R495WM","either","8","277","","","","","","","0","0","1","","0.3146876691","0.2","0.6","0.4","0.8","0.3146876691","0.1058600218","0.1940384654","0.1211842963","","","","","","","","","","","","","","72","H","0","img/none_selected.jpg","","145","main_expt",""
"","bandit","225","817476","0.0-187.0-0.0","42436666","wem/bandit_party_1","A28N97P3R495WM","either","8","393","","","","","","","0","0","1","","0.3526806189","0.2","0.6","0.4","0.8","0.3526806189","0.1862633901","0.2532022814","0.06212451067","","","","","","","","","","","","","","72","H","0","img/none_selected.jpg","","146","main_expt",""
"","bandit","226","819283","0.0-188.0-0.0","42436666","wem/bandit_party_1","A28N97P3R495WM","either","8","300","","","","","","","0","0","1","","0.3859334927","0.2","0.6","0.4","0.8","0.3859334927","0.1944793183","0.272856749","0.05826033827","","","","","","","","","","","","","","72","H","0","img/none_selected.jpg","","147","main_expt",""
"","bandit","227","821249","0.0-189.0-0.0","42436666","wem/bandit_party_1","A28N97P3R495WM","either","8","459","","","","","","","1","0","0","0.4089873985","","0.2","0.6","0.4","0.8","","","","","0.4089873985","0.1572605535","0.2441255329","0.04847575149","","","","","","","","","","72","H","0","img/none_selected.jpg","","148","main_expt",""
"","bandit","228","823103","0.0-190.0-0.0","42436666","wem/bandit_party_1","A28N97P3R495WM","either","8","347","","","","","","","0","0","1","0.3317076441","","0.2","0.6","0.4","0.8","","","","","0.3317076441","0.1632070519","0.2304797635","0.07397138717","","","","","","","","","","72","H","0","img/none_selected.jpg","","149","main_expt",""
"","bandit","229","824863","0.0-191.0-0.0","42436666","wem/bandit_party_1","A28N97P3R495WM","either","8","251","","","","","","","0","0","1","0.2162169298","","0.2","0.6","0.4","0.8","","","","","0.2514439341","0.2162169298","0.2645424191","0.1178437277","","","","","","","","","","74","J","1","","","150","main_expt",""
"","bandit","230","826694","0.0-192.0-0.0","42436666","wem/bandit_party_1","A28N97P3R495WM","either","8","325","","","","","","","1","0","0","0.2806681102","","0.2","0.6","0.4","0.8","","","","","0.2209696772","0.2806681102","0.2919476008","0.1116740648","","","","","","","","","","74","J","1","","","151","main_expt",""
"","bandit","231","828759","0.0-193.0-0.0","42436666","wem/bandit_party_1","A28N97P3R495WM","either","8","557","","","","","","","0","0","1","0.25223767","","0.2","0.6","0.4","0.8","","","","","0.2004300668","0.25223767","0.3004198658","0.09681320826","","","","","","","","","","74","J","1","","","152","main_expt",""
"","bandit","232","831624","0.0-194.0-0.0","42436666","wem/bandit_party_1","A28N97P3R495WM","either","8","1356","","","","","","","0","0","1","0.2259503681","","0.2","0.6","0.4","0.8","","","","","0.1803159607","0.2259503681","0.2910243242","0.1162344283","","","","","","","","","","74","J","1","","","153","main_expt",""
"","bandit","233","833438","0.0-195.0-0.0","42436666","wem/bandit_party_1","A28N97P3R495WM","either","8","306","","","","","","","0","0","1","","0.2858680692","0.2","0.6","0.4","0.8","0.1793353988","0.2520515582","0.2858680692","0.1441765144","","","","","","","","","","","","","","75","K","2","","","154","main_expt",""
"","bandit","234","835569","0.0-196.0-0.0","42436666","wem/bandit_party_1","A28N97P3R495WM","either","8","623","","","","","","","0","0","1","","0.276906037","0.2","0.6","0.4","0.8","0.175125938","0.246895917","0.276906037","0.1506434262","","","","","","","","","","","","","","75","K","2","","","155","main_expt",""
"","bandit","235","837542","0.0-197.0-0.0","42436666","wem/bandit_party_1","A28N97P3R495WM","either","8","466","","","","","","","0","0","1","","0.3087514371","0.2","0.6","0.4","0.8","0.19004546","0.2067462234","0.3087514371","0.1691825384","","","","","","","","","","","","","","75","K","2","","","156","main_expt",""
"","bandit","236","840657","0.0-198.0-0.0","42436666","wem/bandit_party_1","A28N97P3R495WM","either","8","1607","","","","","","","0","0","1","","0.3400763937","0.2","0.6","0.4","0.8","0.1538528063","0.1736677602","0.3400763937","0.1465267651","","","","","","","","","","","","","","75","K","2","","","157","main_expt",""
"","bandit","237","843640","0.0-199.0-0.0","42436666","wem/bandit_party_1","A28N97P3R495WM","either","8","1476","","","","","","","1","0","0","0.1517260174","","0.2","0.6","0.4","0.8","","","","","0.1624419901","0.2437422656","0.3388441277","0.1517260174","","","","","","","","","","76","L","3","","","158","main_expt",""
"","bandit","238","845679","0.0-200.0-0.0","42436666","wem/bandit_party_1","A28N97P3R495WM","either","8","532","","","","","","","0","0","1","0.143579764","","0.2","0.6","0.4","0.8","","","","","0.1749682205","0.2627628197","0.3496437485","0.143579764","","","","","","","","","","76","L","3","","","159","main_expt",""
"","bandit","239","847884","0.0-201.0-0.0","42436666","wem/bandit_party_1","A28N97P3R495WM","either","8","696","","","","","","","0","0","1","0.1701049762","","0.2","0.6","0.4","0.8","","","","","0.2227833177","0.2532756584","0.3347491532","0.1701049762","","","","","","","","","","76","L","3","","","160","main_expt",""
"","bandit","240","850652","0.0-202.0-0.0","42436666","wem/bandit_party_1","A28N97P3R495WM","either","8","1260","","","","","","","1","0","0","0.1596038406","","0.2","0.6","0.4","0.8","","","","","0.1616195486","0.2846030245","0.3036625801","0.1596038406","","","","","","","","","","76","L","3","","","161","main_expt",""
"","bandit","241","852840","0.0-203.0-0.0","42436666","wem/bandit_party_1","A28N97P3R495WM","either","8","680","","","","","","","0","0","1","0.1186271452","","0.2","0.6","0.4","0.8","","","","","0.1440802068","0.2480450928","0.2735804545","0.1186271452","","","","","","","","","","76","L","3","","","162","main_expt",""
"","bandit","242","854770","0.0-204.0-0.0","42436666","wem/bandit_party_1","A28N97P3R495WM","either","8","422","","","","","","","0","0","1","0.1460830151","","0.2","0.6","0.4","0.8","","","","","0.1349250059","0.3217860246","0.2219233964","0.1460830151","","","","","","","","","","76","L","3","","","163","main_expt",""
"","bandit","243","857260","0.0-205.0-0.0","42436666","wem/bandit_party_1","A28N97P3R495WM","either","8","982","","","","","","","0","0","1","0.1924179555","","0.2","0.6","0.4","0.8","","","","","0.1482528248","0.3528623486","0.2489701673","0.1924179555","","","","","","","","","","76","L","3","","","164","main_expt",""
"","bandit","244","859133","0.0-206.0-0.0","42436666","wem/bandit_party_1","A28N97P3R495WM","either","8","364","","","","","","","0","1","0","","0.2424219606","0.2","0.6","0.4","0.8","0.1444116863","0.3113737792","0.2424219606","0.1909643941","","","","","","","","","","","","","","75","K","2","","","165","main_expt",""
"","bandit","245","861079","0.0-207.0-0.0","42436666","wem/bandit_party_1","A28N97P3R495WM","either","8","437","","","","","","","0","0","1","","0.1899742571","0.2","0.6","0.4","0.8","0.1621449425","0.2820045276","0.1899742571","0.1917506842","","","","","","","","","","","","","","75","K","2","","","166","main_expt",""
"","bandit","246","863206","0.0-208.0-0.0","42436666","wem/bandit_party_1","A28N97P3R495WM","either","8","618","","","","","","","0","0","1","","0.2298880826","0.2","0.6","0.4","0.8","0.1695256229","0.2539690707","0.2298880826","0.2238056512","","","","","","","","","","","","","","75","K","2","","","167","main_expt",""
"","bandit","247","865468","0.0-209.0-0.0","42436666","wem/bandit_party_1","A28N97P3R495WM","either","8","756","","","","","","","0","1","0","","0.241220494","0.2","0.6","0.4","0.8","0.1712445676","0.2177565821","0.241220494","0.2132240521","","","","","","","","","","","","","","75","K","2","","","168","main_expt",""
"","bandit","248","867952","0.0-210.0-0.0","42436666","wem/bandit_party_1","A28N97P3R495WM","either","8","977","","","","","","","0","0","1","0.183214586","","0.2","0.6","0.4","0.8","","","","","0.191079104","0.183214586","0.2113351254","0.1363713625","","","","","","","","","","74","J","1","","","169","main_expt",""
"","bandit","249","870745","0.0-211.0-0.0","42436666","wem/bandit_party_1","A28N97P3R495WM","either","8","1284","","","","","","","0","1","0","","0.1757282231","0.2","0.6","0.4","0.8","0.2227666825","0.1757282231","0.2224744884","0.2007690262","","","","","","","","","","","","","","74","J","1","","","170","main_expt",""
"","bandit","250","872746","0.0-212.0-0.0","42436666","wem/bandit_party_1","A28N97P3R495WM","either","8","495","","","","","","","0","0","1","","0.1679331046","0.2","0.6","0.4","0.8","0.2719914804","0.1679331046","0.262177911","0.1238998316","","","","","","","","","","","","","","74","J","1","","","171","main_expt",""
"","bandit","251","874795","0.0-213.0-0.0","42436666","wem/bandit_party_1","A28N97P3R495WM","either","8","542","","","","","","","0","1","0","","0.14560319","0.2","0.6","0.4","0.8","0.2330128459","0.14560319","0.2822992514","0.09746419185","","","","","","","","","","","","","","74","J","1","","","172","main_expt",""
"","bandit","252","877398","0.0-214.0-0.0","42436666","wem/bandit_party_1","A28N97P3R495WM","either","8","1095","","","","","","","1","0","0","0.1341549344","","0.2","0.6","0.4","0.8","","","","","0.2840251313","0.1341549344","0.2545762091","0.1018164217","","","","","","","","","","74","J","1","","","173","main_expt",""
"","bandit","253","879341","0.0-215.0-0.0","42436666","wem/bandit_party_1","A28N97P3R495WM","either","8","435","","","","","","","0","0","1","0.1471305278","","0.2","0.6","0.4","0.8","","","","","0.2739042306","0.1471305278","0.2838184637","0.1401689619","","","","","","","","","","74","J","1","","","174","main_expt",""
"","bandit","254","881788","0.0-216.0-0.0","42436666","wem/bandit_party_1","A28N97P3R495WM","either","8","939","","","","","","","0","0","1","0.173963405","","0.2","0.6","0.4","0.8","","","","","0.3444735506","0.173963405","0.3002790513","0.1697524679","","","","","","","","","","74","J","1","","","175","main_expt",""
"","bandit","255","884142","0.0-217.0-0.0","42436666","wem/bandit_party_1","A28N97P3R495WM","either","8","845","","","","","","","0","0","1","","0.3223017316","0.2","0.6","0.4","0.8","0.3223017316","0.1821857965","0.3771690292","0.1896898672","","","","","","","","","","","","","","72","H","0","img/none_selected.jpg","","176","main_expt",""
"","bandit","256","886911","0.0-218.0-0.0","42436666","wem/bandit_party_1","A28N97P3R495WM","either","8","1260","","","","","","","0","0","1","0.2964924158","","0.2","0.6","0.4","0.8","","","","","0.2964924158","0.1444884472","0.4047809956","0.2441254625","","","","","","","","","","72","H","0","img/none_selected.jpg","","177","main_expt",""
"","bandit","257","889586","0.0-219.0-0.0","42436666","wem/bandit_party_1","A28N97P3R495WM","either","8","1168","","","","","","","0","0","1","","0.2780576925","0.2","0.6","0.4","0.8","0.2780576925","0.1207783293","0.4344960837","0.2427722412","","","","","","","","","","","","","","72","H","0","img/none_selected.jpg","","178","main_expt",""
"","bandit","258","891952","0.0-220.0-0.0","42436666","wem/bandit_party_1","A28N97P3R495WM","either","8","858","","","","","","","0","0","1","","0.2859751729","0.2","0.6","0.4","0.8","0.2859751729","0.111585665","0.4287912686","0.2284650367","","","","","","","","","","","","","","72","H","0","img/none_selected.jpg","","179","main_expt",""
"","bandit","259","893779","0.0-221.0-0.0","42436666","wem/bandit_party_1","A28N97P3R495WM","either","8","318","","","","","","","0","1","0","","0.283533164","0.2","0.6","0.4","0.8","0.283533164","0.06891525065","0.4294180747","0.2694081366","","","","","","","","","","","","","","72","H","0","img/none_selected.jpg","","180","main_expt",""
"","bandit","260","895788","0.0-222.0-0.0","42436666","wem/bandit_party_1","A28N97P3R495WM","either","8","502","","","","","","","0","0","1","0.2430023428","","0.2","0.6","0.4","0.8","","","","","0.2430023428","0.07407739619","0.3887332701","0.2471628034","","","","","","","","","","72","H","0","img/none_selected.jpg","","181","main_expt",""
"","bandit","261","897991","0.0-223.0-0.0","42436666","wem/bandit_party_1","A28N97P3R495WM","either","8","695","","","","","","","0","0","1","","0.223254837","0.2","0.6","0.4","0.8","0.223254837","0.07501704201","0.3910635387","0.275372354","","","","","","","","","","","","","","72","H","0","img/none_selected.jpg","","182","main_expt",""
"","bandit","262","900105","0.0-224.0-0.0","42436666","wem/bandit_party_1","A28N97P3R495WM","either","8","605","","","","","","","0","0","1","","0.2274286797","0.2","0.6","0.4","0.8","0.2274286797","0.09354103142","0.3957792538","0.2378950907","","","","","","","","","","","","","","72","H","0","img/none_selected.jpg","","183","main_expt",""
"","bandit","263","901979","0.0-225.0-0.0","42436666","wem/bandit_party_1","A28N97P3R495WM","either","8","365","","","","","","","0","0","1","","0.2485964068","0.2","0.6","0.4","0.8","0.2485964068","0.06673830493","0.3777829694","0.2611999536","","","","","","","","","","","","","","72","H","0","img/none_selected.jpg","","184","main_expt",""
"","bandit","264","903935","0.0-226.0-0.0","42436666","wem/bandit_party_1","A28N97P3R495WM","either","8","447","","","","","","","0","0","1","0.08617836821","","0.2","0.6","0.4","0.8","","","","","0.2080173303","0.08617836821","0.4130939835","0.2799245071","","","","","","","","","","74","J","1","","","185","main_expt",""
"","bandit","265","906769","0.0-227.0-0.0","42436666","wem/bandit_party_1","A28N97P3R495WM","either","8","1325","","","","","","","0","0","1","","0.05054014018","0.2","0.6","0.4","0.8","0.2538883687","0.05054014018","0.376930599","0.2275386122","","","","","","","","","","","","","","74","J","1","","","186","main_expt",""
"","bandit","266","909975","0.0-228.0-0.0","42436666","wem/bandit_party_1","A28N97P3R495WM","either","8","1698","","","","","","","0","0","1","0.1101456656","","0.2","0.6","0.4","0.8","","","","","0.2267652077","0.1101456656","0.3934592684","0.2558518805","","","","","","","","","","74","J","1","","","187","main_expt",""
"","bandit","267","911822","0.0-229.0-0.0","42436666","wem/bandit_party_1","A28N97P3R495WM","either","8","339","","","","","","","0","0","1","0.1076418148","","0.2","0.6","0.4","0.8","","","","","0.2583789709","0.1076418148","0.4086060551","0.2757393749","","","","","","","","","","74","J","1","","","188","main_expt",""
"","bandit","268","913682","0.0-230.0-0.0","42436666","wem/bandit_party_1","A28N97P3R495WM","either","8","351","","","","","","","0","1","0","","0.447145564","0.2","0.6","0.4","0.8","0.2329768584","0.1230456027","0.447145564","0.3326758055","","","","","","","","","","","","","","75","K","2","","","189","main_expt",""
"","bandit","269","917247","0.0-231.0-0.0","42436666","wem/bandit_party_1","A28N97P3R495WM","either","8","2056","","","","","","","0","0","1","0.386091063","","0.2","0.6","0.4","0.8","","","","","0.2002510669","0.1872873117","0.386091063","0.332927569","","","","","","","","","","75","K","2","","","190","main_expt",""
"","bandit","270","919292","0.0-232.0-0.0","42436666","wem/bandit_party_1","A28N97P3R495WM","either","8","535","","","","","","","0","1","0","","0.4221145333","0.2","0.6","0.4","0.8","0.2182600554","0.1413073252","0.4221145333","0.3859199101","","","","","","","","","","","","","","75","K","2","","","191","main_expt",""
"","bandit","271","921478","0.0-233.0-0.0","42436666","wem/bandit_party_1","A28N97P3R495WM","either","8","677","","","","","","","0","0","1","","0.3913199708","0.2","0.6","0.4","0.8","0.2681613901","0.1868627967","0.3913199708","0.392668484","","","","","","","","","","","","","","75","K","2","","","192","main_expt",""
"","bandit","272","923512","0.0-234.0-0.0","42436666","wem/bandit_party_1","A28N97P3R495WM","either","8","526","","","","","","","0","0","1","","0.3789843676","0.2","0.6","0.4","0.8","0.3035027483","0.2312719224","0.4013624592","0.3789843676","","","","","","","","","","","","","","76","L","3","","","193","main_expt",""
"","bandit","273","925496","0.0-235.0-0.0","42436666","wem/bandit_party_1","A28N97P3R495WM","either","8","475","","","","","","","1","0","0","0.3689216281","","0.2","0.6","0.4","0.8","","","","","0.275531754","0.2585201677","0.3668237699","0.3689216281","","","","","","","","","","76","L","3","","","194","main_expt",""
"","bandit","274","928374","0.0-236.0-0.0","42436666","wem/bandit_party_1","A28N97P3R495WM","either","8","1369","","","","","","","1","0","0","0.4136905162","","0.2","0.6","0.4","0.8","","","","","0.2716401532","0.2786104129","0.3856266791","0.4136905162","","","","","","","","","","76","L","3","","","195","main_expt",""
"","bandit","275","930687","0.0-237.0-0.0","42436666","wem/bandit_party_1","A28N97P3R495WM","either","8","805","","","","","","","0","1","0","","0.4258575101","0.2","0.6","0.4","0.8","0.2814611543","0.2407834285","0.3702439493","0.4258575101","","","","","","","","","","","","","","76","L","3","","","196","main_expt",""
"","bandit","276","932949","0.0-238.0-0.0","42436666","wem/bandit_party_1","A28N97P3R495WM","either","8","754","","","","","","","1","0","0","0.3976178043","","0.2","0.6","0.4","0.8","","","","","0.2588010394","0.2550568011","0.3665926528","0.3976178043","","","","","","","","","","76","L","3","","","197","main_expt",""
"","bandit","277","935779","0.0-239.0-0.0","42436666","wem/bandit_party_1","A28N97P3R495WM","either","8","1321","","","","","","","0","1","0","","0.3802378075","0.2","0.6","0.4","0.8","0.3094610495","0.3094863904","0.3432124584","0.3802378075","","","","","","","","","","","","","","76","L","3","","","198","main_expt",""
"","bandit","278","938460","0.0-240.0-0.0","42436666","wem/bandit_party_1","A28N97P3R495WM","either","8","1172","","","","","","","0","0","1","0.3926800246","","0.2","0.6","0.4","0.8","","","","","0.3139278769","0.3012985694","0.4096574544","0.3926800246","","","","","","","","","","76","L","3","","","199","main_expt",""
"","bandit","279","940771","0.0-241.0-0.0","42436666","wem/bandit_party_1","A28N97P3R495WM","either","8","803","","","","","","","0","0","1","","0.3814844917","0.2","0.6","0.4","0.8","0.3459706187","0.3149132519","0.3799023259","0.3814844917","","","","","","","","","","","","","","76","L","3","","","200","main_expt",""
"","bandit","280","942616","0.0-242.0-0.0","42436666","wem/bandit_party_1","A28N97P3R495WM","either","8","337","","","","","","","0","0","1","0.3831630738","","0.2","0.6","0.4","0.8","","","","","0.3038365479","0.3236307962","0.3513783521","0.3831630738","","","","","","","","","","76","L","3","","","201","main_expt",""
"","bandit","281","944674","0.0-243.0-0.0","42436666","wem/bandit_party_1","A28N97P3R495WM","either","8","549","","","","","","","1","0","0","0.3957430938","","0.2","0.6","0.4","0.8","","","","","0.2964599608","0.3163717903","0.3439351057","0.3957430938","","","","","","","","","","76","L","3","","","202","main_expt",""
"","bandit","282","946589","0.0-244.0-0.0","42436666","wem/bandit_party_1","A28N97P3R495WM","either","8","405","","","","","","","0","0","1","","0.4175506619","0.2","0.6","0.4","0.8","0.280336616","0.3165936227","0.2615327891","0.4175506619","","","","","","","","","","","","","","76","L","3","","","203","main_expt",""
"","bandit","283","948429","0.0-245.0-0.0","42436666","wem/bandit_party_1","A28N97P3R495WM","either","8","331","","","","","","","0","0","1","0.4356800279","","0.2","0.6","0.4","0.8","","","","","0.262900641","0.3166231072","0.2211517471","0.4356800279","","","","","","","","","","76","L","3","","","204","main_expt",""
"","bandit","284","950677","0.0-246.0-0.0","42436666","wem/bandit_party_1","A28N97P3R495WM","either","8","739","","","","","","","1","0","0","0.4342993254","","0.2","0.6","0.4","0.8","","","","","0.3403150927","0.2983153058","0.1955747294","0.4342993254","","","","","","","","","","76","L","3","","","205","main_expt",""
"","bandit","285","952647","0.0-247.0-0.0","42436666","wem/bandit_party_1","A28N97P3R495WM","either","8","461","","","","","","","1","0","0","0.4515967499","","0.2","0.6","0.4","0.8","","","","","0.3407188883","0.255573156","0.3137251184","0.4515967499","","","","","","","","","","76","L","3","","","206","main_expt",""
"","bandit","286","954570","0.0-248.0-0.0","42436666","wem/bandit_party_1","A28N97P3R495WM","either","8","414","","","","","","","0","1","0","","0.4559700358","0.2","0.6","0.4","0.8","0.2955601217","0.2816724171","0.2982459604","0.4559700358","","","","","","","","","","","","","","76","L","3","","","207","main_expt",""
"","bandit","287","956688","0.0-249.0-0.0","42436666","wem/bandit_party_1","A28N97P3R495WM","either","8","610","","","","","","","1","0","0","0.4711787588","","0.2","0.6","0.4","0.8","","","","","0.2832193826","0.2462622089","0.2359404152","0.4711787588","","","","","","","","","","76","L","3","","","208","main_expt",""
"","bandit","288","958647","0.0-250.0-0.0","42436666","wem/bandit_party_1","A28N97P3R495WM","either","8","449","","","","","","","0","0","1","0.4859779177","","0.2","0.6","0.4","0.8","","","","","0.25637755","0.2608633631","0.2396635106","0.4859779177","","","","","","","","","","76","L","3","","","209","main_expt",""
"","bandit","289","960526","0.0-251.0-0.0","42436666","wem/bandit_party_1","A28N97P3R495WM","either","8","371","","","","","","","0","0","1","","0.4798195452","0.2","0.6","0.4","0.8","0.2500912527","0.2649708152","0.2320506775","0.4798195452","","","","","","","","","","","","","","76","L","3","","","210","main_expt",""
"","bandit","290","962527","0.0-252.0-0.0","42436666","wem/bandit_party_1","A28N97P3R495WM","either","8","492","","","","","","","0","0","1","","0.4754072522","0.2","0.6","0.4","0.8","0.2481129288","0.2658594566","0.1894847828","0.4754072522","","","","","","","","","","","","","","76","L","3","","","211","main_expt",""
"","bandit","291","964470","0.0-253.0-0.0","42436666","wem/bandit_party_1","A28N97P3R495WM","either","8","434","","","","","","","0","0","1","0.4780703898","","0.2","0.6","0.4","0.8","","","","","0.3192168596","0.2648449814","0.2330804604","0.4780703898","","","","","","","","","","76","L","3","","","212","main_expt",""
"","bandit","292","966258","0.0-254.0-0.0","42436666","wem/bandit_party_1","A28N97P3R495WM","either","8","279","","","","","","","0","0","1","","0.2484053244","0.2","0.6","0.4","0.8","0.2361953268","0.286492297","0.2484053244","0.4883488692","","","","","","","","","","","","","","75","K","2","","","213","main_expt",""
"","bandit","293","968395","0.0-255.0-0.0","42436666","wem/bandit_party_1","A28N97P3R495WM","either","8","628","","","","","","","0","0","1","0.2182548364","","0.2","0.6","0.4","0.8","","","","","0.2308921763","0.2540339129","0.2182548364","0.4872562331","","","","","","","","","","75","K","2","","","214","main_expt",""
"","bandit","294","970285","0.0-256.0-0.0","42436666","wem/bandit_party_1","A28N97P3R495WM","either","8","381","","","","","","","0","0","1","","0.1824073789","0.2","0.6","0.4","0.8","0.2161033537","0.254651127","0.1824073789","0.4749609167","","","","","","","","","","","","","","75","K","2","","","215","main_expt",""
"","bandit","295","972184","0.0-257.0-0.0","42436666","wem/bandit_party_1","A28N97P3R495WM","either","8","391","","","","","","","1","0","0","0.3140517816","","0.2","0.6","0.4","0.8","","","","","0.1896756427","0.3140517816","0.1923730387","0.4798413464","","","","","","","","","","74","J","1","","","216","main_expt",""
"","bandit","296","974060","0.0-258.0-0.0","42436666","wem/bandit_party_1","A28N97P3R495WM","either","8","367","","","","","","","0","1","0","","0.3338676317","0.2","0.6","0.4","0.8","0.1724286307","0.3338676317","0.2266612446","0.4865144435","","","","","","","","","","","","","","74","J","1","","","217","main_expt",""
"","bandit","297","976182","0.0-259.0-0.0","42436666","wem/bandit_party_1","A28N97P3R495WM","either","8","613","","","","","","","0","0","1","","0.3397001125","0.2","0.6","0.4","0.8","0.161168334","0.3397001125","0.1702705737","0.4789145001","","","","","","","","","","","","","","74","J","1","","","218","main_expt",""
"","bandit","298","978076","0.0-260.0-0.0","42436666","wem/bandit_party_1","A28N97P3R495WM","either","8","385","","","","","","","0","0","1","0.2982528089","","0.2","0.6","0.4","0.8","","","","","0.2021763003","0.2982528089","0.1159766116","0.4834748692","","","","","","","","","","74","J","1","","","219","main_expt",""
"","bandit","299","980169","0.0-261.0-0.0","42436666","wem/bandit_party_1","A28N97P3R495WM","either","8","585","","","","","","","0","0","1","","0.2142164272","0.2","0.6","0.4","0.8","0.2142164272","0.2770934022","0.09529473055","0.4722371777","","","","","","","","","","","","","","72","H","0","img/none_selected.jpg","","220","main_expt",""
"","bandit","300","981957","0.0-262.0-0.0","42436666","wem/bandit_party_1","A28N97P3R495WM","either","8","280","","","","","","","0","0","1","","0.189068297","0.2","0.6","0.4","0.8","0.189068297","0.2696770889","0.09060922323","0.4654689219","","","","","","","","","","","","","","72","H","0","img/none_selected.jpg","","221","main_expt",""
"","bandit","301","984095","0.0-263.0-0.0","42436666","wem/bandit_party_1","A28N97P3R495WM","either","8","630","","","","","","","0","0","1","","0.2120997892","0.2","0.6","0.4","0.8","0.2120997892","0.3103502417","0.1250772464","0.4533789701","","","","","","","","","","","","","","72","H","0","img/none_selected.jpg","","222","main_expt",""
"","bandit","302","985924","0.0-264.0-0.0","42436666","wem/bandit_party_1","A28N97P3R495WM","either","8","321","","","","","","","0","0","1","0.1937664477","","0.2","0.6","0.4","0.8","","","","","0.1937664477","0.3477728299","0.1177235221","0.4473019993","","","","","","","","","","72","H","0","img/none_selected.jpg","","223","main_expt",""
"","bandit","303","987732","0.0-265.0-0.0","42436666","wem/bandit_party_1","A28N97P3R495WM","either","8","299","","","","","","","1","0","0","0.3230244909","","0.2","0.6","0.4","0.8","","","","","0.2195846313","0.3230244909","0.1589673504","0.4651086175","","","","","","","","","","74","J","1","","","224","main_expt",""
"","bandit","304","989684","0.0-266.0-0.0","42436666","wem/bandit_party_1","A28N97P3R495WM","either","8","439","","","","","","","0","1","0","","0.3641913847","0.2","0.6","0.4","0.8","0.1973587738","0.3641913847","0.1582937281","0.4704934375","","","","","","","","","","","","","","74","J","1","","","225","main_expt",""
"","bandit","305","991653","0.0-267.0-0.0","42436666","wem/bandit_party_1","A28N97P3R495WM","either","8","459","","","","","","","0","0","1","0.3211822138","","0.2","0.6","0.4","0.8","","","","","0.2029059012","0.3211822138","0.1585786296","0.4545632724","","","","","","","","","","74","J","1","","","226","main_expt",""
"","bandit","306","993743","0.0-268.0-0.0","42436666","wem/bandit_party_1","A28N97P3R495WM","either","8","580","","","","","","","0","1","0","","0.3318596792","0.2","0.6","0.4","0.8","0.1677618241","0.3318596792","0.1614007709","0.4313330006","","","","","","","","","","","","","","74","J","1","","","227","main_expt",""
"","bandit","307","995655","0.0-269.0-0.0","42436666","wem/bandit_party_1","A28N97P3R495WM","either","8","404","","","","","","","1","0","0","0.3715738924","","0.2","0.6","0.4","0.8","","","","","0.2079318551","0.3715738924","0.1160982884","0.4253897179","","","","","","","","","","74","J","1","","","228","main_expt",""
"","bandit","308","997598","0.0-270.0-0.0","42436666","wem/bandit_party_1","A28N97P3R495WM","either","8","433","","","","","","","1","0","0","0.3571583743","","0.2","0.6","0.4","0.8","","","","","0.1860779256","0.3571583743","0.1327168588","0.4416009531","","","","","","","","","","74","J","1","","","229","main_expt",""
"","bandit","309","999494","0.0-271.0-0.0","42436666","wem/bandit_party_1","A28N97P3R495WM","either","8","386","","","","","","","1","0","0","0.3455313741","","0.2","0.6","0.4","0.8","","","","","0.1294985144","0.3455313741","0.1751239199","0.4612445757","","","","","","","","","","74","J","1","","","230","main_expt",""
"","bandit","310","1001713","0.0-272.0-0.0","42436666","wem/bandit_party_1","A28N97P3R495WM","either","8","710","","","","","","","0","0","1","","0.3114256563","0.2","0.6","0.4","0.8","0.1424139305","0.3114256563","0.2080149414","0.4455927364","","","","","","","","","","","","","","74","J","1","","","231","main_expt",""
"","bandit","311","1003962","0.0-273.0-0.0","42436666","wem/bandit_party_1","A28N97P3R495WM","either","8","740","","","","","","","0","0","1","0.3127001645","","0.2","0.6","0.4","0.8","","","","","0.1777617008","0.3127001645","0.2305008548","0.4449483857","","","","","","","","","","74","J","1","","","232","main_expt",""
"","bandit","312","1005969","0.0-274.0-0.0","42436666","wem/bandit_party_1","A28N97P3R495WM","either","8","497","","","","","","","0","0","1","0.2953609795","","0.2","0.6","0.4","0.8","","","","","0.1408291819","0.2953609795","0.2331895239","0.4570404202","","","","","","","","","","74","J","1","","","233","main_expt",""
"","bandit","313","1007893","0.0-275.0-0.0","42436666","wem/bandit_party_1","A28N97P3R495WM","either","8","415","","","","","","","0","0","1","0.2007149185","","0.2","0.6","0.4","0.8","","","","","0.09563300426","0.2743769666","0.2007149185","0.4785018613","","","","","","","","","","75","K","2","","","234","main_expt",""
"","bandit","314","1009763","0.0-276.0-0.0","42436666","wem/bandit_party_1","A28N97P3R495WM","either","8","361","","","","","","","0","0","1","","0.1428876463","0.2","0.6","0.4","0.8","0.06508254785","0.2842570603","0.1428876463","0.4708517218","","","","","","","","","","","","","","75","K","2","","","235","main_expt",""
"","bandit","315","1011892","0.0-277.0-0.0","42436666","wem/bandit_party_1","A28N97P3R495WM","either","8","620","","","","","","","0","0","1","0.1327756685","","0.2","0.6","0.4","0.8","","","","","0.05272484418","0.3536106974","0.1327756685","0.4721911582","","","","","","","","","","75","K","2","","","236","main_expt",""
"","bandit","316","1014090","0.0-278.0-0.0","42436666","wem/bandit_party_1","A28N97P3R495WM","either","8","688","","","","","","","1","0","0","0.4567984566","","0.2","0.6","0.4","0.8","","","","","0.05000735717","0.3777879982","0.1969646424","0.4567984566","","","","","","","","","","76","L","3","","","237","main_expt",""
