"consent","trial_type","trial_index","time_elapsed","internal_node_id","subjID","study","MID","cond","drift","rt","responses","button_pressed","key_press","like","value","connected","gems","bombs","no_reward","GemPrChosen","BombPrChosen","GainOverPainPr_0","GainOverPainPr_1","GainOverPainPr_2","GainOverPainPr_3","LosePr_0","LosePr_1","LosePr_2","LosePr_3","WinPr_0","WinPr_1","WinPr_2","WinPr_3","Q0","Q1","Q2","gender","age","ethnicity","label","expt_phase","target","respCharCode","respKey","respChoiceNum","respChoice","practice","trial_counter","trial_label","Q0_index"
"GDM/GDM_behavioral_consent_30min_online.html","consent","0","11518","0.0-0.0","42939255","wem/bandit_party_1","A1ENLHC41G3T9E","either","3","","","","","","","","","","","","","","","","","","","","","","","","","","","","","","","","","","","","","","","","",""
"","survey-text","1","16511","0.0-1.0","42939255","wem/bandit_party_1","A1ENLHC41G3T9E","either","3","3970","{""Q0"":""A1ENLHC41G3T9E""}","","","","","","","","","","","","","","","","","","","","","","","","","","","","","","","","","","","","","","",""
"","button-response","2","19655","0.0-2.0","42939255","wem/bandit_party_1","A1ENLHC41G3T9E","either","3","2120","","2","","","","","","","","","","","","","","","","","","","","","","","","","","","","","","","","","","","","","",""
"","text-replacement","3","65062","0.0-3.0","42939255","wem/bandit_party_1","A1ENLHC41G3T9E","either","3","44397","","","32","","","","","","","","","","","","","","","","","","","","","","","","","","","","","","","","","","","","",""
"","text-replacement","4","71936","0.0-4.0","42939255","wem/bandit_party_1","A1ENLHC41G3T9E","either","3","6865","","","32","","","","","","","","","","","","","","","","","","","","","","","","","","","","","","","","","","","","",""
"","text-replacement","5","76125","0.0-5.0-0.0","42939255","wem/bandit_party_1","A1ENLHC41G3T9E","either","3","4178","","","32","","","","","","","","","","","","","","","","","","","","","","","","","","","","","","","","","","","","",""
"","identification","6","88792","0.0-6.0-0.0","42939255","wem/bandit_party_1","A1ENLHC41G3T9E","either","3","12626","","","","3","3","0","","","","","","","","","","","","","","","","","","","","","","","","pre","identification_pre","the Democratic Party","","","","","","","",""
"","identification","7","94812","0.0-6.0-1.0","42939255","wem/bandit_party_1","A1ENLHC41G3T9E","either","3","4977","","","","0","0","0","","","","","","","","","","","","","","","","","","","","","","","","pre","identification_pre","the Republican party","","","","","","","",""
"","text-replacement","8","102241","0.0-7.0","42939255","wem/bandit_party_1","A1ENLHC41G3T9E","either","3","6421","","","32","","","","","","","","","","","","","","","","","","","","","","","","","","","","","","","","","","","","",""
"","text-replacement","9","107451","0.0-8.0","42939255","wem/bandit_party_1","A1ENLHC41G3T9E","either","3","5197","","","32","","","","","","","","","","","","","","","","","","","","","","","","","","","","","","","","","","","","",""
"","text-replacement","10","117155","0.0-9.0","42939255","wem/bandit_party_1","A1ENLHC41G3T9E","either","3","9694","","","32","","","","","","","","","","","","","","","","","","","","","","","","","","","","","","","","","","","","",""
"","text-replacement","11","120116","0.0-10.0","42939255","wem/bandit_party_1","A1ENLHC41G3T9E","either","3","2952","","","32","","","","","","","","","","","","","","","","","","","","","","","","","","","","","","","","","","","","",""
"","text-replacement","12","122733","0.0-11.0","42939255","wem/bandit_party_1","A1ENLHC41G3T9E","either","3","2608","","","32","","","","","","","","","","","","","","","","","","","","","","","","","","","","","","","","","","","","",""
"","bandit","13","124827","0.0-12.0-0.0","42939255","wem/bandit_party_1","A1ENLHC41G3T9E","either","3","560","","","","","","","0","0","1","0","0","","","","","0","","","","0","","","","","","","","","","","","","74","J","0","img/none_selected_demo.jpg","true","0","",""
"","bandit","14","127720","0.0-13.0-0.0","42939255","wem/bandit_party_1","A1ENLHC41G3T9E","either","3","1367","","","","","","","0","0","1","0","0","","","","","0","","","","0","","","","","","","","","","","","","75","K","0","img/none_selected_demo.jpg","true","0","",""
"","text-replacement","15","131805","0.0-14.0","42939255","wem/bandit_party_1","A1ENLHC41G3T9E","either","3","4078","","","32","","","","","","","","","","","","","","","","","","","","","","","","","","","","","","","","","","","","",""
"","text-replacement","16","137430","0.0-15.0","42939255","wem/bandit_party_1","A1ENLHC41G3T9E","either","3","5613","","","32","","","","","","","","","","","","","","","","","","","","","","","","","","","","","","","","","","","","",""
"","text-replacement","17","142518","0.0-16.0","42939255","wem/bandit_party_1","A1ENLHC41G3T9E","either","3","5081","","","32","","","","","","","","","","","","","","","","","","","","","","","","","","","","","","","","","","","","",""
"","text-replacement","18","146615","0.0-17.0","42939255","wem/bandit_party_1","A1ENLHC41G3T9E","either","3","4091","","","32","","","","","","","","","","","","","","","","","","","","","","","","","","","","","","","","","","","","",""
"","bandit","19","148590","0.0-18.0-0.0","42939255","wem/bandit_party_1","A1ENLHC41G3T9E","either","3","451","","","","","","","1","0","0","0.8","","0.5","0.5","","","","","","","0.8","0.2","","","","","","","","","","","","74","J","0","img/none_selected_demo.jpg","true","0","80_20_practice",""
"","bandit","20","150264","0.0-18.0-1.0","42939255","wem/bandit_party_1","A1ENLHC41G3T9E","either","3","146","","","","","","","1","0","0","0.8","","0.5","0.5","","","","","","","0.8","0.2","","","","","","","","","","","","74","J","0","img/none_selected_demo.jpg","true","0","80_20_practice",""
"","bandit","21","152106","0.0-18.0-2.0","42939255","wem/bandit_party_1","A1ENLHC41G3T9E","either","3","310","","","","","","","0","1","0","","0.8","0.5","0.5","","","0.8","0.2","","","","","","","","","","","","","","","","74","J","0","img/none_selected_demo.jpg","true","0","80_20_practice",""
"","bandit","22","153965","0.0-18.0-3.0","42939255","wem/bandit_party_1","A1ENLHC41G3T9E","either","3","327","","","","","","","0","1","0","","0.8","0.5","0.5","","","0.8","0.2","","","","","","","","","","","","","","","","74","J","0","img/none_selected_demo.jpg","true","0","80_20_practice",""
"","bandit","23","155785","0.0-18.0-4.0","42939255","wem/bandit_party_1","A1ENLHC41G3T9E","either","3","301","","","","","","","0","1","0","","0.8","0.5","0.5","","","0.8","0.2","","","","","","","","","","","","","","","","74","J","0","img/none_selected_demo.jpg","true","0","80_20_practice",""
"","bandit","24","157590","0.0-18.0-5.0","42939255","wem/bandit_party_1","A1ENLHC41G3T9E","either","3","279","","","","","","","0","0","1","","0.8","0.5","0.5","","","0.8","0.2","","","","","","","","","","","","","","","","74","J","0","img/none_selected_demo.jpg","true","0","80_20_practice",""
"","bandit","25","160429","0.0-18.0-6.0","42939255","wem/bandit_party_1","A1ENLHC41G3T9E","either","3","1316","","","","","","","0","0","1","0.2","","0.5","0.5","","","","","","","0.8","0.2","","","","","","","","","","","","75","K","1","","true","0","80_20_practice",""
"","bandit","26","164251","0.0-18.0-7.0","42939255","wem/bandit_party_1","A1ENLHC41G3T9E","either","3","2298","","","","","","","0","0","1","","0.2","0.5","0.5","","","0.8","0.2","","","","","","","","","","","","","","","","75","K","1","","true","0","80_20_practice",""
"","bandit","27","166158","0.0-18.0-8.0","42939255","wem/bandit_party_1","A1ENLHC41G3T9E","either","3","386","","","","","","","0","0","1","","0.2","0.5","0.5","","","0.8","0.2","","","","","","","","","","","","","","","","75","K","1","","true","0","80_20_practice",""
"","bandit","28","167941","0.0-18.0-9.0","42939255","wem/bandit_party_1","A1ENLHC41G3T9E","either","3","256","","","","","","","0","0","1","0.2","","0.5","0.5","","","","","","","0.8","0.2","","","","","","","","","","","","75","K","1","","true","0","80_20_practice",""
"","bandit","29","169737","0.0-18.0-10.0","42939255","wem/bandit_party_1","A1ENLHC41G3T9E","either","3","265","","","","","","","0","0","1","0.2","","0.5","0.5","","","","","","","0.8","0.2","","","","","","","","","","","","75","K","1","","true","0","80_20_practice",""
"","bandit","30","171645","0.0-18.0-11.0","42939255","wem/bandit_party_1","A1ENLHC41G3T9E","either","3","378","","","","","","","1","0","0","0.8","","0.5","0.5","","","","","","","0.8","0.2","","","","","","","","","","","","74","J","0","img/none_selected_demo.jpg","true","0","80_20_practice",""
"","bandit","31","173637","0.0-18.0-12.0","42939255","wem/bandit_party_1","A1ENLHC41G3T9E","either","3","466","","","","","","","1","0","0","0.8","","0.5","0.5","","","","","","","0.8","0.2","","","","","","","","","","","","74","J","0","img/none_selected_demo.jpg","true","0","80_20_practice",""
"","bandit","32","175754","0.0-18.0-13.0","42939255","wem/bandit_party_1","A1ENLHC41G3T9E","either","3","588","","","","","","","1","0","0","0.8","","0.5","0.5","","","","","","","0.8","0.2","","","","","","","","","","","","74","J","0","img/none_selected_demo.jpg","true","0","80_20_practice",""
"","bandit","33","177600","0.0-18.0-14.0","42939255","wem/bandit_party_1","A1ENLHC41G3T9E","either","3","318","","","","","","","0","0","1","","0.8","0.5","0.5","","","0.8","0.2","","","","","","","","","","","","","","","","74","J","0","img/none_selected_demo.jpg","true","0","80_20_practice",""
"","bandit","34","179267","0.0-18.0-15.0","42939255","wem/bandit_party_1","A1ENLHC41G3T9E","either","3","140","","","","","","","1","0","0","0.8","","0.5","0.5","","","","","","","0.8","0.2","","","","","","","","","","","","74","J","0","img/none_selected_demo.jpg","true","0","80_20_practice",""
"","bandit","35","181879","0.0-18.0-16.0","42939255","wem/bandit_party_1","A1ENLHC41G3T9E","either","3","1085","","","","","","","1","0","0","0.8","","0.5","0.5","","","","","","","0.8","0.2","","","","","","","","","","","","74","J","0","img/none_selected_demo.jpg","true","0","80_20_practice",""
"","bandit","36","183678","0.0-18.0-17.0","42939255","wem/bandit_party_1","A1ENLHC41G3T9E","either","3","270","","","","","","","0","0","1","","0.8","0.5","0.5","","","0.8","0.2","","","","","","","","","","","","","","","","74","J","0","img/none_selected_demo.jpg","true","0","80_20_practice",""
"","bandit","37","185361","0.0-18.0-18.0","42939255","wem/bandit_party_1","A1ENLHC41G3T9E","either","3","157","","","","","","","1","0","0","0.8","","0.5","0.5","","","","","","","0.8","0.2","","","","","","","","","","","","74","J","0","img/none_selected_demo.jpg","true","0","80_20_practice",""
"","bandit","38","186950","0.0-18.0-19.0","42939255","wem/bandit_party_1","A1ENLHC41G3T9E","either","3","72","","","","","","","0","1","0","","0.8","0.5","0.5","","","0.8","0.2","","","","","","","","","","","","","","","","74","J","0","img/none_selected_demo.jpg","true","0","80_20_practice",""
"","text-replacement","39","191894","0.0-19.0","42939255","wem/bandit_party_1","A1ENLHC41G3T9E","either","3","4935","","","32","","","","","","","","","","","","","","","","","","","","","","","","","","","","","","","","","","","","",""
"","bandit","40","193986","0.0-20.0-0.0","42939255","wem/bandit_party_1","A1ENLHC41G3T9E","either","3","568","","","","","","","1","0","0","1","0","","","","","0","1","","","1","0","","","","","","","","","","","","74","J","0","img/none_selected_demo.jpg","true","0","",""
"","text-replacement","41","196357","0.0-21.0","42939255","wem/bandit_party_1","A1ENLHC41G3T9E","either","3","2353","","","32","","","","","","","","","","","","","","","","","","","","","","","","","","","","","","","","","","","","",""
"","text-replacement","42","200694","0.0-22.0","42939255","wem/bandit_party_1","A1ENLHC41G3T9E","either","3","4330","","","32","","","","","","","","","","","","","","","","","","","","","","","","","","","","","","","","","","","","",""
"","text-replacement","43","203002","0.0-23.0","42939255","wem/bandit_party_1","A1ENLHC41G3T9E","either","3","2302","","","32","","","","","","","","","","","","","","","","","","","","","","","","","","","","","","","","","","","","",""
"","text-replacement","44","205878","0.0-24.0","42939255","wem/bandit_party_1","A1ENLHC41G3T9E","either","3","2868","","","32","","","","","","","","","","","","","","","","","","","","","","","","","","","","","","","","","","","","",""
"","text-replacement","45","207982","0.0-25.0","42939255","wem/bandit_party_1","A1ENLHC41G3T9E","either","3","2095","","","32","","","","","","","","","","","","","","","","","","","","","","","","","","","","","","","","","","","","",""
"","text-replacement","46","209867","0.0-26.0","42939255","wem/bandit_party_1","A1ENLHC41G3T9E","either","3","1877","","","32","","","","","","","","","","","","","","","","","","","","","","","","","","","","","","","","","","","","",""
"","text-replacement","47","210853","0.0-27.0","42939255","wem/bandit_party_1","A1ENLHC41G3T9E","either","3","975","","","32","","","","","","","","","","","","","","","","","","","","","","","","","","","","","","","","","","","","",""
"","text-replacement","48","212363","0.0-28.0","42939255","wem/bandit_party_1","A1ENLHC41G3T9E","either","3","1499","","","32","","","","","","","","","","","","","","","","","","","","","","","","","","","","","","","","","","","","",""
"","text-replacement","49","213017","0.0-29.0","42939255","wem/bandit_party_1","A1ENLHC41G3T9E","either","3","648","","","32","","","","","","","","","","","","","","","","","","","","","","","","","","","","","","","","","","","","",""
"","text-replacement","50","213814","0.0-30.0","42939255","wem/bandit_party_1","A1ENLHC41G3T9E","either","3","787","","","32","","","","","","","","","","","","","","","","","","","","","","","","","","","","","","","","","","","","",""
"","text-replacement","51","215378","0.0-31.0","42939255","wem/bandit_party_1","A1ENLHC41G3T9E","either","3","1557","","","32","","","","","","","","","","","","","","","","","","","","","","","","","","","","","","","","","","","","",""
"","bandit","52","217522","0.0-32.0-0.0","42939255","wem/bandit_party_1","A1ENLHC41G3T9E","either","3","615","","","","","","","1","0","0","0.8","","0.5","0.5","0.5","0.5","","","","","0.8","0.2","0.6","0.2","","","","","","","","","","72","H","0","img/none_selected.jpg","true","0","full_practice",""
"","bandit","53","220338","0.0-32.0-1.0","42939255","wem/bandit_party_1","A1ENLHC41G3T9E","either","3","1282","","","","","","","0","1","0","","0.8","0.5","0.5","0.5","0.5","0.8","0.2","0.6","0.2","","","","","","","","","","","","","","72","H","0","img/none_selected.jpg","true","0","full_practice",""
"","bandit","54","222905","0.0-32.0-2.0","42939255","wem/bandit_party_1","A1ENLHC41G3T9E","either","3","1037","","","","","","","0","0","1","","0.8","0.5","0.5","0.5","0.5","0.8","0.2","0.6","0.2","","","","","","","","","","","","","","72","H","0","img/none_selected.jpg","true","0","full_practice",""
"","bandit","55","224762","0.0-32.0-3.0","42939255","wem/bandit_party_1","A1ENLHC41G3T9E","either","3","327","","","","","","","1","0","0","0.2","","0.5","0.5","0.5","0.5","","","","","0.8","0.2","0.6","0.2","","","","","","","","","","74","J","1","","true","0","full_practice",""
"","bandit","56","226664","0.0-32.0-4.0","42939255","wem/bandit_party_1","A1ENLHC41G3T9E","either","3","370","","","","","","","0","0","1","","0.2","0.5","0.5","0.5","0.5","0.8","0.2","0.6","0.2","","","","","","","","","","","","","","74","J","1","","true","0","full_practice",""
"","bandit","57","228287","0.0-32.0-5.0","42939255","wem/bandit_party_1","A1ENLHC41G3T9E","either","3","94","","","","","","","0","0","1","0.6","","0.5","0.5","0.5","0.5","","","","","0.8","0.2","0.6","0.2","","","","","","","","","","75","K","2","","true","0","full_practice",""
"","bandit","58","230202","0.0-32.0-6.0","42939255","wem/bandit_party_1","A1ENLHC41G3T9E","either","3","395","","","","","","","0","0","1","0.2","","0.5","0.5","0.5","0.5","","","","","0.8","0.2","0.6","0.2","","","","","","","","","","76","L","3","","true","0","full_practice",""
"","bandit","59","234079","0.0-32.0-7.0","42939255","wem/bandit_party_1","A1ENLHC41G3T9E","either","3","2346","","","","","","","0","0","1","","0.2","0.5","0.5","0.5","0.5","0.8","0.2","0.6","0.2","","","","","","","","","","","","","","74","J","1","","true","0","full_practice",""
"","bandit","60","235906","0.0-32.0-8.0","42939255","wem/bandit_party_1","A1ENLHC41G3T9E","either","3","300","","","","","","","1","0","0","0.6","","0.5","0.5","0.5","0.5","","","","","0.8","0.2","0.6","0.2","","","","","","","","","","75","K","2","","true","0","full_practice",""
"","bandit","61","237565","0.0-32.0-9.0","42939255","wem/bandit_party_1","A1ENLHC41G3T9E","either","3","133","","","","","","","0","0","1","","0.6","0.5","0.5","0.5","0.5","0.8","0.2","0.6","0.2","","","","","","","","","","","","","","75","K","2","","true","0","full_practice",""
"","bandit","62","239466","0.0-32.0-10.0","42939255","wem/bandit_party_1","A1ENLHC41G3T9E","either","3","373","","","","","","","0","0","1","","0.6","0.5","0.5","0.5","0.5","0.8","0.2","0.6","0.2","","","","","","","","","","","","","","75","K","2","","true","0","full_practice",""
"","bandit","63","241014","0.0-32.0-11.0","42939255","wem/bandit_party_1","A1ENLHC41G3T9E","either","3","24","","","","","","","1","0","0","0.2","","0.5","0.5","0.5","0.5","","","","","0.8","0.2","0.6","0.2","","","","","","","","","","76","L","3","","true","0","full_practice",""
"","bandit","64","242864","0.0-32.0-12.0","42939255","wem/bandit_party_1","A1ENLHC41G3T9E","either","3","318","","","","","","","0","1","0","","0.2","0.5","0.5","0.5","0.5","0.8","0.2","0.6","0.2","","","","","","","","","","","","","","76","L","3","","true","0","full_practice",""
"","bandit","65","245058","0.0-32.0-13.0","42939255","wem/bandit_party_1","A1ENLHC41G3T9E","either","3","667","","","","","","","0","0","1","","0.2","0.5","0.5","0.5","0.5","0.8","0.2","0.6","0.2","","","","","","","","","","","","","","76","L","3","","true","0","full_practice",""
"","bandit","66","246650","0.0-32.0-14.0","42939255","wem/bandit_party_1","A1ENLHC41G3T9E","either","3","67","","","","","","","1","0","0","0.8","","0.5","0.5","0.5","0.5","","","","","0.8","0.2","0.6","0.2","","","","","","","","","","72","H","0","img/none_selected.jpg","true","0","full_practice",""
"","bandit","67","248548","0.0-32.0-15.0","42939255","wem/bandit_party_1","A1ENLHC41G3T9E","either","3","362","","","","","","","1","0","0","0.8","","0.5","0.5","0.5","0.5","","","","","0.8","0.2","0.6","0.2","","","","","","","","","","72","H","0","img/none_selected.jpg","true","0","full_practice",""
"","bandit","68","251055","0.0-32.0-16.0","42939255","wem/bandit_party_1","A1ENLHC41G3T9E","either","3","982","","","","","","","1","0","0","0.8","","0.5","0.5","0.5","0.5","","","","","0.8","0.2","0.6","0.2","","","","","","","","","","72","H","0","img/none_selected.jpg","true","0","full_practice",""
"","bandit","69","252995","0.0-32.0-17.0","42939255","wem/bandit_party_1","A1ENLHC41G3T9E","either","3","410","","","","","","","0","1","0","","0.8","0.5","0.5","0.5","0.5","0.8","0.2","0.6","0.2","","","","","","","","","","","","","","72","H","0","img/none_selected.jpg","true","0","full_practice",""
"","bandit","70","254729","0.0-32.0-18.0","42939255","wem/bandit_party_1","A1ENLHC41G3T9E","either","3","208","","","","","","","0","1","0","","0.8","0.5","0.5","0.5","0.5","0.8","0.2","0.6","0.2","","","","","","","","","","","","","","72","H","0","img/none_selected.jpg","true","0","full_practice",""
"","bandit","71","256611","0.0-32.0-19.0","42939255","wem/bandit_party_1","A1ENLHC41G3T9E","either","3","342","","","","","","","1","0","0","0.8","","0.5","0.5","0.5","0.5","","","","","0.8","0.2","0.6","0.2","","","","","","","","","","72","H","0","img/none_selected.jpg","true","0","full_practice",""
"","text","72","259675","0.0-33.0","42939255","wem/bandit_party_1","A1ENLHC41G3T9E","either","3","3049","","","32","","","","","","","","","","","","","","","","","","","","","","","","","","","","","","","","","","","","",""
"","text-replacement","73","269107","0.0-34.0","42939255","wem/bandit_party_1","A1ENLHC41G3T9E","either","3","8421","","","32","","","","","","","","","","","","","","","","","","","","","","","","","","","","","","","","","","","","",""
"","text-replacement","74","274622","0.0-35.0","42939255","wem/bandit_party_1","A1ENLHC41G3T9E","either","3","5500","","","32","","","","","","","","","","","","","","","","","","","","","","","","","","","","","","","","","","","","",""
"","text-replacement","75","277048","0.0-36.0","42939255","wem/bandit_party_1","A1ENLHC41G3T9E","either","3","2417","","","32","","","","","","","","","","","","","","","","","","","","","","","","","","","","","","","","","","","","",""
"","text-replacement","76","277947","0.0-37.0","42939255","wem/bandit_party_1","A1ENLHC41G3T9E","either","3","884","","","32","","","","","","","","","","","","","","","","","","","","","","","","","","","","","","","","","","","","",""
"","text-replacement","77","279937","0.0-38.0","42939255","wem/bandit_party_1","A1ENLHC41G3T9E","either","3","1975","","","32","","","","","","","","","","","","","","","","","","","","","","","","","","","","","","","","","","","","",""
"","survey-multi-choice-replacement","78","286284","0.0-39.0-0.0","42939255","wem/bandit_party_1","A1ENLHC41G3T9E","either","3","6326","","","","","","","","","","","","","","","","","","","","","","","","Money will be added to the pool for <span style='color:blue;'>DEMOCRATS</span>","","","","","","","attn_check","","","","","","","","","0"
"","survey-multi-choice-replacement","79","291666","0.0-40.0-0.0","42939255","wem/bandit_party_1","A1ENLHC41G3T9E","either","3","4356","","","","","","","","","","","","","","","","","","","","","","","","Equal amounts of money will be added to the pool for <span style='color:blue;'>DEMOCRATS</span> and subtracted from the pool for <span style='color:red;'>REPUBLICANS</span>","","","","","","","attn_check","","","","","","","","","2"
"","survey-multi-choice-replacement","80","296018","0.0-41.0-0.0","42939255","wem/bandit_party_1","A1ENLHC41G3T9E","either","3","3318","","","","","","","","","","","","","","","","","","","","","","","","No money will be added to either pool","","","","","","","attn_check","","","","","","","","","3"
"","bandit","81","300144","0.0-42.0-0.0","42939255","wem/bandit_party_1","A1ENLHC41G3T9E","either","3","1582","","","","","","","1","0","0","0.4870892339","","0.2","0.4","0.8","0.6","","","","","0.4870892339","0.07685641067","0.1426046982","0.1646489015","","","","","","","","","","72","H","0","img/none_selected.jpg","","1","main_expt",""
"","bandit","82","301773","0.0-43.0-0.0","42939255","wem/bandit_party_1","A1ENLHC41G3T9E","either","3","99","","","","","","","0","0","1","","0.4875162112","0.2","0.4","0.8","0.6","0.4875162112","0.08388143876","0.1597004976","0.2180431119","","","","","","","","","","","","","","72","H","0","img/none_selected.jpg","","2","main_expt",""
"","bandit","83","304320","0.0-44.0-0.0","42939255","wem/bandit_party_1","A1ENLHC41G3T9E","either","3","1014","","","","","","","0","0","1","","0.06528774038","0.2","0.4","0.8","0.6","0.4909945117","0.06528774038","0.1381850853","0.2294217256","","","","","","","","","","","","","","74","J","1","","","3","main_expt",""
"","bandit","84","305909","0.0-45.0-0.0","42939255","wem/bandit_party_1","A1ENLHC41G3T9E","either","3","56","","","","","","","0","0","1","","0.1787932262","0.2","0.4","0.8","0.6","0.482579304","0.07987899881","0.1787932262","0.2162119515","","","","","","","","","","","","","","75","K","2","","","4","main_expt",""
"","bandit","85","308318","0.0-46.0-0.0","42939255","wem/bandit_party_1","A1ENLHC41G3T9E","either","3","874","","","","","","","0","0","1","","0.2246316054","0.2","0.4","0.8","0.6","0.4887913002","0.0432391811","0.1795032464","0.2246316054","","","","","","","","","","","","","","76","L","3","","","5","main_expt",""
"","bandit","86","310251","0.0-47.0-0.0","42939255","wem/bandit_party_1","A1ENLHC41G3T9E","either","3","401","","","","","","","0","1","0","","0.4887860333","0.2","0.4","0.8","0.6","0.4887860333","0.03467601655","0.164375756","0.2061018479","","","","","","","","","","","","","","72","H","0","img/none_selected.jpg","","6","main_expt",""
"","bandit","87","311860","0.0-48.0-0.0","42939255","wem/bandit_party_1","A1ENLHC41G3T9E","either","3","89","","","","","","","0","1","0","","0.4901971563","0.2","0.4","0.8","0.6","0.4901971563","0.05033951668","0.204957223","0.1795347326","","","","","","","","","","","","","","72","H","0","img/none_selected.jpg","","7","main_expt",""
"","bandit","88","314281","0.0-49.0-0.0","42939255","wem/bandit_party_1","A1ENLHC41G3T9E","either","3","890","","","","","","","0","1","0","","0.4862230721","0.2","0.4","0.8","0.6","0.4862230721","0.07676355645","0.2162036531","0.1290452752","","","","","","","","","","","","","","72","H","0","img/none_selected.jpg","","8","main_expt",""
"","bandit","89","316361","0.0-50.0-0.0","42939255","wem/bandit_party_1","A1ENLHC41G3T9E","either","3","555","","","","","","","0","1","0","","0.4759730645","0.2","0.4","0.8","0.6","0.4759730645","0.08620859221","0.2167418122","0.1559184374","","","","","","","","","","","","","","72","H","0","img/none_selected.jpg","","9","main_expt",""
"","bandit","90","318187","0.0-51.0-0.0","42939255","wem/bandit_party_1","A1ENLHC41G3T9E","either","3","290","","","","","","","0","1","0","","0.4560980466","0.2","0.4","0.8","0.6","0.4560980466","0.1103839657","0.1607923637","0.1381514788","","","","","","","","","","","","","","72","H","0","img/none_selected.jpg","","10","main_expt",""
"","bandit","91","320049","0.0-52.0-0.0","42939255","wem/bandit_party_1","A1ENLHC41G3T9E","either","3","322","","","","","","","0","1","0","","0.4775116046","0.2","0.4","0.8","0.6","0.4775116046","0.1334948588","0.1386410957","0.1271140015","","","","","","","","","","","","","","72","H","0","img/none_selected.jpg","","11","main_expt",""
"","bandit","92","321949","0.0-53.0-0.0","42939255","wem/bandit_party_1","A1ENLHC41G3T9E","either","3","349","","","","","","","0","0","1","","0.4705073552","0.2","0.4","0.8","0.6","0.4705073552","0.1535602519","0.1718380738","0.1854664659","","","","","","","","","","","","","","72","H","0","img/none_selected.jpg","","12","main_expt",""
"","bandit","93","323622","0.0-54.0-0.0","42939255","wem/bandit_party_1","A1ENLHC41G3T9E","either","3","143","","","","","","","0","0","1","","0.127854239","0.2","0.4","0.8","0.6","0.4851887342","0.127854239","0.1686303413","0.1869952656","","","","","","","","","","","","","","74","J","1","","","13","main_expt",""
"","bandit","94","326269","0.0-55.0-0.0","42939255","wem/bandit_party_1","A1ENLHC41G3T9E","either","3","1116","","","","","","","0","0","1","0.1460019496","","0.2","0.4","0.8","0.6","","","","","0.4731273917","0.1507911491","0.1460019496","0.2035171393","","","","","","","","","","75","K","2","","","14","main_expt",""
"","bandit","95","328105","0.0-56.0-0.0","42939255","wem/bandit_party_1","A1ENLHC41G3T9E","either","3","312","","","","","","","0","0","1","","0.2800299461","0.2","0.4","0.8","0.6","0.4585867004","0.1741212098","0.1667614464","0.2800299461","","","","","","","","","","","","","","76","L","3","","","15","main_expt",""
"","bandit","96","329903","0.0-57.0-0.0","42939255","wem/bandit_party_1","A1ENLHC41G3T9E","either","3","263","","","","","","","0","0","1","0.4366533258","","0.2","0.4","0.8","0.6","","","","","0.4366533258","0.1918308831","0.1973644546","0.2725454461","","","","","","","","","","72","H","0","img/none_selected.jpg","","16","main_expt",""
"","bandit","97","332421","0.0-58.0-0.0","42939255","wem/bandit_party_1","A1ENLHC41G3T9E","either","3","989","","","","","","","0","0","1","0.1950212473","","0.2","0.4","0.8","0.6","","","","","0.4405228744","0.1950212473","0.1873415792","0.1570621471","","","","","","","","","","74","J","1","","","17","main_expt",""
"","bandit","98","334323","0.0-59.0-0.0","42939255","wem/bandit_party_1","A1ENLHC41G3T9E","either","3","370","","","","","","","1","0","0","0.1875860444","","0.2","0.4","0.8","0.6","","","","","0.4678551263","0.2094813194","0.1875860444","0.1968188506","","","","","","","","","","75","K","2","","","18","main_expt",""
"","bandit","99","337025","0.0-60.0-0.0","42939255","wem/bandit_party_1","A1ENLHC41G3T9E","either","3","1177","","","","","","","0","0","1","0.1988439388","","0.2","0.4","0.8","0.6","","","","","0.466140525","0.2628959394","0.1988439388","0.2439518204","","","","","","","","","","75","K","2","","","19","main_expt",""
"","bandit","100","338883","0.0-61.0-0.0","42939255","wem/bandit_party_1","A1ENLHC41G3T9E","either","3","326","","","","","","","0","0","1","0.1813993393","","0.2","0.4","0.8","0.6","","","","","0.4094087999","0.2116504525","0.1813993393","0.2806117898","","","","","","","","","","75","K","2","","","20","main_expt",""
"","bandit","101","340807","0.0-62.0-0.0","42939255","wem/bandit_party_1","A1ENLHC41G3T9E","either","3","398","","","","","","","0","0","1","0.2012004452","","0.2","0.4","0.8","0.6","","","","","0.4386974508","0.1904426465","0.2012004452","0.2658005831","","","","","","","","","","75","K","2","","","21","main_expt",""
"","bandit","102","342438","0.0-63.0-0.0","42939255","wem/bandit_party_1","A1ENLHC41G3T9E","either","3","99","","","","","","","0","0","1","0.2774390086","","0.2","0.4","0.8","0.6","","","","","0.4505723784","0.1581796968","0.1958646163","0.2774390086","","","","","","","","","","76","L","3","","","22","main_expt",""
"","bandit","103","344035","0.0-64.0-0.0","42939255","wem/bandit_party_1","A1ENLHC41G3T9E","either","3","72","","","","","","","0","1","0","","0.2795917474","0.2","0.4","0.8","0.6","0.4568000239","0.2039009352","0.2626819079","0.2795917474","","","","","","","","","","","","","","76","L","3","","","23","main_expt",""
"","bandit","104","345836","0.0-65.0-0.0","42939255","wem/bandit_party_1","A1ENLHC41G3T9E","either","3","263","","","","","","","0","0","1","","0.2981059477","0.2","0.4","0.8","0.6","0.4518339256","0.228339491","0.2906682881","0.2981059477","","","","","","","","","","","","","","76","L","3","","","24","main_expt",""
"","bandit","105","347629","0.0-66.0-0.0","42939255","wem/bandit_party_1","A1ENLHC41G3T9E","either","3","258","","","","","","","0","0","1","0.3272059922","","0.2","0.4","0.8","0.6","","","","","0.4120159309","0.2602465224","0.3270173502","0.3272059922","","","","","","","","","","76","L","3","","","25","main_expt",""
"","bandit","106","349509","0.0-67.0-0.0","42939255","wem/bandit_party_1","A1ENLHC41G3T9E","either","3","351","","","","","","","0","0","1","0.3369826645","","0.2","0.4","0.8","0.6","","","","","0.4134154185","0.1939420306","0.2951289915","0.3369826645","","","","","","","","","","76","L","3","","","26","main_expt",""
"","bandit","107","351347","0.0-68.0-0.0","42939255","wem/bandit_party_1","A1ENLHC41G3T9E","either","3","302","","","","","","","0","0","1","","0.2387331149","0.2","0.4","0.8","0.6","0.4031068294","0.2387331149","0.3520126272","0.2531212506","","","","","","","","","","","","","","74","J","1","","","27","main_expt",""
"","bandit","108","352978","0.0-69.0-0.0","42939255","wem/bandit_party_1","A1ENLHC41G3T9E","either","3","98","","","","","","","0","0","1","0.3369287003","","0.2","0.4","0.8","0.6","","","","","0.4305883772","0.2183458617","0.3369287003","0.2170461037","","","","","","","","","","75","K","2","","","28","main_expt",""
"","bandit","109","354815","0.0-70.0-0.0","42939255","wem/bandit_party_1","A1ENLHC41G3T9E","either","3","306","","","","","","","0","1","0","","0.4383329838","0.2","0.4","0.8","0.6","0.4383329838","0.2151501268","0.3591799128","0.2346211465","","","","","","","","","","","","","","72","H","0","img/none_selected.jpg","","29","main_expt",""
"","bandit","110","356390","0.0-71.0-0.0","42939255","wem/bandit_party_1","A1ENLHC41G3T9E","either","3","34","","","","","","","0","0","1","","0.4233276099","0.2","0.4","0.8","0.6","0.4233276099","0.2267233056","0.3324285477","0.2450860663","","","","","","","","","","","","","","72","H","0","img/none_selected.jpg","","30","main_expt",""
"","bandit","111","358048","0.0-72.0-0.0","42939255","wem/bandit_party_1","A1ENLHC41G3T9E","either","3","118","","","","","","","0","1","0","","0.4016185005","0.2","0.4","0.8","0.6","0.4016185005","0.2663701676","0.327032362","0.2141169407","","","","","","","","","","","","","","72","H","0","img/none_selected.jpg","","31","main_expt",""
"","bandit","112","359585","0.0-73.0-0.0","42939255","wem/bandit_party_1","A1ENLHC41G3T9E","either","3","7","","","","","","","0","0","1","0.4134940178","","0.2","0.4","0.8","0.6","","","","","0.4134940178","0.275969473","0.3230905041","0.2347854155","","","","","","","","","","72","H","0","img/none_selected.jpg","","32","main_expt",""
"","bandit","113","361305","0.0-74.0-0.0","42939255","wem/bandit_party_1","A1ENLHC41G3T9E","either","3","188","","","","","","","0","1","0","","0.4331174495","0.2","0.4","0.8","0.6","0.4331174495","0.3365270118","0.2969008969","0.246596708","","","","","","","","","","","","","","72","H","0","img/none_selected.jpg","","33","main_expt",""
"","bandit","114","363244","0.0-75.0-0.0","42939255","wem/bandit_party_1","A1ENLHC41G3T9E","either","3","405","","","","","","","0","0","1","","0.2916301021","0.2","0.4","0.8","0.6","0.4454497031","0.2916301021","0.2536392951","0.1914370393","","","","","","","","","","","","","","74","J","1","","","34","main_expt",""
"","bandit","115","365617","0.0-76.0-0.0","42939255","wem/bandit_party_1","A1ENLHC41G3T9E","either","3","833","","","","","","","0","0","1","","0.4419706984","0.2","0.4","0.8","0.6","0.4419706984","0.3236538836","0.2336030597","0.1408207185","","","","","","","","","","","","","","72","H","0","img/none_selected.jpg","","35","main_expt",""
"","bandit","116","367290","0.0-77.0-0.0","42939255","wem/bandit_party_1","A1ENLHC41G3T9E","either","3","151","","","","","","","0","0","1","","0.4205940312","0.2","0.4","0.8","0.6","0.4205940312","0.3317439785","0.3110392291","0.09539735145","","","","","","","","","","","","","","72","H","0","img/none_selected.jpg","","36","main_expt",""
"","bandit","117","368819","0.0-78.0-0.0","42939255","wem/bandit_party_1","A1ENLHC41G3T9E","either","3","3","","","","","","","0","1","0","","0.4227305347","0.2","0.4","0.8","0.6","0.4227305347","0.3620900841","0.3354302382","0.08867332122","","","","","","","","","","","","","","72","H","0","img/none_selected.jpg","","37","main_expt",""
"","bandit","118","371272","0.0-79.0-0.0","42939255","wem/bandit_party_1","A1ENLHC41G3T9E","either","3","921","","","","","","","0","0","1","0.3904174821","","0.2","0.4","0.8","0.6","","","","","0.3904174821","0.3649119955","0.3359947902","0.0804097964","","","","","","","","","","72","H","0","img/none_selected.jpg","","38","main_expt",""
"","bandit","119","373132","0.0-80.0-0.0","42939255","wem/bandit_party_1","A1ENLHC41G3T9E","either","3","333","","","","","","","0","1","0","","0.3704092514","0.2","0.4","0.8","0.6","0.3704092514","0.3993258453","0.3719467902","0.1092906338","","","","","","","","","","","","","","72","H","0","img/none_selected.jpg","","39","main_expt",""
"","bandit","120","374976","0.0-81.0-0.0","42939255","wem/bandit_party_1","A1ENLHC41G3T9E","either","3","316","","","","","","","0","0","1","","0.3250394812","0.2","0.4","0.8","0.6","0.3250394812","0.43145226","0.37180955","0.08771014895","","","","","","","","","","","","","","72","H","0","img/none_selected.jpg","","40","main_expt",""
"","bandit","121","376557","0.0-82.0-0.0","42939255","wem/bandit_party_1","A1ENLHC41G3T9E","either","3","51","","","","","","","0","0","1","","0.3633775572","0.2","0.4","0.8","0.6","0.3633775572","0.3925837484","0.3972707938","0.1065106481","","","","","","","","","","","","","","72","H","0","img/none_selected.jpg","","41","main_expt",""
"","bandit","122","378223","0.0-83.0-0.0","42939255","wem/bandit_party_1","A1ENLHC41G3T9E","either","3","135","","","","","","","1","0","0","0.3708570881","","0.2","0.4","0.8","0.6","","","","","0.3708570881","0.4020613291","0.3981555674","0.0926848955","","","","","","","","","","72","H","0","img/none_selected.jpg","","42","main_expt",""
"","bandit","123","379963","0.0-84.0-0.0","42939255","wem/bandit_party_1","A1ENLHC41G3T9E","either","3","201","","","","","","","0","0","1","","0.3852030547","0.2","0.4","0.8","0.6","0.3852030547","0.4199094288","0.3698022864","0.09213729174","","","","","","","","","","","","","","72","H","0","img/none_selected.jpg","","43","main_expt",""
"","bandit","124","381565","0.0-85.0-0.0","42939255","wem/bandit_party_1","A1ENLHC41G3T9E","either","3","70","","","","","","","1","0","0","0.3653477133","","0.2","0.4","0.8","0.6","","","","","0.3653477133","0.4362917367","0.3278340923","0.0950319608","","","","","","","","","","72","H","0","img/none_selected.jpg","","44","main_expt",""
"","bandit","125","383148","0.0-86.0-0.0","42939255","wem/bandit_party_1","A1ENLHC41G3T9E","either","3","50","","","","","","","0","0","1","","0.3423722135","0.2","0.4","0.8","0.6","0.3423722135","0.4310393502","0.4004869948","0.07917944011","","","","","","","","","","","","","","72","H","0","img/none_selected.jpg","","45","main_expt",""
"","bandit","126","384687","0.0-87.0-0.0","42939255","wem/bandit_party_1","A1ENLHC41G3T9E","either","3","7","","","","","","","0","0","1","","0.2713785315","0.2","0.4","0.8","0.6","0.2713785315","0.4301719659","0.4389658195","0.08528552535","","","","","","","","","","","","","","72","H","0","img/none_selected.jpg","","46","main_expt",""
"","bandit","127","386225","0.0-88.0-0.0","42939255","wem/bandit_party_1","A1ENLHC41G3T9E","either","3","3","","","","","","","0","0","1","","0.2675382036","0.2","0.4","0.8","0.6","0.2675382036","0.4274268526","0.4294918489","0.08303267599","","","","","","","","","","","","","","72","H","0","img/none_selected.jpg","","47","main_expt",""
"","bandit","128","389065","0.0-89.0-0.0","42939255","wem/bandit_party_1","A1ENLHC41G3T9E","either","3","1302","","","","","","","0","0","1","","0.3006553151","0.2","0.4","0.8","0.6","0.3006553151","0.4559220927","0.3948346084","0.1183490009","","","","","","","","","","","","","","72","H","0","img/none_selected.jpg","","48","main_expt",""
"","bandit","129","391501","0.0-90.0-0.0","42939255","wem/bandit_party_1","A1ENLHC41G3T9E","either","3","906","","","","","","","0","1","0","","0.2865645246","0.2","0.4","0.8","0.6","0.2865645246","0.4362936898","0.4226663974","0.09831357925","","","","","","","","","","","","","","72","H","0","img/none_selected.jpg","","49","main_expt",""
"","bandit","130","393312","0.0-91.0-0.0","42939255","wem/bandit_party_1","A1ENLHC41G3T9E","either","3","279","","","","","","","0","0","1","","0.2842330123","0.2","0.4","0.8","0.6","0.2842330123","0.4001593617","0.3943232949","0.0896163698","","","","","","","","","","","","","","72","H","0","img/none_selected.jpg","","50","main_expt",""
"","bandit","131","394936","0.0-92.0-0.0","42939255","wem/bandit_party_1","A1ENLHC41G3T9E","either","3","94","","","","","","","1","0","0","0.2933637591","","0.2","0.4","0.8","0.6","","","","","0.2933637591","0.3737598101","0.3911898034","0.08239790895","","","","","","","","","","72","H","0","img/none_selected.jpg","","51","main_expt",""
"","bandit","132","397163","0.0-93.0-0.0","42939255","wem/bandit_party_1","A1ENLHC41G3T9E","either","3","699","","","","","","","0","0","1","","0.2802127762","0.2","0.4","0.8","0.6","0.2802127762","0.3490564905","0.3897106723","0.06509061927","","","","","","","","","","","","","","72","H","0","img/none_selected.jpg","","52","main_expt",""
"","bandit","133","399257","0.0-94.0-0.0","42939255","wem/bandit_party_1","A1ENLHC41G3T9E","either","3","566","","","","","","","0","0","1","","0.2567133084","0.2","0.4","0.8","0.6","0.2567133084","0.3606416198","0.3977919118","0.05503049918","","","","","","","","","","","","","","72","H","0","img/none_selected.jpg","","53","main_expt",""
"","bandit","134","401271","0.0-95.0-0.0","42939255","wem/bandit_party_1","A1ENLHC41G3T9E","either","3","485","","","","","","","0","0","1","","0.304436262","0.2","0.4","0.8","0.6","0.304436262","0.3920172378","0.3803623479","0.06606451817","","","","","","","","","","","","","","72","H","0","img/none_selected.jpg","","54","main_expt",""
"","bandit","135","403334","0.0-96.0-0.0","42939255","wem/bandit_party_1","A1ENLHC41G3T9E","either","3","519","","","","","","","0","0","1","","0.3050376594","0.2","0.4","0.8","0.6","0.3050376594","0.3841867886","0.3898030924","0.0812436444","","","","","","","","","","","","","","72","H","0","img/none_selected.jpg","","55","main_expt",""
"","bandit","136","405714","0.0-97.0-0.0","42939255","wem/bandit_party_1","A1ENLHC41G3T9E","either","3","852","","","","","","","0","1","0","","0.2874076515","0.2","0.4","0.8","0.6","0.2874076515","0.3752679739","0.4332266089","0.05752214818","","","","","","","","","","","","","","72","H","0","img/none_selected.jpg","","56","main_expt",""
"","bandit","137","407689","0.0-98.0-0.0","42939255","wem/bandit_party_1","A1ENLHC41G3T9E","either","3","442","","","","","","","0","1","0","","0.2633226407","0.2","0.4","0.8","0.6","0.2633226407","0.3595388075","0.4598680415","0.05957573693","","","","","","","","","","","","","","72","H","0","img/none_selected.jpg","","57","main_expt",""
"","bandit","138","409774","0.0-99.0-0.0","42939255","wem/bandit_party_1","A1ENLHC41G3T9E","either","3","561","","","","","","","0","0","1","","0.282557186","0.2","0.4","0.8","0.6","0.282557186","0.2926617498","0.4510058242","0.08347810371","","","","","","","","","","","","","","72","H","0","img/none_selected.jpg","","58","main_expt",""
"","bandit","139","412055","0.0-100.0-0.0","42939255","wem/bandit_party_1","A1ENLHC41G3T9E","either","3","751","","","","","","","0","0","1","","0.2675679041","0.2","0.4","0.8","0.6","0.2675679041","0.2854140482","0.4587464736","0.1166757522","","","","","","","","","","","","","","72","H","0","img/none_selected.jpg","","59","main_expt",""
"","bandit","140","414323","0.0-101.0-0.0","42939255","wem/bandit_party_1","A1ENLHC41G3T9E","either","3","742","","","","","","","1","0","0","0.2654645802","","0.2","0.4","0.8","0.6","","","","","0.2654645802","0.2767785787","0.4534111386","0.1223048521","","","","","","","","","","72","H","0","img/none_selected.jpg","","60","main_expt",""
"","bandit","141","416166","0.0-102.0-0.0","42939255","wem/bandit_party_1","A1ENLHC41G3T9E","either","3","313","","","","","","","1","0","0","0.2326588137","","0.2","0.4","0.8","0.6","","","","","0.2326588137","0.3110110239","0.4581751116","0.1341525672","","","","","","","","","","72","H","0","img/none_selected.jpg","","61","main_expt",""
"","bandit","142","418328","0.0-103.0-0.0","42939255","wem/bandit_party_1","A1ENLHC41G3T9E","either","3","633","","","","","","","0","1","0","","0.2430345153","0.2","0.4","0.8","0.6","0.2430345153","0.2739379344","0.4447189615","0.1748443247","","","","","","","","","","","","","","72","H","0","img/none_selected.jpg","","62","main_expt",""
"","bandit","143","420017","0.0-104.0-0.0","42939255","wem/bandit_party_1","A1ENLHC41G3T9E","either","3","164","","","","","","","0","0","1","","0.2682261916","0.2","0.4","0.8","0.6","0.2682261916","0.2518438402","0.4351057758","0.1872250423","","","","","","","","","","","","","","72","H","0","img/none_selected.jpg","","63","main_expt",""
"","bandit","144","421754","0.0-105.0-0.0","42939255","wem/bandit_party_1","A1ENLHC41G3T9E","either","3","209","","","","","","","0","0","1","","0.3136585585","0.2","0.4","0.8","0.6","0.3136585585","0.216118181","0.4559228662","0.1592276408","","","","","","","","","","","","","","72","H","0","img/none_selected.jpg","","64","main_expt",""
"","bandit","145","423399","0.0-106.0-0.0","42939255","wem/bandit_party_1","A1ENLHC41G3T9E","either","3","109","","","","","","","0","0","1","","0.3208042698","0.2","0.4","0.8","0.6","0.3208042698","0.1961712117","0.4526438492","0.1881419285","","","","","","","","","","","","","","72","H","0","img/none_selected.jpg","","65","main_expt",""
"","bandit","146","425265","0.0-107.0-0.0","42939255","wem/bandit_party_1","A1ENLHC41G3T9E","either","3","339","","","","","","","1","0","0","0.3550213758","","0.2","0.4","0.8","0.6","","","","","0.3550213758","0.1821057022","0.4604690516","0.2075830042","","","","","","","","","","72","H","0","img/none_selected.jpg","","66","main_expt",""
"","bandit","147","427386","0.0-108.0-0.0","42939255","wem/bandit_party_1","A1ENLHC41G3T9E","either","3","596","","","","","","","0","0","1","","0.2883445083","0.2","0.4","0.8","0.6","0.2883445083","0.2221692745","0.4479534522","0.210321401","","","","","","","","","","","","","","72","H","0","img/none_selected.jpg","","67","main_expt",""
"","bandit","148","429421","0.0-109.0-0.0","42939255","wem/bandit_party_1","A1ENLHC41G3T9E","either","3","503","","","","","","","0","1","0","","0.2492112051","0.2","0.4","0.8","0.6","0.2492112051","0.2385328342","0.4420076102","0.1740681144","","","","","","","","","","","","","","72","H","0","img/none_selected.jpg","","68","main_expt",""
"","bandit","149","431370","0.0-110.0-0.0","42939255","wem/bandit_party_1","A1ENLHC41G3T9E","either","3","419","","","","","","","0","0","1","","0.1725364023","0.2","0.4","0.8","0.6","0.1725364023","0.2693988132","0.3840886122","0.1495678232","","","","","","","","","","","","","","72","H","0","img/none_selected.jpg","","69","main_expt",""
"","bandit","150","433444","0.0-111.0-0.0","42939255","wem/bandit_party_1","A1ENLHC41G3T9E","either","3","540","","","","","","","0","0","1","","0.2081322216","0.2","0.4","0.8","0.6","0.2081322216","0.2633889128","0.3764426572","0.1594524764","","","","","","","","","","","","","","72","H","0","img/none_selected.jpg","","70","main_expt",""
"","bandit","151","435039","0.0-112.0-0.0","42939255","wem/bandit_party_1","A1ENLHC41G3T9E","either","3","67","","","","","","","0","0","1","","0.2222096595","0.2","0.4","0.8","0.6","0.2222096595","0.2881785301","0.3925575972","0.1308665948","","","","","","","","","","","","","","72","H","0","img/none_selected.jpg","","71","main_expt",""
"","bandit","152","436936","0.0-113.0-0.0","42939255","wem/bandit_party_1","A1ENLHC41G3T9E","either","3","363","","","","","","","0","0","1","","0.2276413934","0.2","0.4","0.8","0.6","0.2276413934","0.3496752211","0.4055717031","0.1413665491","","","","","","","","","","","","","","72","H","0","img/none_selected.jpg","","72","main_expt",""
"","bandit","153","439124","0.0-114.0-0.0","42939255","wem/bandit_party_1","A1ENLHC41G3T9E","either","3","658","","","","","","","0","0","1","0.3662649551","","0.2","0.4","0.8","0.6","","","","","0.202726327","0.3662649551","0.4313753627","0.1562096843","","","","","","","","","","74","J","1","","","73","main_expt",""
"","bandit","154","441417","0.0-115.0-0.0","42939255","wem/bandit_party_1","A1ENLHC41G3T9E","either","3","758","","","","","","","1","0","0","0.4294283137","","0.2","0.4","0.8","0.6","","","","","0.2465356434","0.3318597218","0.4294283137","0.1601549975","","","","","","","","","","75","K","2","","","74","main_expt",""
"","bandit","155","443144","0.0-116.0-0.0","42939255","wem/bandit_party_1","A1ENLHC41G3T9E","either","3","192","","","","","","","1","0","0","0.4114775526","","0.2","0.4","0.8","0.6","","","","","0.2780880013","0.3129946244","0.4114775526","0.1962365409","","","","","","","","","","75","K","2","","","75","main_expt",""
"","bandit","156","444916","0.0-117.0-0.0","42939255","wem/bandit_party_1","A1ENLHC41G3T9E","either","3","240","","","","","","","0","0","1","0.4038916894","","0.2","0.4","0.8","0.6","","","","","0.230570622","0.3299880354","0.4038916894","0.2315068675","","","","","","","","","","75","K","2","","","76","main_expt",""
"","bandit","157","446777","0.0-118.0-0.0","42939255","wem/bandit_party_1","A1ENLHC41G3T9E","either","3","333","","","","","","","1","0","0","0.4028298088","","0.2","0.4","0.8","0.6","","","","","0.1747897532","0.2704336052","0.4028298088","0.1749603823","","","","","","","","","","75","K","2","","","77","main_expt",""
"","bandit","158","448865","0.0-119.0-0.0","42939255","wem/bandit_party_1","A1ENLHC41G3T9E","either","3","556","","","","","","","0","0","1","0.4004321452","","0.2","0.4","0.8","0.6","","","","","0.2009150394","0.2489008917","0.4004321452","0.2091975686","","","","","","","","","","75","K","2","","","78","main_expt",""
"","bandit","159","451767","0.0-120.0-0.0","42939255","wem/bandit_party_1","A1ENLHC41G3T9E","either","3","1360","","","","","","","0","0","1","0.3909827091","","0.2","0.4","0.8","0.6","","","","","0.2090883318","0.2182462247","0.3909827091","0.2699334682","","","","","","","","","","75","K","2","","","79","main_expt",""
"","bandit","160","453821","0.0-121.0-0.0","42939255","wem/bandit_party_1","A1ENLHC41G3T9E","either","3","521","","","","","","","1","0","0","0.4289339141","","0.2","0.4","0.8","0.6","","","","","0.215522018","0.1591694045","0.4289339141","0.2712134299","","","","","","","","","","75","K","2","","","80","main_expt",""
"","bandit","161","455828","0.0-122.0-0.0","42939255","wem/bandit_party_1","A1ENLHC41G3T9E","either","3","475","","","","","","","0","0","1","0.4256341571","","0.2","0.4","0.8","0.6","","","","","0.2655955182","0.1661146317","0.4256341571","0.2563236188","","","","","","","","","","75","K","2","","","81","main_expt",""
"","bandit","162","457692","0.0-123.0-0.0","42939255","wem/bandit_party_1","A1ENLHC41G3T9E","either","3","329","","","","","","","1","0","0","0.4153375647","","0.2","0.4","0.8","0.6","","","","","0.2642342948","0.2249160828","0.4153375647","0.2474856626","","","","","","","","","","75","K","2","","","82","main_expt",""
"","bandit","163","459573","0.0-124.0-0.0","42939255","wem/bandit_party_1","A1ENLHC41G3T9E","either","3","342","","","","","","","1","0","0","0.4239102097","","0.2","0.4","0.8","0.6","","","","","0.2615040017","0.2194800234","0.4239102097","0.2338037125","","","","","","","","","","75","K","2","","","83","main_expt",""
"","bandit","164","461192","0.0-125.0-0.0","42939255","wem/bandit_party_1","A1ENLHC41G3T9E","either","3","86","","","","","","","0","0","1","0.4021041833","","0.2","0.4","0.8","0.6","","","","","0.3136368113","0.2020024956","0.4021041833","0.2929655049","","","","","","","","","","75","K","2","","","84","main_expt",""
"","bandit","165","463059","0.0-126.0-0.0","42939255","wem/bandit_party_1","A1ENLHC41G3T9E","either","3","337","","","","","","","0","0","1","","0.4322374594","0.2","0.4","0.8","0.6","0.2433538552","0.1639230135","0.4322374594","0.2755572306","","","","","","","","","","","","","","75","K","2","","","85","main_expt",""
"","bandit","166","465198","0.0-127.0-0.0","42939255","wem/bandit_party_1","A1ENLHC41G3T9E","either","3","601","","","","","","","0","0","1","","0.4247618508","0.2","0.4","0.8","0.6","0.2583740773","0.1423092638","0.4247618508","0.2706615249","","","","","","","","","","","","","","75","K","2","","","86","main_expt",""
"","bandit","167","467202","0.0-128.0-0.0","42939255","wem/bandit_party_1","A1ENLHC41G3T9E","either","3","472","","","","","","","0","0","1","0.4130492334","","0.2","0.4","0.8","0.6","","","","","0.2656778135","0.1623313408","0.4130492334","0.3259805539","","","","","","","","","","75","K","2","","","87","main_expt",""
"","bandit","168","469470","0.0-129.0-0.0","42939255","wem/bandit_party_1","A1ENLHC41G3T9E","either","3","738","","","","","","","1","0","0","0.3883747858","","0.2","0.4","0.8","0.6","","","","","0.2565525481","0.1459946163","0.3883747858","0.3471137027","","","","","","","","","","75","K","2","","","88","main_expt",""
"","bandit","169","471294","0.0-130.0-0.0","42939255","wem/bandit_party_1","A1ENLHC41G3T9E","either","3","296","","","","","","","1","0","0","0.3950807547","","0.2","0.4","0.8","0.6","","","","","0.2471999074","0.1684807643","0.3950807547","0.3715311126","","","","","","","","","","75","K","2","","","89","main_expt",""
"","bandit","170","473669","0.0-131.0-0.0","42939255","wem/bandit_party_1","A1ENLHC41G3T9E","either","3","833","","","","","","","0","0","1","0.420982679","","0.2","0.4","0.8","0.6","","","","","0.2204199549","0.1937692241","0.420982679","0.3571728809","","","","","","","","","","75","K","2","","","90","main_expt",""
"","bandit","171","475498","0.0-132.0-0.0","42939255","wem/bandit_party_1","A1ENLHC41G3T9E","either","3","299","","","","","","","0","0","1","","0.4012606491","0.2","0.4","0.8","0.6","0.2013548925","0.1670397906","0.4012606491","0.3348642023","","","","","","","","","","","","","","75","K","2","","","91","main_expt",""
"","bandit","172","477651","0.0-133.0-0.0","42939255","wem/bandit_party_1","A1ENLHC41G3T9E","either","3","624","","","","","","","0","0","1","","0.3950870333","0.2","0.4","0.8","0.6","0.174921714","0.1936095216","0.3950870333","0.3551195155","","","","","","","","","","","","","","75","K","2","","","92","main_expt",""
"","bandit","173","480276","0.0-134.0-0.0","42939255","wem/bandit_party_1","A1ENLHC41G3T9E","either","3","1093","","","","","","","0","0","1","0.3797372222","","0.2","0.4","0.8","0.6","","","","","0.1972058505","0.2399824117","0.3797372222","0.3494458231","","","","","","","","","","75","K","2","","","93","main_expt",""
"","bandit","174","482444","0.0-135.0-0.0","42939255","wem/bandit_party_1","A1ENLHC41G3T9E","either","3","647","","","","","","","0","0","1","0.3346339076","","0.2","0.4","0.8","0.6","","","","","0.2144007407","0.242536602","0.3346339076","0.3759818745","","","","","","","","","","75","K","2","","","94","main_expt",""
"","bandit","175","485374","0.0-136.0-0.0","42939255","wem/bandit_party_1","A1ENLHC41G3T9E","either","3","1398","","","","","","","0","0","1","0.3433005441","","0.2","0.4","0.8","0.6","","","","","0.2025691914","0.3081296623","0.3433005441","0.3467088588","","","","","","","","","","75","K","2","","","95","main_expt",""
"","bandit","176","487828","0.0-137.0-0.0","42939255","wem/bandit_party_1","A1ENLHC41G3T9E","either","3","927","","","","","","","0","0","1","0.2900415689","","0.2","0.4","0.8","0.6","","","","","0.1750118246","0.371766452","0.2900415689","0.3520186383","","","","","","","","","","75","K","2","","","96","main_expt",""
"","bandit","177","489438","0.0-138.0-0.0","42939255","wem/bandit_party_1","A1ENLHC41G3T9E","either","3","76","","","","","","","0","0","1","0.342216001","","0.2","0.4","0.8","0.6","","","","","0.2433812568","0.3737721809","0.3136050561","0.342216001","","","","","","","","","","76","L","3","","","97","main_expt",""
"","bandit","178","491299","0.0-139.0-0.0","42939255","wem/bandit_party_1","A1ENLHC41G3T9E","either","3","333","","","","","","","0","0","1","0.3662625892","","0.2","0.4","0.8","0.6","","","","","0.1834100281","0.3662625892","0.3236610102","0.3775958225","","","","","","","","","","74","J","1","","","98","main_expt",""
"","bandit","179","493637","0.0-140.0-0.0","42939255","wem/bandit_party_1","A1ENLHC41G3T9E","either","3","809","","","","","","","0","0","1","0.3116662608","","0.2","0.4","0.8","0.6","","","","","0.146161558","0.3912879072","0.3116662608","0.3490624926","","","","","","","","","","75","K","2","","","99","main_expt",""
"","bandit","180","495727","0.0-141.0-0.0","42939255","wem/bandit_party_1","A1ENLHC41G3T9E","either","3","560","","","","","","","0","0","1","","0.1186266926","0.2","0.4","0.8","0.6","0.1186266926","0.3916888764","0.3806420769","0.3418910903","","","","","","","","","","","","","","72","H","0","img/none_selected.jpg","","100","main_expt",""
"","bandit","181","497348","0.0-142.0-0.0","42939255","wem/bandit_party_1","A1ENLHC41G3T9E","either","3","88","","","","","","","1","0","0","0.1467879228","","0.2","0.4","0.8","0.6","","","","","0.1467879228","0.3803758031","0.3825052475","0.3544055354","","","","","","","","","","72","H","0","img/none_selected.jpg","","101","main_expt",""
"","bandit","182","499269","0.0-143.0-0.0","42939255","wem/bandit_party_1","A1ENLHC41G3T9E","either","3","376","","","","","","","0","0","1","","0.1336514036","0.2","0.4","0.8","0.6","0.1336514036","0.3685266224","0.3799327693","0.3580864163","","","","","","","","","","","","","","72","H","0","img/none_selected.jpg","","102","main_expt",""
"","bandit","183","501438","0.0-144.0-0.0","42939255","wem/bandit_party_1","A1ENLHC41G3T9E","either","3","645","","","","","","","0","0","1","","0.1325092095","0.2","0.4","0.8","0.6","0.1325092095","0.3754978655","0.3502018886","0.336528594","","","","","","","","","","","","","","72","H","0","img/none_selected.jpg","","103","main_expt",""
"","bandit","184","503922","0.0-145.0-0.0","42939255","wem/bandit_party_1","A1ENLHC41G3T9E","either","3","957","","","","","","","1","0","0","0.4033056484","","0.2","0.4","0.8","0.6","","","","","0.1162839287","0.4033056484","0.3443431466","0.3190078166","","","","","","","","","","74","J","1","","","104","main_expt",""
"","bandit","185","506828","0.0-146.0-0.0","42939255","wem/bandit_party_1","A1ENLHC41G3T9E","either","3","1370","","","","","","","0","0","1","","0.3617388181","0.2","0.4","0.8","0.6","0.115620258","0.3617388181","0.3551378046","0.3100940773","","","","","","","","","","","","","","74","J","1","","","105","main_expt",""
"","bandit","186","508524","0.0-147.0-0.0","42939255","wem/bandit_party_1","A1ENLHC41G3T9E","either","3","157","","","","","","","0","0","1","0.3656875331","","0.2","0.4","0.8","0.6","","","","","0.1102569517","0.3656875331","0.3177956882","0.2964842485","","","","","","","","","","74","J","1","","","106","main_expt",""
"","bandit","187","511443","0.0-148.0-0.0","42939255","wem/bandit_party_1","A1ENLHC41G3T9E","either","3","1388","","","","","","","0","0","1","0.3478183852","","0.2","0.4","0.8","0.6","","","","","0.110599846","0.3478183852","0.3463124521","0.3224579283","","","","","","","","","","74","J","1","","","107","main_expt",""
"","bandit","188","515279","0.0-149.0-0.0","42939255","wem/bandit_party_1","A1ENLHC41G3T9E","either","3","2302","","","","","","","0","1","0","","0.3715517583","0.2","0.4","0.8","0.6","0.1647947233","0.3715517583","0.330790185","0.3365568187","","","","","","","","","","","","","","74","J","1","","","108","main_expt",""
"","bandit","189","518101","0.0-150.0-0.0","42939255","wem/bandit_party_1","A1ENLHC41G3T9E","either","3","1282","","","","","","","0","0","1","","0.3713851569","0.2","0.4","0.8","0.6","0.146095753","0.3713851569","0.3259779601","0.3200824859","","","","","","","","","","","","","","74","J","1","","","109","main_expt",""
"","bandit","190","520113","0.0-151.0-0.0","42939255","wem/bandit_party_1","A1ENLHC41G3T9E","either","3","477","","","","","","","0","0","1","","0.1691954855","0.2","0.4","0.8","0.6","0.1691954855","0.3401672382","0.3169053314","0.3179471713","","","","","","","","","","","","","","72","H","0","img/none_selected.jpg","","110","main_expt",""
"","bandit","191","521948","0.0-152.0-0.0","42939255","wem/bandit_party_1","A1ENLHC41G3T9E","either","3","304","","","","","","","0","0","1","0.342138516","","0.2","0.4","0.8","0.6","","","","","0.1690298198","0.3242328008","0.342138516","0.3168158386","","","","","","","","","","75","K","2","","","111","main_expt",""
"","bandit","192","523774","0.0-153.0-0.0","42939255","wem/bandit_party_1","A1ENLHC41G3T9E","either","3","291","","","","","","","0","0","1","0.3551606626","","0.2","0.4","0.8","0.6","","","","","0.2196992501","0.2991119965","0.3597886873","0.3551606626","","","","","","","","","","76","L","3","","","112","main_expt",""
"","bandit","193","526097","0.0-154.0-0.0","42939255","wem/bandit_party_1","A1ENLHC41G3T9E","either","3","798","","","","","","","0","1","0","","0.3364281798","0.2","0.4","0.8","0.6","0.2723467559","0.3364281798","0.3580549124","0.3615444015","","","","","","","","","","","","","","74","J","1","","","113","main_expt",""
"","bandit","194","528205","0.0-155.0-0.0","42939255","wem/bandit_party_1","A1ENLHC41G3T9E","either","3","575","","","","","","","0","0","1","0.3495122724","","0.2","0.4","0.8","0.6","","","","","0.2470985199","0.3495122724","0.3556181037","0.4043222556","","","","","","","","","","74","J","1","","","114","main_expt",""
"","bandit","195","530269","0.0-156.0-0.0","42939255","wem/bandit_party_1","A1ENLHC41G3T9E","either","3","523","","","","","","","0","0","1","","0.324938203","0.2","0.4","0.8","0.6","0.2482590513","0.324938203","0.3489042174","0.4179696435","","","","","","","","","","","","","","74","J","1","","","115","main_expt",""
"","bandit","196","532538","0.0-157.0-0.0","42939255","wem/bandit_party_1","A1ENLHC41G3T9E","either","3","741","","","","","","","0","0","1","","0.3227512736","0.2","0.4","0.8","0.6","0.1992012358","0.3227512736","0.3466245191","0.4324393975","","","","","","","","","","","","","","74","J","1","","","116","main_expt",""
"","bandit","197","534378","0.0-158.0-0.0","42939255","wem/bandit_party_1","A1ENLHC41G3T9E","either","3","303","","","","","","","0","1","0","","0.216355905","0.2","0.4","0.8","0.6","0.216355905","0.2585209305","0.3581754781","0.4290779421","","","","","","","","","","","","","","72","H","0","img/none_selected.jpg","","117","main_expt",""
"","bandit","198","537144","0.0-159.0-0.0","42939255","wem/bandit_party_1","A1ENLHC41G3T9E","either","3","1234","","","","","","","0","0","1","","0.1715453935","0.2","0.4","0.8","0.6","0.1715453935","0.2817260076","0.283939031","0.4459264202","","","","","","","","","","","","","","72","H","0","img/none_selected.jpg","","118","main_expt",""
"","bandit","199","542216","0.0-160.0-0.0","42939255","wem/bandit_party_1","A1ENLHC41G3T9E","either","3","3532","","","","","","","0","0","1","","0.1843456939","0.2","0.4","0.8","0.6","0.1843456939","0.328214026","0.2992634423","0.436995295","","","","","","","","","","","","","","72","H","0","img/none_selected.jpg","","119","main_expt",""
"","bandit","200","544621","0.0-161.0-0.0","42939255","wem/bandit_party_1","A1ENLHC41G3T9E","either","3","857","","","","","","","0","0","1","","0.1848061615","0.2","0.4","0.8","0.6","0.1848061615","0.3355603121","0.1878150733","0.4151314625","","","","","","","","","","","","","","72","H","0","img/none_selected.jpg","","120","main_expt",""
"","bandit","201","546189","0.0-162.0-0.0","42939255","wem/bandit_party_1","A1ENLHC41G3T9E","either","3","34","","","","","","","0","0","1","","0.3829587724","0.2","0.4","0.8","0.6","0.1679578636","0.3829587724","0.1447458933","0.4384064527","","","","","","","","","","","","","","74","J","1","","","121","main_expt",""
"","bandit","202","547728","0.0-163.0-0.0","42939255","wem/bandit_party_1","A1ENLHC41G3T9E","either","3","2","","","","","","","0","0","1","0.3995678287","","0.2","0.4","0.8","0.6","","","","","0.197295971","0.3995678287","0.1176060398","0.4417589501","","","","","","","","","","74","J","1","","","122","main_expt",""
"","bandit","203","549296","0.0-164.0-0.0","42939255","wem/bandit_party_1","A1ENLHC41G3T9E","either","3","36","","","","","","","0","0","1","","0.1097677055","0.2","0.4","0.8","0.6","0.2184653352","0.3656739583","0.1097677055","0.4017154396","","","","","","","","","","","","","","75","K","2","","","123","main_expt",""
"","bandit","204","551185","0.0-165.0-0.0","42939255","wem/bandit_party_1","A1ENLHC41G3T9E","either","3","349","","","","","","","0","1","0","","0.3619070526","0.2","0.4","0.8","0.6","0.2147868977","0.3862549257","0.08048168986","0.3619070526","","","","","","","","","","","","","","76","L","3","","","124","main_expt",""
"","bandit","205","552851","0.0-166.0-0.0","42939255","wem/bandit_party_1","A1ENLHC41G3T9E","either","3","126","","","","","","","0","0","1","","0.3567490645","0.2","0.4","0.8","0.6","0.1667936559","0.3593796239","0.07842900555","0.3567490645","","","","","","","","","","","","","","76","L","3","","","125","main_expt",""
"","bandit","206","554697","0.0-167.0-0.0","42939255","wem/bandit_party_1","A1ENLHC41G3T9E","either","3","309","","","","","","","0","0","1","0.3558473019","","0.2","0.4","0.8","0.6","","","","","0.1453295256","0.3413194209","0.08318363027","0.3558473019","","","","","","","","","","76","L","3","","","126","main_expt",""
"","bandit","207","556762","0.0-168.0-0.0","42939255","wem/bandit_party_1","A1ENLHC41G3T9E","either","3","539","","","","","","","0","0","1","","0.3543069734","0.2","0.4","0.8","0.6","0.1635755653","0.3369929262","0.06812438963","0.3543069734","","","","","","","","","","","","","","76","L","3","","","127","main_expt",""
"","bandit","208","558859","0.0-169.0-0.0","42939255","wem/bandit_party_1","A1ENLHC41G3T9E","either","3","561","","","","","","","0","0","1","","0.1872639566","0.2","0.4","0.8","0.6","0.1872639566","0.2922989636","0.08303766286","0.3328374851","","","","","","","","","","","","","","72","H","0","img/none_selected.jpg","","128","main_expt",""
"","bandit","209","560679","0.0-170.0-0.0","42939255","wem/bandit_party_1","A1ENLHC41G3T9E","either","3","292","","","","","","","0","0","1","0.3095146075","","0.2","0.4","0.8","0.6","","","","","0.2032718864","0.3095146075","0.09047360051","0.3238683282","","","","","","","","","","74","J","1","","","129","main_expt",""
"","bandit","210","562282","0.0-171.0-0.0","42939255","wem/bandit_party_1","A1ENLHC41G3T9E","either","3","63","","","","","","","0","0","1","0.131542256","","0.2","0.4","0.8","0.6","","","","","0.2025864764","0.3068425872","0.131542256","0.2750329062","","","","","","","","","","75","K","2","","","130","main_expt",""
"","bandit","211","564555","0.0-172.0-0.0","42939255","wem/bandit_party_1","A1ENLHC41G3T9E","either","3","741","","","","","","","0","0","1","0.2751886228","","0.2","0.4","0.8","0.6","","","","","0.2158584071","0.3112504131","0.1492019489","0.2751886228","","","","","","","","","","76","L","3","","","131","main_expt",""
"","bandit","212","566770","0.0-173.0-0.0","42939255","wem/bandit_party_1","A1ENLHC41G3T9E","either","3","683","","","","","","","0","0","1","","0.2105840197","0.2","0.4","0.8","0.6","0.2105840197","0.3595653039","0.1571188116","0.2729729886","","","","","","","","","","","","","","72","H","0","img/none_selected.jpg","","132","main_expt",""
"","bandit","213","568506","0.0-174.0-0.0","42939255","wem/bandit_party_1","A1ENLHC41G3T9E","either","3","198","","","","","","","0","0","1","0.2328486735","","0.2","0.4","0.8","0.6","","","","","0.2328486735","0.3873527377","0.2021073832","0.3248088544","","","","","","","","","","72","H","0","img/none_selected.jpg","","133","main_expt",""
"","bandit","214","571042","0.0-175.0-0.0","42939255","wem/bandit_party_1","A1ENLHC41G3T9E","either","3","995","","","","","","","0","1","0","","0.3973884711","0.2","0.4","0.8","0.6","0.2589092944","0.3973884711","0.2693148074","0.3596446835","","","","","","","","","","","","","","74","J","1","","","134","main_expt",""
"","bandit","215","574027","0.0-176.0-0.0","42939255","wem/bandit_party_1","A1ENLHC41G3T9E","either","3","1457","","","","","","","0","0","1","","0.4080523157","0.2","0.4","0.8","0.6","0.2637326353","0.4080523157","0.2625780805","0.318377279","","","","","","","","","","","","","","74","J","1","","","135","main_expt",""
"","bandit","216","575671","0.0-177.0-0.0","42939255","wem/bandit_party_1","A1ENLHC41G3T9E","either","3","103","","","","","","","1","0","0","0.2981707722","","0.2","0.4","0.8","0.6","","","","","0.2718680576","0.4176503084","0.2981707722","0.3160887017","","","","","","","","","","75","K","2","","","136","main_expt",""
"","bandit","217","578378","0.0-178.0-0.0","42939255","wem/bandit_party_1","A1ENLHC41G3T9E","either","3","1174","","","","","","","0","0","1","0.2883225013","","0.2","0.4","0.8","0.6","","","","","0.2919957672","0.3859803947","0.3148158286","0.2883225013","","","","","","","","","","76","L","3","","","137","main_expt",""
"","bandit","218","581205","0.0-179.0-0.0","42939255","wem/bandit_party_1","A1ENLHC41G3T9E","either","3","1288","","","","","","","0","1","0","","0.3111523267","0.2","0.4","0.8","0.6","0.3193993407","0.358492916","0.3111523267","0.3009152141","","","","","","","","","","","","","","75","K","2","","","138","main_expt",""
"","bandit","219","582735","0.0-180.0-0.0","42939255","wem/bandit_party_1","A1ENLHC41G3T9E","either","3","2","","","","","","","1","0","0","0.3034593298","","0.2","0.4","0.8","0.6","","","","","0.3404434035","0.3608756281","0.3034593298","0.293720077","","","","","","","","","","75","K","2","","","139","main_expt",""
"","bandit","220","584435","0.0-181.0-0.0","42939255","wem/bandit_party_1","A1ENLHC41G3T9E","either","3","162","","","","","","","0","0","1","0.2507495005","","0.2","0.4","0.8","0.6","","","","","0.3278052243","0.3421836092","0.2507495005","0.286059761","","","","","","","","","","75","K","2","","","140","main_expt",""
"","bandit","221","586218","0.0-182.0-0.0","42939255","wem/bandit_party_1","A1ENLHC41G3T9E","either","3","248","","","","","","","1","0","0","0.3737340371","","0.2","0.4","0.8","0.6","","","","","0.3038906839","0.3737340371","0.2220694513","0.2931724706","","","","","","","","","","74","J","1","","","141","main_expt",""
"","bandit","222","587843","0.0-183.0-0.0","42939255","wem/bandit_party_1","A1ENLHC41G3T9E","either","3","93","","","","","","","0","1","0","","0.3461121542","0.2","0.4","0.8","0.6","0.2924195757","0.3461121542","0.2119249064","0.2182180164","","","","","","","","","","","","","","74","J","1","","","142","main_expt",""
"","bandit","223","589664","0.0-184.0-0.0","42939255","wem/bandit_party_1","A1ENLHC41G3T9E","either","3","286","","","","","","","0","1","0","","0.3305931074","0.2","0.4","0.8","0.6","0.2816149275","0.3305931074","0.2665135591","0.2015475508","","","","","","","","","","","","","","74","J","1","","","143","main_expt",""
"","bandit","224","591791","0.0-185.0-0.0","42939255","wem/bandit_party_1","A1ENLHC41G3T9E","either","3","595","","","","","","","0","0","1","","0.3561039987","0.2","0.4","0.8","0.6","0.2355525614","0.3561039987","0.2854155153","0.2074070562","","","","","","","","","","","","","","74","J","1","","","144","main_expt",""
"","bandit","225","593479","0.0-186.0-0.0","42939255","wem/bandit_party_1","A1ENLHC41G3T9E","either","3","149","","","","","","","0","0","1","","0.2185662272","0.2","0.4","0.8","0.6","0.2185662272","0.3648023512","0.2521048148","0.1415368311","","","","","","","","","","","","","","72","H","0","img/none_selected.jpg","","145","main_expt",""
"","bandit","226","597169","0.0-187.0-0.0","42939255","wem/bandit_party_1","A1ENLHC41G3T9E","either","3","2154","","","","","","","1","0","0","0.1549520657","","0.2","0.4","0.8","0.6","","","","","0.2209315791","0.3450315","0.2321266643","0.1549520657","","","","","","","","","","76","L","3","","","146","main_expt",""
"","bandit","227","598741","0.0-188.0-0.0","42939255","wem/bandit_party_1","A1ENLHC41G3T9E","either","3","45","","","","","","","0","0","1","0.1469310363","","0.2","0.4","0.8","0.6","","","","","0.2889766311","0.2720321141","0.3159383216","0.1469310363","","","","","","","","","","76","L","3","","","147","main_expt",""
"","bandit","228","600388","0.0-189.0-0.0","42939255","wem/bandit_party_1","A1ENLHC41G3T9E","either","3","113","","","","","","","0","0","1","","0.1332828417","0.2","0.4","0.8","0.6","0.2859466156","0.2598972664","0.2673485129","0.1332828417","","","","","","","","","","","","","","76","L","3","","","148","main_expt",""
"","bandit","229","602259","0.0-190.0-0.0","42939255","wem/bandit_party_1","A1ENLHC41G3T9E","either","3","337","","","","","","","1","0","0","0.3348600541","","0.2","0.4","0.8","0.6","","","","","0.2588478233","0.2343157719","0.3348600541","0.1102010463","","","","","","","","","","75","K","2","","","149","main_expt",""
"","bandit","230","603919","0.0-191.0-0.0","42939255","wem/bandit_party_1","A1ENLHC41G3T9E","either","3","125","","","","","","","1","0","0","0.3659656834","","0.2","0.4","0.8","0.6","","","","","0.2224653457","0.2451363599","0.3659656834","0.1356103494","","","","","","","","","","75","K","2","","","150","main_expt",""
"","bandit","231","606180","0.0-192.0-0.0","42939255","wem/bandit_party_1","A1ENLHC41G3T9E","either","3","733","","","","","","","1","0","0","0.36397653","","0.2","0.4","0.8","0.6","","","","","0.2387237716","0.2053737132","0.36397653","0.1621229287","","","","","","","","","","75","K","2","","","151","main_expt",""
"","bandit","232","607781","0.0-193.0-0.0","42939255","wem/bandit_party_1","A1ENLHC41G3T9E","either","3","68","","","","","","","0","0","1","0.2396242378","","0.2","0.4","0.8","0.6","","","","","0.2519133504","0.2396242378","0.3710672623","0.1412745606","","","","","","","","","","74","J","1","","","152","main_expt",""
"","bandit","233","609612","0.0-194.0-0.0","42939255","wem/bandit_party_1","A1ENLHC41G3T9E","either","3","291","","","","","","","0","0","1","0.3078499427","","0.2","0.4","0.8","0.6","","","","","0.3078499427","0.2923277395","0.3828607765","0.1707580034","","","","","","","","","","72","H","0","img/none_selected.jpg","","153","main_expt",""
"","bandit","234","611561","0.0-195.0-0.0","42939255","wem/bandit_party_1","A1ENLHC41G3T9E","either","3","406","","","","","","","0","0","1","","0.3526468527","0.2","0.4","0.8","0.6","0.3283820497","0.3166515581","0.3526468527","0.1717455462","","","","","","","","","","","","","","75","K","2","","","154","main_expt",""
"","bandit","235","613197","0.0-196.0-0.0","42939255","wem/bandit_party_1","A1ENLHC41G3T9E","either","3","106","","","","","","","1","0","0","0.3194616596","","0.2","0.4","0.8","0.6","","","","","0.3303057687","0.3194616596","0.3865981945","0.1785539081","","","","","","","","","","74","J","1","","","155","main_expt",""
"","bandit","236","614887","0.0-197.0-0.0","42939255","wem/bandit_party_1","A1ENLHC41G3T9E","either","3","157","","","","","","","0","0","1","0.3767011333","","0.2","0.4","0.8","0.6","","","","","0.3178912443","0.3767011333","0.4328422877","0.2175815231","","","","","","","","","","74","J","1","","","156","main_expt",""
"","bandit","237","617193","0.0-198.0-0.0","42939255","wem/bandit_party_1","A1ENLHC41G3T9E","either","3","771","","","","","","","0","0","1","0.216674397","","0.2","0.4","0.8","0.6","","","","","0.3236874272","0.3853144204","0.4224906378","0.216674397","","","","","","","","","","76","L","3","","","157","main_expt",""
"","bandit","238","619217","0.0-199.0-0.0","42939255","wem/bandit_party_1","A1ENLHC41G3T9E","either","3","491","","","","","","","1","0","0","0.4428847078","","0.2","0.4","0.8","0.6","","","","","0.3731337511","0.3519128793","0.4428847078","0.2184316938","","","","","","","","","","75","K","2","","","158","main_expt",""
"","bandit","239","620790","0.0-200.0-0.0","42939255","wem/bandit_party_1","A1ENLHC41G3T9E","either","3","40","","","","","","","1","0","0","0.4498083842","","0.2","0.4","0.8","0.6","","","","","0.3758107074","0.3255157266","0.4498083842","0.2603966468","","","","","","","","","","75","K","2","","","159","main_expt",""
"","bandit","240","622738","0.0-201.0-0.0","42939255","wem/bandit_party_1","A1ENLHC41G3T9E","either","3","413","","","","","","","0","0","1","","0.4319550234","0.2","0.4","0.8","0.6","0.3494215766","0.379238532","0.4319550234","0.2242017374","","","","","","","","","","","","","","75","K","2","","","160","main_expt",""
"","bandit","241","624402","0.0-202.0-0.0","42939255","wem/bandit_party_1","A1ENLHC41G3T9E","either","3","128","","","","","","","0","1","0","","0.3776335756","0.2","0.4","0.8","0.6","0.3327111917","0.3776335756","0.4417514389","0.2014027125","","","","","","","","","","","","","","74","J","1","","","161","main_expt",""
"","bandit","242","626077","0.0-203.0-0.0","42939255","wem/bandit_party_1","A1ENLHC41G3T9E","either","3","145","","","","","","","0","0","1","","0.2955751891","0.2","0.4","0.8","0.6","0.3171011618","0.2955751891","0.4081293495","0.2038621466","","","","","","","","","","","","","","74","J","1","","","162","main_expt",""
"","bandit","243","627942","0.0-204.0-0.0","42939255","wem/bandit_party_1","A1ENLHC41G3T9E","either","3","325","","","","","","","0","0","1","","0.364183239","0.2","0.4","0.8","0.6","0.364183239","0.30851492","0.4265776113","0.1238136799","","","","","","","","","","","","","","72","H","0","img/none_selected.jpg","","163","main_expt",""
"","bandit","244","630352","0.0-205.0-0.0","42939255","wem/bandit_party_1","A1ENLHC41G3T9E","either","3","876","","","","","","","0","0","1","0.3074756362","","0.2","0.4","0.8","0.6","","","","","0.3917374524","0.3074756362","0.427472809","0.1104941302","","","","","","","","","","74","J","1","","","164","main_expt",""
"","bandit","245","632533","0.0-206.0-0.0","42939255","wem/bandit_party_1","A1ENLHC41G3T9E","either","3","650","","","","","","","0","0","1","","0.4016343469","0.2","0.4","0.8","0.6","0.3629360172","0.2743039079","0.4016343469","0.1099358877","","","","","","","","","","","","","","75","K","2","","","165","main_expt",""
"","bandit","246","634420","0.0-207.0-0.0","42939255","wem/bandit_party_1","A1ENLHC41G3T9E","either","3","353","","","","","","","0","0","1","0.08082918558","","0.2","0.4","0.8","0.6","","","","","0.3697042915","0.2900226329","0.3578169927","0.08082918558","","","","","","","","","","76","L","3","","","166","main_expt",""
"","bandit","247","636250","0.0-208.0-0.0","42939255","wem/bandit_party_1","A1ENLHC41G3T9E","either","3","293","","","","","","","1","0","0","0.3346076013","","0.2","0.4","0.8","0.6","","","","","0.3626443337","0.3444017494","0.3346076013","0.08539074978","","","","","","","","","","75","K","2","","","167","main_expt",""
"","bandit","248","637921","0.0-209.0-0.0","42939255","wem/bandit_party_1","A1ENLHC41G3T9E","either","3","133","","","","","","","1","0","0","0.36326211","","0.2","0.4","0.8","0.6","","","","","0.3488380128","0.3934904689","0.36326211","0.1307687804","","","","","","","","","","75","K","2","","","168","main_expt",""
"","bandit","249","640275","0.0-210.0-0.0","42939255","wem/bandit_party_1","A1ENLHC41G3T9E","either","3","821","","","","","","","1","0","0","0.3389060657","","0.2","0.4","0.8","0.6","","","","","0.3338465455","0.3712778229","0.3389060657","0.09435724838","","","","","","","","","","75","K","2","","","169","main_expt",""
"","bandit","250","642090","0.0-211.0-0.0","42939255","wem/bandit_party_1","A1ENLHC41G3T9E","either","3","273","","","","","","","0","0","1","0.3820287301","","0.2","0.4","0.8","0.6","","","","","0.3675902536","0.3348119161","0.3820287301","0.09371103674","","","","","","","","","","75","K","2","","","170","main_expt",""
"","bandit","251","643775","0.0-212.0-0.0","42939255","wem/bandit_party_1","A1ENLHC41G3T9E","either","3","148","","","","","","","0","1","0","","0.3697689907","0.2","0.4","0.8","0.6","0.3663425941","0.3697689907","0.3738350687","0.0912992704","","","","","","","","","","","","","","74","J","1","","","171","main_expt",""
"","bandit","252","645696","0.0-213.0-0.0","42939255","wem/bandit_party_1","A1ENLHC41G3T9E","either","3","385","","","","","","","0","0","1","0.3438364448","","0.2","0.4","0.8","0.6","","","","","0.3571019768","0.3438364448","0.3449486646","0.1053216192","","","","","","","","","","74","J","1","","","172","main_expt",""
"","bandit","253","647520","0.0-214.0-0.0","42939255","wem/bandit_party_1","A1ENLHC41G3T9E","either","3","300","","","","","","","0","0","1","","0.383943734","0.2","0.4","0.8","0.6","0.383943734","0.4064517123","0.3754463001","0.1119971747","","","","","","","","","","","","","","72","H","0","img/none_selected.jpg","","173","main_expt",""
"","bandit","254","649389","0.0-215.0-0.0","42939255","wem/bandit_party_1","A1ENLHC41G3T9E","either","3","331","","","","","","","0","1","0","","0.4266345201","0.2","0.4","0.8","0.6","0.378453819","0.4266345201","0.3983783957","0.1049574405","","","","","","","","","","","","","","74","J","1","","","174","main_expt",""
"","bandit","255","651457","0.0-216.0-0.0","42939255","wem/bandit_party_1","A1ENLHC41G3T9E","either","3","527","","","","","","","0","0","1","","0.4413212306","0.2","0.4","0.8","0.6","0.3577460836","0.4413212306","0.4176958341","0.07351671593","","","","","","","","","","","","","","74","J","1","","","175","main_expt",""
"","bandit","256","653572","0.0-217.0-0.0","42939255","wem/bandit_party_1","A1ENLHC41G3T9E","either","3","574","","","","","","","0","0","1","0.4336280271","","0.2","0.4","0.8","0.6","","","","","0.3346789668","0.438548454","0.4336280271","0.06097876817","","","","","","","","","","75","K","2","","","176","main_expt",""
"","bandit","257","655759","0.0-218.0-0.0","42939255","wem/bandit_party_1","A1ENLHC41G3T9E","either","3","643","","","","","","","0","0","1","","0.4350726265","0.2","0.4","0.8","0.6","0.3720341948","0.4350726265","0.3863917124","0.05873143133","","","","","","","","","","","","","","74","J","1","","","177","main_expt",""
"","bandit","258","657712","0.0-219.0-0.0","42939255","wem/bandit_party_1","A1ENLHC41G3T9E","either","3","415","","","","","","","0","0","1","0.07829718294","","0.2","0.4","0.8","0.6","","","","","0.4243236705","0.4029859975","0.3826512014","0.07829718294","","","","","","","","","","76","L","3","","","178","main_expt",""
"","bandit","259","659888","0.0-220.0-0.0","42939255","wem/bandit_party_1","A1ENLHC41G3T9E","either","3","638","","","","","","","0","0","1","0.3681046487","","0.2","0.4","0.8","0.6","","","","","0.4396564102","0.3738585124","0.3681046487","0.05868413977","","","","","","","","","","75","K","2","","","179","main_expt",""
"","bandit","260","661936","0.0-221.0-0.0","42939255","wem/bandit_party_1","A1ENLHC41G3T9E","either","3","508","","","","","","","0","0","1","","0.4501825932","0.2","0.4","0.8","0.6","0.4501825932","0.3884150149","0.374340785","0.04540529238","","","","","","","","","","","","","","72","H","0","img/none_selected.jpg","","180","main_expt",""
"","bandit","261","663546","0.0-222.0-0.0","42939255","wem/bandit_party_1","A1ENLHC41G3T9E","either","3","66","","","","","","","0","0","1","","0.3977335033","0.2","0.4","0.8","0.6","0.4527537228","0.3977335033","0.3844034803","0.04810206047","","","","","","","","","","","","","","74","J","1","","","181","main_expt",""
"","bandit","262","665202","0.0-223.0-0.0","42939255","wem/bandit_party_1","A1ENLHC41G3T9E","either","3","116","","","","","","","0","0","1","","0.3569363444","0.2","0.4","0.8","0.6","0.4733821952","0.4194204302","0.3569363444","0.0564969073","","","","","","","","","","","","","","75","K","2","","","182","main_expt",""
"","bandit","263","667143","0.0-224.0-0.0","42939255","wem/bandit_party_1","A1ENLHC41G3T9E","either","3","404","","","","","","","0","0","1","0.06674959941","","0.2","0.4","0.8","0.6","","","","","0.4741352064","0.4050300101","0.3930074682","0.06674959941","","","","","","","","","","76","L","3","","","183","main_expt",""
"","bandit","264","669535","0.0-225.0-0.0","42939255","wem/bandit_party_1","A1ENLHC41G3T9E","either","3","854","","","","","","","0","0","1","","0.4835015011","0.2","0.4","0.8","0.6","0.4835015011","0.4272992256","0.4105724965","0.05730522946","","","","","","","","","","","","","","72","H","0","img/none_selected.jpg","","184","main_expt",""
"","bandit","265","672233","0.0-226.0-0.0","42939255","wem/bandit_party_1","A1ENLHC41G3T9E","either","3","1157","","","","","","","0","1","0","","0.4213026748","0.2","0.4","0.8","0.6","0.4907566516","0.4213026748","0.4230276401","0.0759668512","","","","","","","","","","","","","","74","J","1","","","185","main_expt",""
"","bandit","266","674126","0.0-227.0-0.0","42939255","wem/bandit_party_1","A1ENLHC41G3T9E","either","3","354","","","","","","","0","1","0","","0.3729626057","0.2","0.4","0.8","0.6","0.4777100538","0.3729626057","0.4243078066","0.0736669194","","","","","","","","","","","","","","74","J","1","","","186","main_expt",""
"","bandit","267","676371","0.0-228.0-0.0","42939255","wem/bandit_party_1","A1ENLHC41G3T9E","either","3","704","","","","","","","1","0","0","0.4022080601","","0.2","0.4","0.8","0.6","","","","","0.4751658893","0.4022080601","0.419104652","0.1020870739","","","","","","","","","","74","J","1","","","187","main_expt",""
"","bandit","268","678207","0.0-229.0-0.0","42939255","wem/bandit_party_1","A1ENLHC41G3T9E","either","3","289","","","","","","","0","0","1","","0.4218987807","0.2","0.4","0.8","0.6","0.4711403756","0.4218987807","0.3917910895","0.110066606","","","","","","","","","","","","","","74","J","1","","","188","main_expt",""
"","bandit","269","681367","0.0-230.0-0.0","42939255","wem/bandit_party_1","A1ENLHC41G3T9E","either","3","1619","","","","","","","0","0","1","0.3696037293","","0.2","0.4","0.8","0.6","","","","","0.4848283219","0.4284519853","0.3696037293","0.1616324423","","","","","","","","","","75","K","2","","","189","main_expt",""
"","bandit","270","684258","0.0-231.0-0.0","42939255","wem/bandit_party_1","A1ENLHC41G3T9E","either","3","1347","","","","","","","0","0","1","0.1401199573","","0.2","0.4","0.8","0.6","","","","","0.4906713727","0.4104863902","0.3722688899","0.1401199573","","","","","","","","","","76","L","3","","","190","main_expt",""
"","bandit","271","685914","0.0-232.0-0.0","42939255","wem/bandit_party_1","A1ENLHC41G3T9E","either","3","107","","","","","","","1","0","0","0.4944082075","","0.2","0.4","0.8","0.6","","","","","0.4944082075","0.4071825693","0.3956575009","0.1782786715","","","","","","","","","","72","H","0","img/none_selected.jpg","","191","main_expt",""
"","bandit","272","687797","0.0-233.0-0.0","42939255","wem/bandit_party_1","A1ENLHC41G3T9E","either","3","342","","","","","","","0","0","1","","0.4922337742","0.2","0.4","0.8","0.6","0.4922337742","0.4172763132","0.3843500594","0.203517815","","","","","","","","","","","","","","72","H","0","img/none_selected.jpg","","192","main_expt",""
"","bandit","273","689552","0.0-234.0-0.0","42939255","wem/bandit_party_1","A1ENLHC41G3T9E","either","3","214","","","","","","","1","0","0","0.3965334946","","0.2","0.4","0.8","0.6","","","","","0.4887356563","0.3965334946","0.3801723293","0.172030281","","","","","","","","","","74","J","1","","","193","main_expt",""
"","bandit","274","691304","0.0-235.0-0.0","42939255","wem/bandit_party_1","A1ENLHC41G3T9E","either","3","212","","","","","","","0","1","0","","0.383316574","0.2","0.4","0.8","0.6","0.4850955297","0.383316574","0.3871645121","0.1813301739","","","","","","","","","","","","","","74","J","1","","","194","main_expt",""
"","bandit","275","692875","0.0-236.0-0.0","42939255","wem/bandit_party_1","A1ENLHC41G3T9E","either","3","34","","","","","","","1","0","0","0.3965345796","","0.2","0.4","0.8","0.6","","","","","0.4848341758","0.3965345796","0.3633903175","0.2284295163","","","","","","","","","","74","J","1","","","195","main_expt",""
"","bandit","276","694720","0.0-237.0-0.0","42939255","wem/bandit_party_1","A1ENLHC41G3T9E","either","3","304","","","","","","","0","1","0","","0.3978469093","0.2","0.4","0.8","0.6","0.490049139","0.3978469093","0.3811675741","0.2501246714","","","","","","","","","","","","","","74","J","1","","","196","main_expt",""
"","bandit","277","696621","0.0-238.0-0.0","42939255","wem/bandit_party_1","A1ENLHC41G3T9E","either","3","356","","","","","","","0","0","1","0.3172926233","","0.2","0.4","0.8","0.6","","","","","0.4912643012","0.3172926233","0.3487868089","0.3150809007","","","","","","","","","","74","J","1","","","197","main_expt",""
"","bandit","278","698642","0.0-239.0-0.0","42939255","wem/bandit_party_1","A1ENLHC41G3T9E","either","3","474","","","","","","","0","0","1","","0.3113170709","0.2","0.4","0.8","0.6","0.4793615714","0.3113170709","0.2986771554","0.3442077965","","","","","","","","","","","","","","74","J","1","","","198","main_expt",""
"","bandit","279","700631","0.0-240.0-0.0","42939255","wem/bandit_party_1","A1ENLHC41G3T9E","either","3","451","","","","","","","1","0","0","0.4661622676","","0.2","0.4","0.8","0.6","","","","","0.4661622676","0.3066116159","0.3481418533","0.3675051223","","","","","","","","","","72","H","0","img/none_selected.jpg","","199","main_expt",""
"","bandit","280","702534","0.0-241.0-0.0","42939255","wem/bandit_party_1","A1ENLHC41G3T9E","either","3","369","","","","","","","0","0","1","","0.4479238565","0.2","0.4","0.8","0.6","0.4479238565","0.2521122026","0.353319573","0.3044821291","","","","","","","","","","","","","","72","H","0","img/none_selected.jpg","","200","main_expt",""
"","bandit","281","704899","0.0-242.0-0.0","42939255","wem/bandit_party_1","A1ENLHC41G3T9E","either","3","830","","","","","","","0","0","1","","0.4429166455","0.2","0.4","0.8","0.6","0.4429166455","0.2679963248","0.3676338631","0.3013824411","","","","","","","","","","","","","","72","H","0","img/none_selected.jpg","","201","main_expt",""
"","bandit","282","706724","0.0-243.0-0.0","42939255","wem/bandit_party_1","A1ENLHC41G3T9E","either","3","283","","","","","","","0","0","1","","0.2076546236","0.2","0.4","0.8","0.6","0.442820363","0.2076546236","0.311657493","0.3001954661","","","","","","","","","","","","","","74","J","1","","","202","main_expt",""
"","bandit","283","709177","0.0-244.0-0.0","42939255","wem/bandit_party_1","A1ENLHC41G3T9E","either","3","911","","","","","","","1","0","0","0.3364041998","","0.2","0.4","0.8","0.6","","","","","0.4539008368","0.1881707852","0.3364041998","0.3189156814","","","","","","","","","","75","K","2","","","203","main_expt",""
"","bandit","284","710724","0.0-245.0-0.0","42939255","wem/bandit_party_1","A1ENLHC41G3T9E","either","3","1","","","","","","","0","0","1","0.3148670147","","0.2","0.4","0.8","0.6","","","","","0.4163307037","0.2057853427","0.3148670147","0.3162062407","","","","","","","","","","75","K","2","","","204","main_expt",""
"","bandit","285","713145","0.0-246.0-0.0","42939255","wem/bandit_party_1","A1ENLHC41G3T9E","either","3","881","","","","","","","0","0","1","","0.3293187519","0.2","0.4","0.8","0.6","0.4045388199","0.2564451259","0.3293187519","0.347278619","","","","","","","","","","","","","","75","K","2","","","205","main_expt",""
"","bandit","286","715280","0.0-247.0-0.0","42939255","wem/bandit_party_1","A1ENLHC41G3T9E","either","3","597","","","","","","","0","0","1","","0.2970129147","0.2","0.4","0.8","0.6","0.4083422121","0.3082896296","0.2705077244","0.2970129147","","","","","","","","","","","","","","76","L","3","","","206","main_expt",""
"","bandit","287","717485","0.0-248.0-0.0","42939255","wem/bandit_party_1","A1ENLHC41G3T9E","either","3","667","","","","","","","0","0","1","0.4033585138","","0.2","0.4","0.8","0.6","","","","","0.4033585138","0.3235103938","0.3083591011","0.3331481178","","","","","","","","","","72","H","0","img/none_selected.jpg","","207","main_expt",""
"","bandit","288","719186","0.0-249.0-0.0","42939255","wem/bandit_party_1","A1ENLHC41G3T9E","either","3","164","","","","","","","0","0","1","0.3563539536","","0.2","0.4","0.8","0.6","","","","","0.3753320851","0.3563539536","0.2489273718","0.3195917859","","","","","","","","","","74","J","1","","","208","main_expt",""
"","bandit","289","721580","0.0-250.0-0.0","42939255","wem/bandit_party_1","A1ENLHC41G3T9E","either","3","858","","","","","","","0","0","1","0.2224321457","","0.2","0.4","0.8","0.6","","","","","0.3864970555","0.3821305916","0.2224321457","0.3642345195","","","","","","","","","","75","K","2","","","209","main_expt",""
"","bandit","290","723490","0.0-251.0-0.0","42939255","wem/bandit_party_1","A1ENLHC41G3T9E","either","3","376","","","","","","","0","0","1","","0.3518797164","0.2","0.4","0.8","0.6","0.3894881908","0.4067483812","0.2184729634","0.3518797164","","","","","","","","","","","","","","76","L","3","","","210","main_expt",""
"","bandit","291","725423","0.0-252.0-0.0","42939255","wem/bandit_party_1","A1ENLHC41G3T9E","either","3","393","","","","","","","0","1","0","","0.4052823736","0.2","0.4","0.8","0.6","0.4052823736","0.376825818","0.2178464352","0.3781537602","","","","","","","","","","","","","","72","H","0","img/none_selected.jpg","","211","main_expt",""
"","bandit","292","727412","0.0-253.0-0.0","42939255","wem/bandit_party_1","A1ENLHC41G3T9E","either","3","452","","","","","","","0","0","1","","0.3783189977","0.2","0.4","0.8","0.6","0.3783189977","0.3481764155","0.1644702768","0.3773353051","","","","","","","","","","","","","","72","H","0","img/none_selected.jpg","","212","main_expt",""
"","bandit","293","729181","0.0-254.0-0.0","42939255","wem/bandit_party_1","A1ENLHC41G3T9E","either","3","233","","","","","","","0","0","1","","0.3239198888","0.2","0.4","0.8","0.6","0.3804187243","0.3239198888","0.1271660564","0.3448860985","","","","","","","","","","","","","","74","J","1","","","213","main_expt",""
"","bandit","294","730722","0.0-255.0-0.0","42939255","wem/bandit_party_1","A1ENLHC41G3T9E","either","3","2","","","","","","","0","0","1","0.1368129038","","0.2","0.4","0.8","0.6","","","","","0.3964056757","0.3592643085","0.1368129038","0.3622000499","","","","","","","","","","75","K","2","","","214","main_expt",""
"","bandit","295","732645","0.0-256.0-0.0","42939255","wem/bandit_party_1","A1ENLHC41G3T9E","either","3","377","","","","","","","0","0","1","0.3408682726","","0.2","0.4","0.8","0.6","","","","","0.3939862607","0.3482739819","0.07615368859","0.3408682726","","","","","","","","","","76","L","3","","","215","main_expt",""
"","bandit","296","734185","0.0-257.0-0.0","42939255","wem/bandit_party_1","A1ENLHC41G3T9E","either","3","3","","","","","","","0","0","1","","0.4062496234","0.2","0.4","0.8","0.6","0.4062496234","0.2972527025","0.07711559412","0.328819006","","","","","","","","","","","","","","72","H","0","img/none_selected.jpg","","216","main_expt",""
"","bandit","297","735873","0.0-258.0-0.0","42939255","wem/bandit_party_1","A1ENLHC41G3T9E","either","3","144","","","","","","","0","0","1","","0.2850944341","0.2","0.4","0.8","0.6","0.3440498305","0.2850944341","0.07728173513","0.3229374792","","","","","","","","","","","","","","74","J","1","","","217","main_expt",""
"","bandit","298","737961","0.0-259.0-0.0","42939255","wem/bandit_party_1","A1ENLHC41G3T9E","either","3","551","","","","","","","0","0","1","0.07919919155","","0.2","0.4","0.8","0.6","","","","","0.3198020565","0.2483413171","0.07919919155","0.3616220652","","","","","","","","","","75","K","2","","","218","main_expt",""
"","bandit","299","739887","0.0-260.0-0.0","42939255","wem/bandit_party_1","A1ENLHC41G3T9E","either","3","387","","","","","","","0","0","1","0.3591176528","","0.2","0.4","0.8","0.6","","","","","0.3078290176","0.2680513607","0.1270410367","0.3591176528","","","","","","","","","","76","L","3","","","219","main_expt",""
"","bandit","300","741484","0.0-261.0-0.0","42939255","wem/bandit_party_1","A1ENLHC41G3T9E","either","3","55","","","","","","","0","0","1","","0.2961895162","0.2","0.4","0.8","0.6","0.2961895162","0.304668496","0.1117499599","0.2758994579","","","","","","","","","","","","","","72","H","0","img/none_selected.jpg","","220","main_expt",""
"","bandit","301","743587","0.0-262.0-0.0","42939255","wem/bandit_party_1","A1ENLHC41G3T9E","either","3","562","","","","","","","0","0","1","0.2773284289","","0.2","0.4","0.8","0.6","","","","","0.2658603678","0.2773284289","0.1186324211","0.3119987931","","","","","","","","","","74","J","1","","","221","main_expt",""
"","bandit","302","745170","0.0-263.0-0.0","42939255","wem/bandit_party_1","A1ENLHC41G3T9E","either","3","47","","","","","","","0","0","1","0.1141050397","","0.2","0.4","0.8","0.6","","","","","0.274695037","0.2152506718","0.1141050397","0.3106374463","","","","","","","","","","75","K","2","","","222","main_expt",""
"","bandit","303","747932","0.0-264.0-0.0","42939255","wem/bandit_party_1","A1ENLHC41G3T9E","either","3","1218","","","","","","","0","0","1","0.3131570504","","0.2","0.4","0.8","0.6","","","","","0.2210940289","0.2445797097","0.1007228699","0.3131570504","","","","","","","","","","76","L","3","","","223","main_expt",""
"","bandit","304","750064","0.0-265.0-0.0","42939255","wem/bandit_party_1","A1ENLHC41G3T9E","either","3","593","","","","","","","0","0","1","","0.1843933297","0.2","0.4","0.8","0.6","0.1843933297","0.2559263424","0.1380584308","0.3025994915","","","","","","","","","","","","","","72","H","0","img/none_selected.jpg","","224","main_expt",""
"","bandit","305","752390","0.0-266.0-0.0","42939255","wem/bandit_party_1","A1ENLHC41G3T9E","either","3","785","","","","","","","0","0","1","","0.2702522324","0.2","0.4","0.8","0.6","0.212211923","0.2702522324","0.1393521225","0.2994132709","","","","","","","","","","","","","","74","J","1","","","225","main_expt",""
"","bandit","306","754011","0.0-267.0-0.0","42939255","wem/bandit_party_1","A1ENLHC41G3T9E","either","3","82","","","","","","","0","0","1","0.2094269877","","0.2","0.4","0.8","0.6","","","","","0.2315036379","0.2646860425","0.2094269877","0.2866794375","","","","","","","","","","75","K","2","","","226","main_expt",""
"","bandit","307","756068","0.0-268.0-0.0","42939255","wem/bandit_party_1","A1ENLHC41G3T9E","either","3","520","","","","","","","0","0","1","","0.2299222882","0.2","0.4","0.8","0.6","0.2646353212","0.269556559","0.2959232149","0.2299222882","","","","","","","","","","","","","","76","L","3","","","227","main_expt",""
"","bandit","308","758049","0.0-269.0-0.0","42939255","wem/bandit_party_1","A1ENLHC41G3T9E","either","3","434","","","","","","","0","0","1","","0.2443517867","0.2","0.4","0.8","0.6","0.2443517867","0.2498152532","0.374355758","0.2991813551","","","","","","","","","","","","","","72","H","0","img/none_selected.jpg","","228","main_expt",""
"","bandit","309","759935","0.0-270.0-0.0","42939255","wem/bandit_party_1","A1ENLHC41G3T9E","either","3","330","","","","","","","0","0","1","","0.2569692975","0.2","0.4","0.8","0.6","0.2569692975","0.2495566458","0.3876740502","0.3295538921","","","","","","","","","","","","","","72","H","0","img/none_selected.jpg","","229","main_expt",""
"","bandit","310","761945","0.0-271.0-0.0","42939255","wem/bandit_party_1","A1ENLHC41G3T9E","either","3","468","","","","","","","0","0","1","","0.2490290172","0.2","0.4","0.8","0.6","0.2490290172","0.2134382902","0.3341674595","0.2713593359","","","","","","","","","","","","","","72","H","0","img/none_selected.jpg","","230","main_expt",""
"","bandit","311","763627","0.0-272.0-0.0","42939255","wem/bandit_party_1","A1ENLHC41G3T9E","either","3","144","","","","","","","0","0","1","","0.2099205747","0.2","0.4","0.8","0.6","0.2368643707","0.2099205747","0.3558281537","0.2746975787","","","","","","","","","","","","","","74","J","1","","","231","main_expt",""
"","bandit","312","765176","0.0-273.0-0.0","42939255","wem/bandit_party_1","A1ENLHC41G3T9E","either","3","13","","","","","","","0","0","1","0.1598609145","","0.2","0.4","0.8","0.6","","","","","0.2857324616","0.1598609145","0.3293076861","0.2817934899","","","","","","","","","","74","J","1","","","232","main_expt",""
"","bandit","313","766879","0.0-274.0-0.0","42939255","wem/bandit_party_1","A1ENLHC41G3T9E","either","3","156","","","","","","","1","0","0","0.3271309306","","0.2","0.4","0.8","0.6","","","","","0.226619475","0.1472569172","0.3271309306","0.3139736629","","","","","","","","","","75","K","2","","","233","main_expt",""
"","bandit","314","768414","0.0-275.0-0.0","42939255","wem/bandit_party_1","A1ENLHC41G3T9E","either","3","2","","","","","","","0","0","1","","0.3510228885","0.2","0.4","0.8","0.6","0.2448251662","0.1123375355","0.3510228885","0.3332560948","","","","","","","","","","","","","","75","K","2","","","234","main_expt",""
