"consent","trial_type","trial_index","time_elapsed","internal_node_id","subjID","study","MID","cond","drift","rt","responses","button_pressed","key_press","like","value","connected","gems","bombs","no_reward","GemPrChosen","BombPrChosen","GainOverPainPr_0","GainOverPainPr_1","GainOverPainPr_2","GainOverPainPr_3","LosePr_0","LosePr_1","LosePr_2","LosePr_3","WinPr_0","WinPr_1","WinPr_2","WinPr_3","Q0","Q1","Q2","gender","age","ethnicity","label","expt_phase","target","respCharCode","respKey","respChoiceNum","respChoice","practice","trial_counter","trial_label","Q0_index"
"GDM/GDM_behavioral_consent_30min_online.html","consent","0","39223","0.0-0.0","43549415","wem/bandit_party_1","AH4S22PWE826G","either","3","","","","","","","","","","","","","","","","","","","","","","","","","","","","","","","","","","","","","","","","",""
"","survey-text","1","42143","0.0-1.0","43549415","wem/bandit_party_1","AH4S22PWE826G","either","3","1915","{""Q0"":""AH4S22PWE826G""}","","","","","","","","","","","","","","","","","","","","","","","","","","","","","","","","","","","","","","",""
"","button-response","2","44271","0.0-2.0","43549415","wem/bandit_party_1","AH4S22PWE826G","either","3","1125","","1","","","","","","","","","","","","","","","","","","","","","","","","","","","","","","","","","","","","","",""
"","text-replacement","3","51623","0.0-3.0","43549415","wem/bandit_party_1","AH4S22PWE826G","either","3","6351","","","32","","","","","","","","","","","","","","","","","","","","","","","","","","","","","","","","","","","","",""
"","text-replacement","4","58030","0.0-4.0","43549415","wem/bandit_party_1","AH4S22PWE826G","either","3","6405","","","32","","","","","","","","","","","","","","","","","","","","","","","","","","","","","","","","","","","","",""
"","identification","5","62607","0.0-6.0-0.0","43549415","wem/bandit_party_1","AH4S22PWE826G","either","3","4571","","","","3","3","3","","","","","","","","","","","","","","","","","","","","","","","","pre","identification_pre","the Democratic Party","","","","","","","",""
"","identification","6","69199","0.0-6.0-1.0","43549415","wem/bandit_party_1","AH4S22PWE826G","either","3","5585","","","","1","1","0","","","","","","","","","","","","","","","","","","","","","","","","pre","identification_pre","the Republican party","","","","","","","",""
"","text-replacement","7","113742","0.0-7.0","43549415","wem/bandit_party_1","AH4S22PWE826G","either","3","43542","","","32","","","","","","","","","","","","","","","","","","","","","","","","","","","","","","","","","","","","",""
"","text-replacement","8","117294","0.0-8.0","43549415","wem/bandit_party_1","AH4S22PWE826G","either","3","3550","","","32","","","","","","","","","","","","","","","","","","","","","","","","","","","","","","","","","","","","",""
"","text-replacement","9","123863","0.0-9.0","43549415","wem/bandit_party_1","AH4S22PWE826G","either","3","6568","","","32","","","","","","","","","","","","","","","","","","","","","","","","","","","","","","","","","","","","",""
"","text-replacement","10","127037","0.0-10.0","43549415","wem/bandit_party_1","AH4S22PWE826G","either","3","3174","","","32","","","","","","","","","","","","","","","","","","","","","","","","","","","","","","","","","","","","",""
"","text-replacement","11","132398","0.0-11.0","43549415","wem/bandit_party_1","AH4S22PWE826G","either","3","5360","","","32","","","","","","","","","","","","","","","","","","","","","","","","","","","","","","","","","","","","",""
"","bandit","12","136437","0.0-12.0-0.0","43549415","wem/bandit_party_1","AH4S22PWE826G","either","3","2535","","","","","","","0","0","1","0","0","","","","","0","","","","0","","","","","","","","","","","","","74","J","0","img/none_selected_demo.jpg","true","0","",""
"","bandit","13","139651","0.0-13.0-0.0","43549415","wem/bandit_party_1","AH4S22PWE826G","either","3","1711","","","","","","","0","0","1","0","0","","","","","0","","","","0","","","","","","","","","","","","","75","K","0","img/none_selected_demo.jpg","true","0","",""
"","text-replacement","14","145087","0.0-14.0","43549415","wem/bandit_party_1","AH4S22PWE826G","either","3","5434","","","32","","","","","","","","","","","","","","","","","","","","","","","","","","","","","","","","","","","","",""
"","text-replacement","15","152606","0.0-15.0","43549415","wem/bandit_party_1","AH4S22PWE826G","either","3","7518","","","32","","","","","","","","","","","","","","","","","","","","","","","","","","","","","","","","","","","","",""
"","text-replacement","16","162695","0.0-16.0","43549415","wem/bandit_party_1","AH4S22PWE826G","either","3","10088","","","32","","","","","","","","","","","","","","","","","","","","","","","","","","","","","","","","","","","","",""
"","text-replacement","17","165533","0.0-17.0","43549415","wem/bandit_party_1","AH4S22PWE826G","either","3","2837","","","32","","","","","","","","","","","","","","","","","","","","","","","","","","","","","","","","","","","","",""
"","bandit","18","167828","0.0-18.0-0.0","43549415","wem/bandit_party_1","AH4S22PWE826G","either","3","791","","","","","","","1","0","0","0.8","","0.5","0.5","","","","","","","0.8","0.2","","","","","","","","","","","","74","J","0","img/none_selected_demo.jpg","true","0","80_20_practice",""
"","bandit","19","169619","0.0-18.0-1.0","43549415","wem/bandit_party_1","AH4S22PWE826G","either","3","288","","","","","","","0","0","1","","0.8","0.5","0.5","","","0.8","0.2","","","","","","","","","","","","","","","","74","J","0","img/none_selected_demo.jpg","true","0","80_20_practice",""
"","bandit","20","171219","0.0-18.0-2.0","43549415","wem/bandit_party_1","AH4S22PWE826G","either","3","96","","","","","","","0","0","1","","0.2","0.5","0.5","","","0.8","0.2","","","","","","","","","","","","","","","","75","K","1","","true","0","80_20_practice",""
"","bandit","21","173084","0.0-18.0-3.0","43549415","wem/bandit_party_1","AH4S22PWE826G","either","3","361","","","","","","","1","0","0","0.8","","0.5","0.5","","","","","","","0.8","0.2","","","","","","","","","","","","74","J","0","img/none_selected_demo.jpg","true","0","80_20_practice",""
"","bandit","22","174861","0.0-18.0-4.0","43549415","wem/bandit_party_1","AH4S22PWE826G","either","3","273","","","","","","","0","0","1","0.8","","0.5","0.5","","","","","","","0.8","0.2","","","","","","","","","","","","74","J","0","img/none_selected_demo.jpg","true","0","80_20_practice",""
"","bandit","23","176515","0.0-18.0-5.0","43549415","wem/bandit_party_1","AH4S22PWE826G","either","3","151","","","","","","","0","1","0","","0.2","0.5","0.5","","","0.8","0.2","","","","","","","","","","","","","","","","75","K","1","","true","0","80_20_practice",""
"","bandit","24","178212","0.0-18.0-6.0","43549415","wem/bandit_party_1","AH4S22PWE826G","either","3","193","","","","","","","0","0","1","","0.2","0.5","0.5","","","0.8","0.2","","","","","","","","","","","","","","","","75","K","1","","true","0","80_20_practice",""
"","bandit","25","179843","0.0-18.0-7.0","43549415","wem/bandit_party_1","AH4S22PWE826G","either","3","128","","","","","","","0","0","1","0.2","","0.5","0.5","","","","","","","0.8","0.2","","","","","","","","","","","","75","K","1","","true","0","80_20_practice",""
"","bandit","26","181429","0.0-18.0-8.0","43549415","wem/bandit_party_1","AH4S22PWE826G","either","3","81","","","","","","","1","0","0","0.8","","0.5","0.5","","","","","","","0.8","0.2","","","","","","","","","","","","74","J","0","img/none_selected_demo.jpg","true","0","80_20_practice",""
"","bandit","27","182996","0.0-18.0-9.0","43549415","wem/bandit_party_1","AH4S22PWE826G","either","3","63","","","","","","","0","1","0","","0.8","0.5","0.5","","","0.8","0.2","","","","","","","","","","","","","","","","74","J","0","img/none_selected_demo.jpg","true","0","80_20_practice",""
"","bandit","28","184547","0.0-18.0-10.0","43549415","wem/bandit_party_1","AH4S22PWE826G","either","3","48","","","","","","","1","0","0","0.8","","0.5","0.5","","","","","","","0.8","0.2","","","","","","","","","","","","74","J","0","img/none_selected_demo.jpg","true","0","80_20_practice",""
"","bandit","29","186108","0.0-18.0-11.0","43549415","wem/bandit_party_1","AH4S22PWE826G","either","3","58","","","","","","","1","0","0","0.8","","0.5","0.5","","","","","","","0.8","0.2","","","","","","","","","","","","74","J","0","img/none_selected_demo.jpg","true","0","80_20_practice",""
"","bandit","30","187963","0.0-18.0-12.0","43549415","wem/bandit_party_1","AH4S22PWE826G","either","3","352","","","","","","","1","0","0","0.8","","0.5","0.5","","","","","","","0.8","0.2","","","","","","","","","","","","74","J","0","img/none_selected_demo.jpg","true","0","80_20_practice",""
"","bandit","31","189675","0.0-18.0-13.0","43549415","wem/bandit_party_1","AH4S22PWE826G","either","3","209","","","","","","","0","1","0","","0.8","0.5","0.5","","","0.8","0.2","","","","","","","","","","","","","","","","74","J","0","img/none_selected_demo.jpg","true","0","80_20_practice",""
"","bandit","32","191388","0.0-18.0-14.0","43549415","wem/bandit_party_1","AH4S22PWE826G","either","3","208","","","","","","","0","1","0","","0.8","0.5","0.5","","","0.8","0.2","","","","","","","","","","","","","","","","74","J","0","img/none_selected_demo.jpg","true","0","80_20_practice",""
"","bandit","33","192939","0.0-18.0-15.0","43549415","wem/bandit_party_1","AH4S22PWE826G","either","3","48","","","","","","","1","0","0","0.8","","0.5","0.5","","","","","","","0.8","0.2","","","","","","","","","","","","74","J","0","img/none_selected_demo.jpg","true","0","80_20_practice",""
"","bandit","34","194549","0.0-18.0-16.0","43549415","wem/bandit_party_1","AH4S22PWE826G","either","3","105","","","","","","","0","1","0","","0.8","0.5","0.5","","","0.8","0.2","","","","","","","","","","","","","","","","74","J","0","img/none_selected_demo.jpg","true","0","80_20_practice",""
"","bandit","35","196059","0.0-18.0-17.0","43549415","wem/bandit_party_1","AH4S22PWE826G","either","3","7","","","","","","","0","1","0","","0.8","0.5","0.5","","","0.8","0.2","","","","","","","","","","","","","","","","74","J","0","img/none_selected_demo.jpg","true","0","80_20_practice",""
"","bandit","36","198275","0.0-18.0-18.0","43549415","wem/bandit_party_1","AH4S22PWE826G","either","3","713","","","","","","","1","0","0","0.8","","0.5","0.5","","","","","","","0.8","0.2","","","","","","","","","","","","74","J","0","img/none_selected_demo.jpg","true","0","80_20_practice",""
"","bandit","37","200084","0.0-18.0-19.0","43549415","wem/bandit_party_1","AH4S22PWE826G","either","3","305","","","","","","","1","0","0","0.8","","0.5","0.5","","","","","","","0.8","0.2","","","","","","","","","","","","74","J","0","img/none_selected_demo.jpg","true","0","80_20_practice",""
"","text-replacement","38","202598","0.0-19.0","43549415","wem/bandit_party_1","AH4S22PWE826G","either","3","2512","","","32","","","","","","","","","","","","","","","","","","","","","","","","","","","","","","","","","","","","",""
"","bandit","39","204940","0.0-20.0-0.0","43549415","wem/bandit_party_1","AH4S22PWE826G","either","3","838","","","","","","","1","0","0","1","0","","","","","0","1","","","1","0","","","","","","","","","","","","74","J","0","img/none_selected_demo.jpg","true","0","",""
"","text-replacement","40","207767","0.0-21.0","43549415","wem/bandit_party_1","AH4S22PWE826G","either","3","2825","","","32","","","","","","","","","","","","","","","","","","","","","","","","","","","","","","","","","","","","",""
"","text-replacement","41","209597","0.0-22.0","43549415","wem/bandit_party_1","AH4S22PWE826G","either","3","1830","","","32","","","","","","","","","","","","","","","","","","","","","","","","","","","","","","","","","","","","",""
"","text-replacement","42","211206","0.0-23.0","43549415","wem/bandit_party_1","AH4S22PWE826G","either","3","1608","","","32","","","","","","","","","","","","","","","","","","","","","","","","","","","","","","","","","","","","",""
"","text-replacement","43","216085","0.0-24.0","43549415","wem/bandit_party_1","AH4S22PWE826G","either","3","4878","","","32","","","","","","","","","","","","","","","","","","","","","","","","","","","","","","","","","","","","",""
"","text-replacement","44","221439","0.0-25.0","43549415","wem/bandit_party_1","AH4S22PWE826G","either","3","5353","","","32","","","","","","","","","","","","","","","","","","","","","","","","","","","","","","","","","","","","",""
"","text-replacement","45","223629","0.0-26.0","43549415","wem/bandit_party_1","AH4S22PWE826G","either","3","2189","","","32","","","","","","","","","","","","","","","","","","","","","","","","","","","","","","","","","","","","",""
"","text-replacement","46","228622","0.0-27.0","43549415","wem/bandit_party_1","AH4S22PWE826G","either","3","4991","","","32","","","","","","","","","","","","","","","","","","","","","","","","","","","","","","","","","","","","",""
"","text-replacement","47","231630","0.0-28.0","43549415","wem/bandit_party_1","AH4S22PWE826G","either","3","3008","","","32","","","","","","","","","","","","","","","","","","","","","","","","","","","","","","","","","","","","",""
"","text-replacement","48","235326","0.0-29.0","43549415","wem/bandit_party_1","AH4S22PWE826G","either","3","3694","","","32","","","","","","","","","","","","","","","","","","","","","","","","","","","","","","","","","","","","",""
"","text-replacement","49","237225","0.0-30.0","43549415","wem/bandit_party_1","AH4S22PWE826G","either","3","1898","","","32","","","","","","","","","","","","","","","","","","","","","","","","","","","","","","","","","","","","",""
"","text-replacement","50","238966","0.0-31.0","43549415","wem/bandit_party_1","AH4S22PWE826G","either","3","1740","","","32","","","","","","","","","","","","","","","","","","","","","","","","","","","","","","","","","","","","",""
"","bandit","51","242275","0.0-32.0-0.0","43549415","wem/bandit_party_1","AH4S22PWE826G","either","3","1806","","","","","","","1","0","0","0.8","","0.5","0.5","0.5","0.5","","","","","0.8","0.2","0.6","0.2","","","","","","","","","","72","H","0","img/none_selected.jpg","true","0","full_practice",""
"","bandit","52","243988","0.0-32.0-1.0","43549415","wem/bandit_party_1","AH4S22PWE826G","either","3","210","","","","","","","1","0","0","0.8","","0.5","0.5","0.5","0.5","","","","","0.8","0.2","0.6","0.2","","","","","","","","","","72","H","0","img/none_selected.jpg","true","0","full_practice",""
"","bandit","53","245587","0.0-32.0-2.0","43549415","wem/bandit_party_1","AH4S22PWE826G","either","3","95","","","","","","","1","0","0","0.8","","0.5","0.5","0.5","0.5","","","","","0.8","0.2","0.6","0.2","","","","","","","","","","72","H","0","img/none_selected.jpg","true","0","full_practice",""
"","bandit","54","247211","0.0-32.0-3.0","43549415","wem/bandit_party_1","AH4S22PWE826G","either","3","121","","","","","","","1","0","0","0.8","","0.5","0.5","0.5","0.5","","","","","0.8","0.2","0.6","0.2","","","","","","","","","","72","H","0","img/none_selected.jpg","true","0","full_practice",""
"","bandit","55","248883","0.0-32.0-4.0","43549415","wem/bandit_party_1","AH4S22PWE826G","either","3","169","","","","","","","1","0","0","0.8","","0.5","0.5","0.5","0.5","","","","","0.8","0.2","0.6","0.2","","","","","","","","","","72","H","0","img/none_selected.jpg","true","0","full_practice",""
"","bandit","56","250572","0.0-32.0-5.0","43549415","wem/bandit_party_1","AH4S22PWE826G","either","3","184","","","","","","","0","0","1","0.8","","0.5","0.5","0.5","0.5","","","","","0.8","0.2","0.6","0.2","","","","","","","","","","72","H","0","img/none_selected.jpg","true","0","full_practice",""
"","bandit","57","252171","0.0-32.0-6.0","43549415","wem/bandit_party_1","AH4S22PWE826G","either","3","96","","","","","","","0","1","0","","0.8","0.5","0.5","0.5","0.5","0.8","0.2","0.6","0.2","","","","","","","","","","","","","","72","H","0","img/none_selected.jpg","true","0","full_practice",""
"","bandit","58","253835","0.0-32.0-7.0","43549415","wem/bandit_party_1","AH4S22PWE826G","either","3","160","","","","","","","1","0","0","0.8","","0.5","0.5","0.5","0.5","","","","","0.8","0.2","0.6","0.2","","","","","","","","","","72","H","0","img/none_selected.jpg","true","0","full_practice",""
"","bandit","59","255468","0.0-32.0-8.0","43549415","wem/bandit_party_1","AH4S22PWE826G","either","3","130","","","","","","","0","0","1","","0.8","0.5","0.5","0.5","0.5","0.8","0.2","0.6","0.2","","","","","","","","","","","","","","72","H","0","img/none_selected.jpg","true","0","full_practice",""
"","bandit","60","257066","0.0-32.0-9.0","43549415","wem/bandit_party_1","AH4S22PWE826G","either","3","95","","","","","","","1","0","0","0.8","","0.5","0.5","0.5","0.5","","","","","0.8","0.2","0.6","0.2","","","","","","","","","","72","H","0","img/none_selected.jpg","true","0","full_practice",""
"","bandit","61","258667","0.0-32.0-10.0","43549415","wem/bandit_party_1","AH4S22PWE826G","either","3","98","","","","","","","0","1","0","","0.8","0.5","0.5","0.5","0.5","0.8","0.2","0.6","0.2","","","","","","","","","","","","","","72","H","0","img/none_selected.jpg","true","0","full_practice",""
"","bandit","62","260219","0.0-32.0-11.0","43549415","wem/bandit_party_1","AH4S22PWE826G","either","3","49","","","","","","","0","1","0","","0.8","0.5","0.5","0.5","0.5","0.8","0.2","0.6","0.2","","","","","","","","","","","","","","72","H","0","img/none_selected.jpg","true","0","full_practice",""
"","bandit","63","261852","0.0-32.0-12.0","43549415","wem/bandit_party_1","AH4S22PWE826G","either","3","128","","","","","","","0","1","0","","0.8","0.5","0.5","0.5","0.5","0.8","0.2","0.6","0.2","","","","","","","","","","","","","","72","H","0","img/none_selected.jpg","true","0","full_practice",""
"","bandit","64","263451","0.0-32.0-13.0","43549415","wem/bandit_party_1","AH4S22PWE826G","either","3","95","","","","","","","1","0","0","0.8","","0.5","0.5","0.5","0.5","","","","","0.8","0.2","0.6","0.2","","","","","","","","","","72","H","0","img/none_selected.jpg","true","0","full_practice",""
"","bandit","65","265092","0.0-32.0-14.0","43549415","wem/bandit_party_1","AH4S22PWE826G","either","3","137","","","","","","","0","1","0","","0.8","0.5","0.5","0.5","0.5","0.8","0.2","0.6","0.2","","","","","","","","","","","","","","72","H","0","img/none_selected.jpg","true","0","full_practice",""
"","bandit","66","266740","0.0-32.0-15.0","43549415","wem/bandit_party_1","AH4S22PWE826G","either","3","145","","","","","","","1","0","0","0.8","","0.5","0.5","0.5","0.5","","","","","0.8","0.2","0.6","0.2","","","","","","","","","","72","H","0","img/none_selected.jpg","true","0","full_practice",""
"","bandit","67","268277","0.0-32.0-16.0","43549415","wem/bandit_party_1","AH4S22PWE826G","either","3","31","","","","","","","1","0","0","0.8","","0.5","0.5","0.5","0.5","","","","","0.8","0.2","0.6","0.2","","","","","","","","","","72","H","0","img/none_selected.jpg","true","0","full_practice",""
"","bandit","68","269819","0.0-32.0-17.0","43549415","wem/bandit_party_1","AH4S22PWE826G","either","3","38","","","","","","","1","0","0","0.8","","0.5","0.5","0.5","0.5","","","","","0.8","0.2","0.6","0.2","","","","","","","","","","72","H","0","img/none_selected.jpg","true","0","full_practice",""
"","bandit","69","271396","0.0-32.0-18.0","43549415","wem/bandit_party_1","AH4S22PWE826G","either","3","72","","","","","","","0","1","0","","0.8","0.5","0.5","0.5","0.5","0.8","0.2","0.6","0.2","","","","","","","","","","","","","","72","H","0","img/none_selected.jpg","true","0","full_practice",""
"","bandit","70","273004","0.0-32.0-19.0","43549415","wem/bandit_party_1","AH4S22PWE826G","either","3","103","","","","","","","0","1","0","","0.8","0.5","0.5","0.5","0.5","0.8","0.2","0.6","0.2","","","","","","","","","","","","","","72","H","0","img/none_selected.jpg","true","0","full_practice",""
"","text","71","275927","0.0-33.0","43549415","wem/bandit_party_1","AH4S22PWE826G","either","3","2918","","","32","","","","","","","","","","","","","","","","","","","","","","","","","","","","","","","","","","","","",""
"","text-replacement","72","285085","0.0-34.0","43549415","wem/bandit_party_1","AH4S22PWE826G","either","3","8157","","","32","","","","","","","","","","","","","","","","","","","","","","","","","","","","","","","","","","","","",""
"","text-replacement","73","296663","0.0-35.0","43549415","wem/bandit_party_1","AH4S22PWE826G","either","3","11576","","","32","","","","","","","","","","","","","","","","","","","","","","","","","","","","","","","","","","","","",""
"","text-replacement","74","312671","0.0-36.0","43549415","wem/bandit_party_1","AH4S22PWE826G","either","3","16008","","","32","","","","","","","","","","","","","","","","","","","","","","","","","","","","","","","","","","","","",""
"","text-replacement","75","318119","0.0-37.0","43549415","wem/bandit_party_1","AH4S22PWE826G","either","3","5446","","","32","","","","","","","","","","","","","","","","","","","","","","","","","","","","","","","","","","","","",""
"","text-replacement","76","325863","0.0-38.0","43549415","wem/bandit_party_1","AH4S22PWE826G","either","3","7743","","","32","","","","","","","","","","","","","","","","","","","","","","","","","","","","","","","","","","","","",""
"","survey-multi-choice-replacement","77","332488","0.0-39.0-0.0","43549415","wem/bandit_party_1","AH4S22PWE826G","either","3","6620","","","","","","","","","","","","","","","","","","","","","","","","Money will be added to the pool for <span style='color:blue;'>DEMOCRATS</span>","","","","","","","attn_check","","","","","","","","","0"
"","survey-multi-choice-replacement","78","338359","0.0-40.0-0.0","43549415","wem/bandit_party_1","AH4S22PWE826G","either","3","4865","","","","","","","","","","","","","","","","","","","","","","","","Equal amounts of money will be added to the pool for <span style='color:blue;'>DEMOCRATS</span> and subtracted from the pool for <span style='color:red;'>REPUBLICANS</span>","","","","","","","attn_check","","","","","","","","","2"
"","survey-multi-choice-replacement","79","342792","0.0-41.0-0.0","43549415","wem/bandit_party_1","AH4S22PWE826G","either","3","3427","","","","","","","","","","","","","","","","","","","","","","","","No money will be added to either pool","","","","","","","attn_check","","","","","","","","","3"
"","bandit","80","347068","0.0-42.0-0.0","43549415","wem/bandit_party_1","AH4S22PWE826G","either","3","1770","","","","","","","0","0","1","","0.1646489015","0.4","0.6","0.2","0.8","0.1646489015","0.07685641067","0.1426046982","0.4870892339","","","","","","","","","","","","","","72","H","0","img/none_selected.jpg","","1","main_expt",""
"","bandit","81","349101","0.0-43.0-0.0","43549415","wem/bandit_party_1","AH4S22PWE826G","either","3","529","","","","","","","0","0","1","","0.2180431119","0.4","0.6","0.2","0.8","0.2180431119","0.08388143876","0.1597004976","0.4875162112","","","","","","","","","","","","","","72","H","0","img/none_selected.jpg","","2","main_expt",""
"","bandit","82","350813","0.0-44.0-0.0","43549415","wem/bandit_party_1","AH4S22PWE826G","either","3","208","","","","","","","0","0","1","","0.06528774038","0.4","0.6","0.2","0.8","0.2294217256","0.06528774038","0.1381850853","0.4909945117","","","","","","","","","","","","","","74","J","1","","","3","main_expt",""
"","bandit","83","352685","0.0-45.0-0.0","43549415","wem/bandit_party_1","AH4S22PWE826G","either","3","368","","","","","","","0","0","1","","0.1787932262","0.4","0.6","0.2","0.8","0.2162119515","0.07987899881","0.1787932262","0.482579304","","","","","","","","","","","","","","75","K","2","","","4","main_expt",""
"","bandit","84","354373","0.0-46.0-0.0","43549415","wem/bandit_party_1","AH4S22PWE826G","either","3","183","","","","","","","1","0","0","0.4887913002","","0.4","0.6","0.2","0.8","","","","","0.2246316054","0.0432391811","0.1795032464","0.4887913002","","","","","","","","","","76","L","3","","","5","main_expt",""
"","bandit","85","356107","0.0-47.0-0.0","43549415","wem/bandit_party_1","AH4S22PWE826G","either","3","232","","","","","","","0","0","1","0.4887860333","","0.4","0.6","0.2","0.8","","","","","0.2061018479","0.03467601655","0.164375756","0.4887860333","","","","","","","","","","76","L","3","","","6","main_expt",""
"","bandit","86","357812","0.0-48.0-0.0","43549415","wem/bandit_party_1","AH4S22PWE826G","either","3","201","","","","","","","0","0","1","","0.4901971563","0.4","0.6","0.2","0.8","0.1795347326","0.05033951668","0.204957223","0.4901971563","","","","","","","","","","","","","","76","L","3","","","7","main_expt",""
"","bandit","87","359517","0.0-49.0-0.0","43549415","wem/bandit_party_1","AH4S22PWE826G","either","3","201","","","","","","","0","0","1","","0.2162036531","0.4","0.6","0.2","0.8","0.1290452752","0.07676355645","0.2162036531","0.4862230721","","","","","","","","","","","","","","75","K","2","","","8","main_expt",""
"","bandit","88","361093","0.0-50.0-0.0","43549415","wem/bandit_party_1","AH4S22PWE826G","either","3","71","","","","","","","0","0","1","0.08620859221","","0.4","0.6","0.2","0.8","","","","","0.1559184374","0.08620859221","0.2167418122","0.4759730645","","","","","","","","","","74","J","1","","","9","main_expt",""
"","bandit","89","362701","0.0-51.0-0.0","43549415","wem/bandit_party_1","AH4S22PWE826G","either","3","102","","","","","","","0","0","1","","0.1381514788","0.4","0.6","0.2","0.8","0.1381514788","0.1103839657","0.1607923637","0.4560980466","","","","","","","","","","","","","","72","H","0","img/none_selected.jpg","","10","main_expt",""
"","bandit","90","364757","0.0-52.0-0.0","43549415","wem/bandit_party_1","AH4S22PWE826G","either","3","551","","","","","","","1","0","0","0.4775116046","","0.4","0.6","0.2","0.8","","","","","0.1271140015","0.1334948588","0.1386410957","0.4775116046","","","","","","","","","","76","L","3","","","11","main_expt",""
"","bandit","91","366508","0.0-53.0-0.0","43549415","wem/bandit_party_1","AH4S22PWE826G","either","3","247","","","","","","","0","0","1","0.4705073552","","0.4","0.6","0.2","0.8","","","","","0.1854664659","0.1535602519","0.1718380738","0.4705073552","","","","","","","","","","76","L","3","","","12","main_expt",""
"","bandit","92","368222","0.0-54.0-0.0","43549415","wem/bandit_party_1","AH4S22PWE826G","either","3","208","","","","","","","0","0","1","0.4851887342","","0.4","0.6","0.2","0.8","","","","","0.1869952656","0.127854239","0.1686303413","0.4851887342","","","","","","","","","","76","L","3","","","13","main_expt",""
"","bandit","93","369941","0.0-55.0-0.0","43549415","wem/bandit_party_1","AH4S22PWE826G","either","3","214","","","","","","","0","0","1","0.4731273917","","0.4","0.6","0.2","0.8","","","","","0.2035171393","0.1507911491","0.1460019496","0.4731273917","","","","","","","","","","76","L","3","","","14","main_expt",""
"","bandit","94","371596","0.0-56.0-0.0","43549415","wem/bandit_party_1","AH4S22PWE826G","either","3","151","","","","","","","0","0","1","","0.1667614464","0.4","0.6","0.2","0.8","0.2800299461","0.1741212098","0.1667614464","0.4585867004","","","","","","","","","","","","","","75","K","2","","","15","main_expt",""
"","bandit","95","373299","0.0-57.0-0.0","43549415","wem/bandit_party_1","AH4S22PWE826G","either","3","200","","","","","","","1","0","0","0.1918308831","","0.4","0.6","0.2","0.8","","","","","0.2725454461","0.1918308831","0.1973644546","0.4366533258","","","","","","","","","","74","J","1","","","16","main_expt",""
"","bandit","96","374955","0.0-58.0-0.0","43549415","wem/bandit_party_1","AH4S22PWE826G","either","3","152","","","","","","","0","0","1","0.1950212473","","0.4","0.6","0.2","0.8","","","","","0.1570621471","0.1950212473","0.1873415792","0.4405228744","","","","","","","","","","74","J","1","","","17","main_expt",""
"","bandit","97","376604","0.0-59.0-0.0","43549415","wem/bandit_party_1","AH4S22PWE826G","either","3","145","","","","","","","0","0","1","","0.2094813194","0.4","0.6","0.2","0.8","0.1968188506","0.2094813194","0.1875860444","0.4678551263","","","","","","","","","","","","","","74","J","1","","","18","main_expt",""
"","bandit","98","378243","0.0-60.0-0.0","43549415","wem/bandit_party_1","AH4S22PWE826G","either","3","135","","","","","","","0","0","1","0.2628959394","","0.4","0.6","0.2","0.8","","","","","0.2439518204","0.2628959394","0.1988439388","0.466140525","","","","","","","","","","74","J","1","","","19","main_expt",""
"","bandit","99","379914","0.0-61.0-0.0","43549415","wem/bandit_party_1","AH4S22PWE826G","either","3","168","","","","","","","1","0","0","0.2806117898","","0.4","0.6","0.2","0.8","","","","","0.2806117898","0.2116504525","0.1813993393","0.4094087999","","","","","","","","","","72","H","0","img/none_selected.jpg","","20","main_expt",""
"","bandit","100","381564","0.0-62.0-0.0","43549415","wem/bandit_party_1","AH4S22PWE826G","either","3","146","","","","","","","0","0","1","0.2658005831","","0.4","0.6","0.2","0.8","","","","","0.2658005831","0.1904426465","0.2012004452","0.4386974508","","","","","","","","","","72","H","0","img/none_selected.jpg","","21","main_expt",""
"","bandit","101","383259","0.0-63.0-0.0","43549415","wem/bandit_party_1","AH4S22PWE826G","either","3","191","","","","","","","0","0","1","","0.2774390086","0.4","0.6","0.2","0.8","0.2774390086","0.1581796968","0.1958646163","0.4505723784","","","","","","","","","","","","","","72","H","0","img/none_selected.jpg","","22","main_expt",""
"","bandit","102","384891","0.0-64.0-0.0","43549415","wem/bandit_party_1","AH4S22PWE826G","either","3","128","","","","","","","0","0","1","","0.2795917474","0.4","0.6","0.2","0.8","0.2795917474","0.2039009352","0.2626819079","0.4568000239","","","","","","","","","","","","","","72","H","0","img/none_selected.jpg","","23","main_expt",""
"","bandit","103","386555","0.0-65.0-0.0","43549415","wem/bandit_party_1","AH4S22PWE826G","either","3","160","","","","","","","0","0","1","","0.2906682881","0.4","0.6","0.2","0.8","0.2981059477","0.228339491","0.2906682881","0.4518339256","","","","","","","","","","","","","","75","K","2","","","24","main_expt",""
"","bandit","104","388259","0.0-66.0-0.0","43549415","wem/bandit_party_1","AH4S22PWE826G","either","3","200","","","","","","","0","1","0","","0.2602465224","0.4","0.6","0.2","0.8","0.3272059922","0.2602465224","0.3270173502","0.4120159309","","","","","","","","","","","","","","74","J","1","","","25","main_expt",""
"","bandit","105","389852","0.0-67.0-0.0","43549415","wem/bandit_party_1","AH4S22PWE826G","either","3","88","","","","","","","0","1","0","","0.1939420306","0.4","0.6","0.2","0.8","0.3369826645","0.1939420306","0.2951289915","0.4134154185","","","","","","","","","","","","","","74","J","1","","","26","main_expt",""
"","bandit","106","391508","0.0-68.0-0.0","43549415","wem/bandit_party_1","AH4S22PWE826G","either","3","151","","","","","","","0","0","1","0.2387331149","","0.4","0.6","0.2","0.8","","","","","0.2531212506","0.2387331149","0.3520126272","0.4031068294","","","","","","","","","","74","J","1","","","27","main_expt",""
"","bandit","107","393084","0.0-69.0-0.0","43549415","wem/bandit_party_1","AH4S22PWE826G","either","3","72","","","","","","","0","0","1","0.2183458617","","0.4","0.6","0.2","0.8","","","","","0.2170461037","0.2183458617","0.3369287003","0.4305883772","","","","","","","","","","74","J","1","","","28","main_expt",""
"","bandit","108","394989","0.0-70.0-0.0","43549415","wem/bandit_party_1","AH4S22PWE826G","either","3","399","","","","","","","0","0","1","","0.4383329838","0.4","0.6","0.2","0.8","0.2346211465","0.2151501268","0.3591799128","0.4383329838","","","","","","","","","","","","","","76","L","3","","","29","main_expt",""
"","bandit","109","397259","0.0-71.0-0.0","43549415","wem/bandit_party_1","AH4S22PWE826G","either","3","767","","","","","","","1","0","0","0.4233276099","","0.4","0.6","0.2","0.8","","","","","0.2450860663","0.2267233056","0.3324285477","0.4233276099","","","","","","","","","","76","L","3","","","30","main_expt",""
"","bandit","110","398884","0.0-72.0-0.0","43549415","wem/bandit_party_1","AH4S22PWE826G","either","3","120","","","","","","","0","0","1","0.4016185005","","0.4","0.6","0.2","0.8","","","","","0.2141169407","0.2663701676","0.327032362","0.4016185005","","","","","","","","","","76","L","3","","","31","main_expt",""
"","bandit","111","400459","0.0-73.0-0.0","43549415","wem/bandit_party_1","AH4S22PWE826G","either","3","71","","","","","","","0","0","1","0.4134940178","","0.4","0.6","0.2","0.8","","","","","0.2347854155","0.275969473","0.3230905041","0.4134940178","","","","","","","","","","76","L","3","","","32","main_expt",""
"","bandit","112","402092","0.0-74.0-0.0","43549415","wem/bandit_party_1","AH4S22PWE826G","either","3","128","","","","","","","0","1","0","","0.4331174495","0.4","0.6","0.2","0.8","0.246596708","0.3365270118","0.2969008969","0.4331174495","","","","","","","","","","","","","","76","L","3","","","33","main_expt",""
"","bandit","113","403756","0.0-75.0-0.0","43549415","wem/bandit_party_1","AH4S22PWE826G","either","3","160","","","","","","","1","0","0","0.4454497031","","0.4","0.6","0.2","0.8","","","","","0.1914370393","0.2916301021","0.2536392951","0.4454497031","","","","","","","","","","76","L","3","","","34","main_expt",""
"","bandit","114","405403","0.0-76.0-0.0","43549415","wem/bandit_party_1","AH4S22PWE826G","either","3","142","","","","","","","0","1","0","","0.4419706984","0.4","0.6","0.2","0.8","0.1408207185","0.3236538836","0.2336030597","0.4419706984","","","","","","","","","","","","","","76","L","3","","","35","main_expt",""
"","bandit","115","407051","0.0-77.0-0.0","43549415","wem/bandit_party_1","AH4S22PWE826G","either","3","144","","","","","","","1","0","0","0.4205940312","","0.4","0.6","0.2","0.8","","","","","0.09539735145","0.3317439785","0.3110392291","0.4205940312","","","","","","","","","","76","L","3","","","36","main_expt",""
"","bandit","116","408675","0.0-78.0-0.0","43549415","wem/bandit_party_1","AH4S22PWE826G","either","3","121","","","","","","","1","0","0","0.4227305347","","0.4","0.6","0.2","0.8","","","","","0.08867332122","0.3620900841","0.3354302382","0.4227305347","","","","","","","","","","76","L","3","","","37","main_expt",""
"","bandit","117","410355","0.0-79.0-0.0","43549415","wem/bandit_party_1","AH4S22PWE826G","either","3","176","","","","","","","0","0","1","0.3904174821","","0.4","0.6","0.2","0.8","","","","","0.0804097964","0.3649119955","0.3359947902","0.3904174821","","","","","","","","","","76","L","3","","","38","main_expt",""
"","bandit","118","411955","0.0-80.0-0.0","43549415","wem/bandit_party_1","AH4S22PWE826G","either","3","96","","","","","","","0","0","1","0.3704092514","","0.4","0.6","0.2","0.8","","","","","0.1092906338","0.3993258453","0.3719467902","0.3704092514","","","","","","","","","","76","L","3","","","39","main_expt",""
"","bandit","119","413571","0.0-81.0-0.0","43549415","wem/bandit_party_1","AH4S22PWE826G","either","3","112","","","","","","","1","0","0","0.3250394812","","0.4","0.6","0.2","0.8","","","","","0.08771014895","0.43145226","0.37180955","0.3250394812","","","","","","","","","","76","L","3","","","40","main_expt",""
"","bandit","120","415212","0.0-82.0-0.0","43549415","wem/bandit_party_1","AH4S22PWE826G","either","3","138","","","","","","","0","0","1","0.3633775572","","0.4","0.6","0.2","0.8","","","","","0.1065106481","0.3925837484","0.3972707938","0.3633775572","","","","","","","","","","76","L","3","","","41","main_expt",""
"","bandit","121","416756","0.0-83.0-0.0","43549415","wem/bandit_party_1","AH4S22PWE826G","either","3","39","","","","","","","0","0","1","0.3708570881","","0.4","0.6","0.2","0.8","","","","","0.0926848955","0.4020613291","0.3981555674","0.3708570881","","","","","","","","","","76","L","3","","","42","main_expt",""
"","bandit","122","418659","0.0-84.0-0.0","43549415","wem/bandit_party_1","AH4S22PWE826G","either","3","399","","","","","","","1","0","0","0.3852030547","","0.4","0.6","0.2","0.8","","","","","0.09213729174","0.4199094288","0.3698022864","0.3852030547","","","","","","","","","","76","L","3","","","43","main_expt",""
"","bandit","123","420347","0.0-85.0-0.0","43549415","wem/bandit_party_1","AH4S22PWE826G","either","3","184","","","","","","","0","1","0","","0.3653477133","0.4","0.6","0.2","0.8","0.0950319608","0.4362917367","0.3278340923","0.3653477133","","","","","","","","","","","","","","76","L","3","","","44","main_expt",""
"","bandit","124","422051","0.0-86.0-0.0","43549415","wem/bandit_party_1","AH4S22PWE826G","either","3","200","","","","","","","0","0","1","0.3423722135","","0.4","0.6","0.2","0.8","","","","","0.07917944011","0.4310393502","0.4004869948","0.3423722135","","","","","","","","","","76","L","3","","","45","main_expt",""
"","bandit","125","423627","0.0-87.0-0.0","43549415","wem/bandit_party_1","AH4S22PWE826G","either","3","72","","","","","","","0","0","1","","0.2713785315","0.4","0.6","0.2","0.8","0.08528552535","0.4301719659","0.4389658195","0.2713785315","","","","","","","","","","","","","","76","L","3","","","46","main_expt",""
"","bandit","126","425148","0.0-88.0-0.0","43549415","wem/bandit_party_1","AH4S22PWE826G","either","3","16","","","","","","","0","0","1","0.2675382036","","0.4","0.6","0.2","0.8","","","","","0.08303267599","0.4274268526","0.4294918489","0.2675382036","","","","","","","","","","76","L","3","","","47","main_expt",""
"","bandit","127","426924","0.0-89.0-0.0","43549415","wem/bandit_party_1","AH4S22PWE826G","either","3","271","","","","","","","0","0","1","","0.1183490009","0.4","0.6","0.2","0.8","0.1183490009","0.4559220927","0.3948346084","0.3006553151","","","","","","","","","","","","","","72","H","0","img/none_selected.jpg","","48","main_expt",""
"","bandit","128","428739","0.0-90.0-0.0","43549415","wem/bandit_party_1","AH4S22PWE826G","either","3","311","","","","","","","0","0","1","0.09831357925","","0.4","0.6","0.2","0.8","","","","","0.09831357925","0.4362936898","0.4226663974","0.2865645246","","","","","","","","","","72","H","0","img/none_selected.jpg","","49","main_expt",""
"","bandit","129","430332","0.0-91.0-0.0","43549415","wem/bandit_party_1","AH4S22PWE826G","either","3","88","","","","","","","0","0","1","0.0896163698","","0.4","0.6","0.2","0.8","","","","","0.0896163698","0.4001593617","0.3943232949","0.2842330123","","","","","","","","","","72","H","0","img/none_selected.jpg","","50","main_expt",""
"","bandit","130","432131","0.0-92.0-0.0","43549415","wem/bandit_party_1","AH4S22PWE826G","either","3","295","","","","","","","0","0","1","0.3737598101","","0.4","0.6","0.2","0.8","","","","","0.08239790895","0.3737598101","0.3911898034","0.2933637591","","","","","","","","","","74","J","1","","","51","main_expt",""
"","bandit","131","433891","0.0-93.0-0.0","43549415","wem/bandit_party_1","AH4S22PWE826G","either","3","256","","","","","","","0","0","1","","0.3490564905","0.4","0.6","0.2","0.8","0.06509061927","0.3490564905","0.3897106723","0.2802127762","","","","","","","","","","","","","","74","J","1","","","52","main_expt",""
"","bandit","132","437629","0.0-94.0-0.0","43549415","wem/bandit_party_1","AH4S22PWE826G","either","3","2233","","","","","","","1","0","0","0.3606416198","","0.4","0.6","0.2","0.8","","","","","0.05503049918","0.3606416198","0.3977919118","0.2567133084","","","","","","","","","","74","J","1","","","53","main_expt",""
"","bandit","133","439164","0.0-95.0-0.0","43549415","wem/bandit_party_1","AH4S22PWE826G","either","3","30","","","","","","","0","0","1","0.3920172378","","0.4","0.6","0.2","0.8","","","","","0.06606451817","0.3920172378","0.3803623479","0.304436262","","","","","","","","","","74","J","1","","","54","main_expt",""
"","bandit","134","440988","0.0-96.0-0.0","43549415","wem/bandit_party_1","AH4S22PWE826G","either","3","319","","","","","","","0","0","1","0.3841867886","","0.4","0.6","0.2","0.8","","","","","0.0812436444","0.3841867886","0.3898030924","0.3050376594","","","","","","","","","","74","J","1","","","55","main_expt",""
"","bandit","135","442907","0.0-97.0-0.0","43549415","wem/bandit_party_1","AH4S22PWE826G","either","3","415","","","","","","","0","0","1","","0.3752679739","0.4","0.6","0.2","0.8","0.05752214818","0.3752679739","0.4332266089","0.2874076515","","","","","","","","","","","","","","74","J","1","","","56","main_expt",""
"","bandit","136","444636","0.0-98.0-0.0","43549415","wem/bandit_party_1","AH4S22PWE826G","either","3","225","","","","","","","0","0","1","","0.4598680415","0.4","0.6","0.2","0.8","0.05957573693","0.3595388075","0.4598680415","0.2633226407","","","","","","","","","","","","","","75","K","2","","","57","main_expt",""
"","bandit","137","446372","0.0-99.0-0.0","43549415","wem/bandit_party_1","AH4S22PWE826G","either","3","231","","","","","","","0","0","1","0.4510058242","","0.4","0.6","0.2","0.8","","","","","0.08347810371","0.2926617498","0.4510058242","0.282557186","","","","","","","","","","75","K","2","","","58","main_expt",""
"","bandit","138","447981","0.0-100.0-0.0","43549415","wem/bandit_party_1","AH4S22PWE826G","either","3","104","","","","","","","0","1","0","","0.4587464736","0.4","0.6","0.2","0.8","0.1166757522","0.2854140482","0.4587464736","0.2675679041","","","","","","","","","","","","","","75","K","2","","","59","main_expt",""
"","bandit","139","449668","0.0-101.0-0.0","43549415","wem/bandit_party_1","AH4S22PWE826G","either","3","182","","","","","","","0","1","0","","0.4534111386","0.4","0.6","0.2","0.8","0.1223048521","0.2767785787","0.4534111386","0.2654645802","","","","","","","","","","","","","","75","K","2","","","60","main_expt",""
"","bandit","140","451283","0.0-102.0-0.0","43549415","wem/bandit_party_1","AH4S22PWE826G","either","3","111","","","","","","","0","1","0","","0.4581751116","0.4","0.6","0.2","0.8","0.1341525672","0.3110110239","0.4581751116","0.2326588137","","","","","","","","","","","","","","75","K","2","","","61","main_expt",""
"","bandit","141","452971","0.0-103.0-0.0","43549415","wem/bandit_party_1","AH4S22PWE826G","either","3","184","","","","","","","0","1","0","","0.4447189615","0.4","0.6","0.2","0.8","0.1748443247","0.2739379344","0.4447189615","0.2430345153","","","","","","","","","","","","","","75","K","2","","","62","main_expt",""
"","bandit","142","454620","0.0-104.0-0.0","43549415","wem/bandit_party_1","AH4S22PWE826G","either","3","144","","","","","","","0","1","0","","0.4351057758","0.4","0.6","0.2","0.8","0.1872250423","0.2518438402","0.4351057758","0.2682261916","","","","","","","","","","","","","","75","K","2","","","63","main_expt",""
"","bandit","143","456243","0.0-105.0-0.0","43549415","wem/bandit_party_1","AH4S22PWE826G","either","3","118","","","","","","","0","1","0","","0.4559228662","0.4","0.6","0.2","0.8","0.1592276408","0.216118181","0.4559228662","0.3136585585","","","","","","","","","","","","","","75","K","2","","","64","main_expt",""
"","bandit","144","457907","0.0-106.0-0.0","43549415","wem/bandit_party_1","AH4S22PWE826G","either","3","160","","","","","","","0","0","1","0.4526438492","","0.4","0.6","0.2","0.8","","","","","0.1881419285","0.1961712117","0.4526438492","0.3208042698","","","","","","","","","","75","K","2","","","65","main_expt",""
"","bandit","145","459492","0.0-107.0-0.0","43549415","wem/bandit_party_1","AH4S22PWE826G","either","3","81","","","","","","","0","0","1","0.4604690516","","0.4","0.6","0.2","0.8","","","","","0.2075830042","0.1821057022","0.4604690516","0.3550213758","","","","","","","","","","75","K","2","","","66","main_expt",""
"","bandit","146","461179","0.0-108.0-0.0","43549415","wem/bandit_party_1","AH4S22PWE826G","either","3","183","","","","","","","0","0","1","0.4479534522","","0.4","0.6","0.2","0.8","","","","","0.210321401","0.2221692745","0.4479534522","0.2883445083","","","","","","","","","","75","K","2","","","67","main_expt",""
"","bandit","147","462787","0.0-109.0-0.0","43549415","wem/bandit_party_1","AH4S22PWE826G","either","3","104","","","","","","","1","0","0","0.2492112051","","0.4","0.6","0.2","0.8","","","","","0.1740681144","0.2385328342","0.4420076102","0.2492112051","","","","","","","","","","76","L","3","","","68","main_expt",""
"","bandit","148","464659","0.0-110.0-0.0","43549415","wem/bandit_party_1","AH4S22PWE826G","either","3","368","","","","","","","0","0","1","0.1725364023","","0.4","0.6","0.2","0.8","","","","","0.1495678232","0.2693988132","0.3840886122","0.1725364023","","","","","","","","","","76","L","3","","","69","main_expt",""
"","bandit","149","466371","0.0-111.0-0.0","43549415","wem/bandit_party_1","AH4S22PWE826G","either","3","208","","","","","","","0","0","1","0.2081322216","","0.4","0.6","0.2","0.8","","","","","0.1594524764","0.2633889128","0.3764426572","0.2081322216","","","","","","","","","","76","L","3","","","70","main_expt",""
"","bandit","150","467915","0.0-112.0-0.0","43549415","wem/bandit_party_1","AH4S22PWE826G","either","3","40","","","","","","","0","1","0","","0.2222096595","0.4","0.6","0.2","0.8","0.1308665948","0.2881785301","0.3925575972","0.2222096595","","","","","","","","","","","","","","76","L","3","","","71","main_expt",""
"","bandit","151","469620","0.0-113.0-0.0","43549415","wem/bandit_party_1","AH4S22PWE826G","either","3","201","","","","","","","0","0","1","0.2276413934","","0.4","0.6","0.2","0.8","","","","","0.1413665491","0.3496752211","0.4055717031","0.2276413934","","","","","","","","","","76","L","3","","","72","main_expt",""
"","bandit","152","471339","0.0-114.0-0.0","43549415","wem/bandit_party_1","AH4S22PWE826G","either","3","215","","","","","","","0","0","1","0.202726327","","0.4","0.6","0.2","0.8","","","","","0.1562096843","0.3662649551","0.4313753627","0.202726327","","","","","","","","","","76","L","3","","","73","main_expt",""
"","bandit","153","472980","0.0-115.0-0.0","43549415","wem/bandit_party_1","AH4S22PWE826G","either","3","136","","","","","","","0","0","1","","0.2465356434","0.4","0.6","0.2","0.8","0.1601549975","0.3318597218","0.4294283137","0.2465356434","","","","","","","","","","","","","","76","L","3","","","74","main_expt",""
"","bandit","154","474643","0.0-116.0-0.0","43549415","wem/bandit_party_1","AH4S22PWE826G","either","3","159","","","","","","","0","0","1","","0.1962365409","0.4","0.6","0.2","0.8","0.1962365409","0.3129946244","0.4114775526","0.2780880013","","","","","","","","","","","","","","72","H","0","img/none_selected.jpg","","75","main_expt",""
"","bandit","155","476379","0.0-117.0-0.0","43549415","wem/bandit_party_1","AH4S22PWE826G","either","3","232","","","","","","","1","0","0","0.2315068675","","0.4","0.6","0.2","0.8","","","","","0.2315068675","0.3299880354","0.4038916894","0.230570622","","","","","","","","","","72","H","0","img/none_selected.jpg","","76","main_expt",""
"","bandit","156","478123","0.0-118.0-0.0","43549415","wem/bandit_party_1","AH4S22PWE826G","either","3","240","","","","","","","0","0","1","0.1749603823","","0.4","0.6","0.2","0.8","","","","","0.1749603823","0.2704336052","0.4028298088","0.1747897532","","","","","","","","","","72","H","0","img/none_selected.jpg","","77","main_expt",""
"","bandit","157","479819","0.0-119.0-0.0","43549415","wem/bandit_party_1","AH4S22PWE826G","either","3","193","","","","","","","0","0","1","0.2091975686","","0.4","0.6","0.2","0.8","","","","","0.2091975686","0.2489008917","0.4004321452","0.2009150394","","","","","","","","","","72","H","0","img/none_selected.jpg","","78","main_expt",""
"","bandit","158","481451","0.0-120.0-0.0","43549415","wem/bandit_party_1","AH4S22PWE826G","either","3","128","","","","","","","0","0","1","0.2699334682","","0.4","0.6","0.2","0.8","","","","","0.2699334682","0.2182462247","0.3909827091","0.2090883318","","","","","","","","","","72","H","0","img/none_selected.jpg","","79","main_expt",""
"","bandit","159","483059","0.0-121.0-0.0","43549415","wem/bandit_party_1","AH4S22PWE826G","either","3","104","","","","","","","0","0","1","0.1591694045","","0.4","0.6","0.2","0.8","","","","","0.2712134299","0.1591694045","0.4289339141","0.215522018","","","","","","","","","","74","J","1","","","80","main_expt",""
"","bandit","160","484819","0.0-122.0-0.0","43549415","wem/bandit_party_1","AH4S22PWE826G","either","3","256","","","","","","","0","0","1","","0.1661146317","0.4","0.6","0.2","0.8","0.2563236188","0.1661146317","0.4256341571","0.2655955182","","","","","","","","","","","","","","74","J","1","","","81","main_expt",""
"","bandit","161","486563","0.0-123.0-0.0","43549415","wem/bandit_party_1","AH4S22PWE826G","either","3","240","","","","","","","1","0","0","0.2249160828","","0.4","0.6","0.2","0.8","","","","","0.2474856626","0.2249160828","0.4153375647","0.2642342948","","","","","","","","","","74","J","1","","","82","main_expt",""
"","bandit","162","488115","0.0-124.0-0.0","43549415","wem/bandit_party_1","AH4S22PWE826G","either","3","47","","","","","","","0","0","1","","0.2194800234","0.4","0.6","0.2","0.8","0.2338037125","0.2194800234","0.4239102097","0.2615040017","","","","","","","","","","","","","","74","J","1","","","83","main_expt",""
"","bandit","163","489732","0.0-125.0-0.0","43549415","wem/bandit_party_1","AH4S22PWE826G","either","3","111","","","","","","","0","0","1","0.2020024956","","0.4","0.6","0.2","0.8","","","","","0.2929655049","0.2020024956","0.4021041833","0.3136368113","","","","","","","","","","74","J","1","","","84","main_expt",""
"","bandit","164","491619","0.0-126.0-0.0","43549415","wem/bandit_party_1","AH4S22PWE826G","either","3","383","","","","","","","0","0","1","0.1639230135","","0.4","0.6","0.2","0.8","","","","","0.2755572306","0.1639230135","0.4322374594","0.2433538552","","","","","","","","","","74","J","1","","","85","main_expt",""
"","bandit","165","493283","0.0-127.0-0.0","43549415","wem/bandit_party_1","AH4S22PWE826G","either","3","159","","","","","","","0","0","1","","0.4247618508","0.4","0.6","0.2","0.8","0.2706615249","0.1423092638","0.4247618508","0.2583740773","","","","","","","","","","","","","","75","K","2","","","86","main_expt",""
"","bandit","166","494924","0.0-128.0-0.0","43549415","wem/bandit_party_1","AH4S22PWE826G","either","3","135","","","","","","","0","1","0","","0.4130492334","0.4","0.6","0.2","0.8","0.3259805539","0.1623313408","0.4130492334","0.2656778135","","","","","","","","","","","","","","75","K","2","","","87","main_expt",""
"","bandit","167","496587","0.0-129.0-0.0","43549415","wem/bandit_party_1","AH4S22PWE826G","either","3","159","","","","","","","0","0","1","","0.3883747858","0.4","0.6","0.2","0.8","0.3471137027","0.1459946163","0.3883747858","0.2565525481","","","","","","","","","","","","","","75","K","2","","","88","main_expt",""
"","bandit","168","498331","0.0-130.0-0.0","43549415","wem/bandit_party_1","AH4S22PWE826G","either","3","239","","","","","","","0","0","1","","0.3950807547","0.4","0.6","0.2","0.8","0.3715311126","0.1684807643","0.3950807547","0.2471999074","","","","","","","","","","","","","","75","K","2","","","89","main_expt",""
"","bandit","169","499988","0.0-131.0-0.0","43549415","wem/bandit_party_1","AH4S22PWE826G","either","3","152","","","","","","","0","1","0","","0.420982679","0.4","0.6","0.2","0.8","0.3571728809","0.1937692241","0.420982679","0.2204199549","","","","","","","","","","","","","","75","K","2","","","90","main_expt",""
"","bandit","170","501660","0.0-132.0-0.0","43549415","wem/bandit_party_1","AH4S22PWE826G","either","3","166","","","","","","","0","1","0","","0.4012606491","0.4","0.6","0.2","0.8","0.3348642023","0.1670397906","0.4012606491","0.2013548925","","","","","","","","","","","","","","75","K","2","","","91","main_expt",""
"","bandit","171","503371","0.0-133.0-0.0","43549415","wem/bandit_party_1","AH4S22PWE826G","either","3","206","","","","","","","0","0","1","","0.3950870333","0.4","0.6","0.2","0.8","0.3551195155","0.1936095216","0.3950870333","0.174921714","","","","","","","","","","","","","","75","K","2","","","92","main_expt",""
"","bandit","172","505067","0.0-134.0-0.0","43549415","wem/bandit_party_1","AH4S22PWE826G","either","3","192","","","","","","","0","1","0","","0.3797372222","0.4","0.6","0.2","0.8","0.3494458231","0.2399824117","0.3797372222","0.1972058505","","","","","","","","","","","","","","75","K","2","","","93","main_expt",""
"","bandit","173","506867","0.0-135.0-0.0","43549415","wem/bandit_party_1","AH4S22PWE826G","either","3","295","","","","","","","0","1","0","","0.3346339076","0.4","0.6","0.2","0.8","0.3759818745","0.242536602","0.3346339076","0.2144007407","","","","","","","","","","","","","","75","K","2","","","94","main_expt",""
"","bandit","174","508523","0.0-136.0-0.0","43549415","wem/bandit_party_1","AH4S22PWE826G","either","3","151","","","","","","","0","0","1","0.3433005441","","0.4","0.6","0.2","0.8","","","","","0.3467088588","0.3081296623","0.3433005441","0.2025691914","","","","","","","","","","75","K","2","","","95","main_expt",""
"","bandit","175","510235","0.0-137.0-0.0","43549415","wem/bandit_party_1","AH4S22PWE826G","either","3","207","","","","","","","0","1","0","","0.2900415689","0.4","0.6","0.2","0.8","0.3520186383","0.371766452","0.2900415689","0.1750118246","","","","","","","","","","","","","","75","K","2","","","96","main_expt",""
"","bandit","176","511876","0.0-138.0-0.0","43549415","wem/bandit_party_1","AH4S22PWE826G","either","3","137","","","","","","","1","0","0","0.3136050561","","0.4","0.6","0.2","0.8","","","","","0.342216001","0.3737721809","0.3136050561","0.2433812568","","","","","","","","","","75","K","2","","","97","main_expt",""
"","bandit","177","513652","0.0-139.0-0.0","43549415","wem/bandit_party_1","AH4S22PWE826G","either","3","271","","","","","","","0","0","1","","0.3236610102","0.4","0.6","0.2","0.8","0.3775958225","0.3662625892","0.3236610102","0.1834100281","","","","","","","","","","","","","","75","K","2","","","98","main_expt",""
"","bandit","178","515267","0.0-140.0-0.0","43549415","wem/bandit_party_1","AH4S22PWE826G","either","3","110","","","","","","","0","0","1","","0.3116662608","0.4","0.6","0.2","0.8","0.3490624926","0.3912879072","0.3116662608","0.146161558","","","","","","","","","","","","","","75","K","2","","","99","main_expt",""
"","bandit","179","516869","0.0-141.0-0.0","43549415","wem/bandit_party_1","AH4S22PWE826G","either","3","96","","","","","","","0","0","1","0.3806420769","","0.4","0.6","0.2","0.8","","","","","0.3418910903","0.3916888764","0.3806420769","0.1186266926","","","","","","","","","","75","K","2","","","100","main_expt",""
"","bandit","180","518579","0.0-142.0-0.0","43549415","wem/bandit_party_1","AH4S22PWE826G","either","3","206","","","","","","","0","0","1","0.1467879228","","0.4","0.6","0.2","0.8","","","","","0.3544055354","0.3803758031","0.3825052475","0.1467879228","","","","","","","","","","76","L","3","","","101","main_expt",""
"","bandit","181","520387","0.0-143.0-0.0","43549415","wem/bandit_party_1","AH4S22PWE826G","either","3","304","","","","","","","0","0","1","0.1336514036","","0.4","0.6","0.2","0.8","","","","","0.3580864163","0.3685266224","0.3799327693","0.1336514036","","","","","","","","","","76","L","3","","","102","main_expt",""
"","bandit","182","522116","0.0-144.0-0.0","43549415","wem/bandit_party_1","AH4S22PWE826G","either","3","225","","","","","","","0","0","1","0.1325092095","","0.4","0.6","0.2","0.8","","","","","0.336528594","0.3754978655","0.3502018886","0.1325092095","","","","","","","","","","76","L","3","","","103","main_expt",""
"","bandit","183","523755","0.0-145.0-0.0","43549415","wem/bandit_party_1","AH4S22PWE826G","either","3","135","","","","","","","0","0","1","0.3190078166","","0.4","0.6","0.2","0.8","","","","","0.3190078166","0.4033056484","0.3443431466","0.1162839287","","","","","","","","","","72","H","0","img/none_selected.jpg","","104","main_expt",""
"","bandit","184","525468","0.0-146.0-0.0","43549415","wem/bandit_party_1","AH4S22PWE826G","either","3","207","","","","","","","0","0","1","","0.3100940773","0.4","0.6","0.2","0.8","0.3100940773","0.3617388181","0.3551378046","0.115620258","","","","","","","","","","","","","","72","H","0","img/none_selected.jpg","","105","main_expt",""
"","bandit","185","527147","0.0-147.0-0.0","43549415","wem/bandit_party_1","AH4S22PWE826G","either","3","175","","","","","","","0","0","1","","0.2964842485","0.4","0.6","0.2","0.8","0.2964842485","0.3656875331","0.3177956882","0.1102569517","","","","","","","","","","","","","","72","H","0","img/none_selected.jpg","","106","main_expt",""
"","bandit","186","528708","0.0-148.0-0.0","43549415","wem/bandit_party_1","AH4S22PWE826G","either","3","56","","","","","","","0","0","1","","0.3478183852","0.4","0.6","0.2","0.8","0.3224579283","0.3478183852","0.3463124521","0.110599846","","","","","","","","","","","","","","74","J","1","","","107","main_expt",""
"","bandit","187","530386","0.0-149.0-0.0","43549415","wem/bandit_party_1","AH4S22PWE826G","either","3","175","","","","","","","0","1","0","","0.3715517583","0.4","0.6","0.2","0.8","0.3365568187","0.3715517583","0.330790185","0.1647947233","","","","","","","","","","","","","","74","J","1","","","108","main_expt",""
"","bandit","188","531987","0.0-150.0-0.0","43549415","wem/bandit_party_1","AH4S22PWE826G","either","3","96","","","","","","","0","0","1","","0.3713851569","0.4","0.6","0.2","0.8","0.3200824859","0.3713851569","0.3259779601","0.146095753","","","","","","","","","","","","","","74","J","1","","","109","main_expt",""
"","bandit","189","533677","0.0-151.0-0.0","43549415","wem/bandit_party_1","AH4S22PWE826G","either","3","185","","","","","","","0","0","1","","0.3401672382","0.4","0.6","0.2","0.8","0.3179471713","0.3401672382","0.3169053314","0.1691954855","","","","","","","","","","","","","","74","J","1","","","110","main_expt",""
"","bandit","190","535339","0.0-152.0-0.0","43549415","wem/bandit_party_1","AH4S22PWE826G","either","3","156","","","","","","","0","0","1","","0.3242328008","0.4","0.6","0.2","0.8","0.3168158386","0.3242328008","0.342138516","0.1690298198","","","","","","","","","","","","","","74","J","1","","","111","main_expt",""
"","bandit","191","537026","0.0-153.0-0.0","43549415","wem/bandit_party_1","AH4S22PWE826G","either","3","184","","","","","","","0","1","0","","0.3597886873","0.4","0.6","0.2","0.8","0.3551606626","0.2991119965","0.3597886873","0.2196992501","","","","","","","","","","","","","","75","K","2","","","112","main_expt",""
"","bandit","192","538596","0.0-154.0-0.0","43549415","wem/bandit_party_1","AH4S22PWE826G","either","3","64","","","","","","","0","0","1","","0.3580549124","0.4","0.6","0.2","0.8","0.3615444015","0.3364281798","0.3580549124","0.2723467559","","","","","","","","","","","","","","75","K","2","","","113","main_expt",""
"","bandit","193","540349","0.0-155.0-0.0","43549415","wem/bandit_party_1","AH4S22PWE826G","either","3","246","","","","","","","0","1","0","","0.3556181037","0.4","0.6","0.2","0.8","0.4043222556","0.3495122724","0.3556181037","0.2470985199","","","","","","","","","","","","","","75","K","2","","","114","main_expt",""
"","bandit","194","542020","0.0-156.0-0.0","43549415","wem/bandit_party_1","AH4S22PWE826G","either","3","166","","","","","","","0","1","0","","0.3489042174","0.4","0.6","0.2","0.8","0.4179696435","0.324938203","0.3489042174","0.2482590513","","","","","","","","","","","","","","75","K","2","","","115","main_expt",""
"","bandit","195","543619","0.0-157.0-0.0","43549415","wem/bandit_party_1","AH4S22PWE826G","either","3","94","","","","","","","0","0","1","","0.3466245191","0.4","0.6","0.2","0.8","0.4324393975","0.3227512736","0.3466245191","0.1992012358","","","","","","","","","","","","","","75","K","2","","","116","main_expt",""
"","bandit","196","545197","0.0-158.0-0.0","43549415","wem/bandit_party_1","AH4S22PWE826G","either","3","73","","","","","","","0","0","1","","0.3581754781","0.4","0.6","0.2","0.8","0.4290779421","0.2585209305","0.3581754781","0.216355905","","","","","","","","","","","","","","75","K","2","","","117","main_expt",""
"","bandit","197","546827","0.0-159.0-0.0","43549415","wem/bandit_party_1","AH4S22PWE826G","either","3","124","","","","","","","0","0","1","0.283939031","","0.4","0.6","0.2","0.8","","","","","0.4459264202","0.2817260076","0.283939031","0.1715453935","","","","","","","","","","75","K","2","","","118","main_expt",""
"","bandit","198","548412","0.0-160.0-0.0","43549415","wem/bandit_party_1","AH4S22PWE826G","either","3","79","","","","","","","0","0","1","0.1843456939","","0.4","0.6","0.2","0.8","","","","","0.436995295","0.328214026","0.2992634423","0.1843456939","","","","","","","","","","76","L","3","","","119","main_expt",""
"","bandit","199","550124","0.0-161.0-0.0","43549415","wem/bandit_party_1","AH4S22PWE826G","either","3","206","","","","","","","0","0","1","0.1848061615","","0.4","0.6","0.2","0.8","","","","","0.4151314625","0.3355603121","0.1878150733","0.1848061615","","","","","","","","","","76","L","3","","","120","main_expt",""
"","bandit","200","551788","0.0-162.0-0.0","43549415","wem/bandit_party_1","AH4S22PWE826G","either","3","159","","","","","","","0","0","1","","0.1679578636","0.4","0.6","0.2","0.8","0.4384064527","0.3829587724","0.1447458933","0.1679578636","","","","","","","","","","","","","","76","L","3","","","121","main_expt",""
"","bandit","201","553443","0.0-163.0-0.0","43549415","wem/bandit_party_1","AH4S22PWE826G","either","3","150","","","","","","","0","1","0","","0.4417589501","0.4","0.6","0.2","0.8","0.4417589501","0.3995678287","0.1176060398","0.197295971","","","","","","","","","","","","","","72","H","0","img/none_selected.jpg","","122","main_expt",""
"","bandit","202","555084","0.0-164.0-0.0","43549415","wem/bandit_party_1","AH4S22PWE826G","either","3","135","","","","","","","0","1","0","","0.4017154396","0.4","0.6","0.2","0.8","0.4017154396","0.3656739583","0.1097677055","0.2184653352","","","","","","","","","","","","","","72","H","0","img/none_selected.jpg","","123","main_expt",""
"","bandit","203","556797","0.0-165.0-0.0","43549415","wem/bandit_party_1","AH4S22PWE826G","either","3","208","","","","","","","0","0","1","","0.3619070526","0.4","0.6","0.2","0.8","0.3619070526","0.3862549257","0.08048168986","0.2147868977","","","","","","","","","","","","","","72","H","0","img/none_selected.jpg","","124","main_expt",""
"","bandit","204","558492","0.0-166.0-0.0","43549415","wem/bandit_party_1","AH4S22PWE826G","either","3","190","","","","","","","0","0","1","","0.3567490645","0.4","0.6","0.2","0.8","0.3567490645","0.3593796239","0.07842900555","0.1667936559","","","","","","","","","","","","","","72","H","0","img/none_selected.jpg","","125","main_expt",""
"","bandit","205","560003","0.0-167.0-0.0","43549415","wem/bandit_party_1","AH4S22PWE826G","either","3","7","","","","","","","0","1","0","","0.3558473019","0.4","0.6","0.2","0.8","0.3558473019","0.3413194209","0.08318363027","0.1453295256","","","","","","","","","","","","","","72","H","0","img/none_selected.jpg","","126","main_expt",""
"","bandit","206","561852","0.0-168.0-0.0","43549415","wem/bandit_party_1","AH4S22PWE826G","either","3","345","","","","","","","0","0","1","0.3543069734","","0.4","0.6","0.2","0.8","","","","","0.3543069734","0.3369929262","0.06812438963","0.1635755653","","","","","","","","","","72","H","0","img/none_selected.jpg","","127","main_expt",""
"","bandit","207","563597","0.0-169.0-0.0","43549415","wem/bandit_party_1","AH4S22PWE826G","either","3","240","","","","","","","0","0","1","","0.3328374851","0.4","0.6","0.2","0.8","0.3328374851","0.2922989636","0.08303766286","0.1872639566","","","","","","","","","","","","","","72","H","0","img/none_selected.jpg","","128","main_expt",""
"","bandit","208","565252","0.0-170.0-0.0","43549415","wem/bandit_party_1","AH4S22PWE826G","either","3","150","","","","","","","0","0","1","","0.3238683282","0.4","0.6","0.2","0.8","0.3238683282","0.3095146075","0.09047360051","0.2032718864","","","","","","","","","","","","","","72","H","0","img/none_selected.jpg","","129","main_expt",""
"","bandit","209","566982","0.0-171.0-0.0","43549415","wem/bandit_party_1","AH4S22PWE826G","either","3","224","","","","","","","0","0","1","0.2750329062","","0.4","0.6","0.2","0.8","","","","","0.2750329062","0.3068425872","0.131542256","0.2025864764","","","","","","","","","","72","H","0","img/none_selected.jpg","","130","main_expt",""
"","bandit","210","568572","0.0-172.0-0.0","43549415","wem/bandit_party_1","AH4S22PWE826G","either","3","86","","","","","","","0","0","1","","0.3112504131","0.4","0.6","0.2","0.8","0.2751886228","0.3112504131","0.1492019489","0.2158584071","","","","","","","","","","","","","","74","J","1","","","131","main_expt",""
"","bandit","211","570628","0.0-173.0-0.0","43549415","wem/bandit_party_1","AH4S22PWE826G","either","3","550","","","","","","","1","0","0","0.3595653039","","0.4","0.6","0.2","0.8","","","","","0.2729729886","0.3595653039","0.1571188116","0.2105840197","","","","","","","","","","74","J","1","","","132","main_expt",""
"","bandit","212","572405","0.0-174.0-0.0","43549415","wem/bandit_party_1","AH4S22PWE826G","either","3","272","","","","","","","1","0","0","0.3873527377","","0.4","0.6","0.2","0.8","","","","","0.3248088544","0.3873527377","0.2021073832","0.2328486735","","","","","","","","","","74","J","1","","","133","main_expt",""
"","bandit","213","574012","0.0-175.0-0.0","43549415","wem/bandit_party_1","AH4S22PWE826G","either","3","102","","","","","","","0","1","0","","0.3973884711","0.4","0.6","0.2","0.8","0.3596446835","0.3973884711","0.2693148074","0.2589092944","","","","","","","","","","","","","","74","J","1","","","134","main_expt",""
"","bandit","214","575772","0.0-176.0-0.0","43549415","wem/bandit_party_1","AH4S22PWE826G","either","3","256","","","","","","","0","0","1","","0.4080523157","0.4","0.6","0.2","0.8","0.318377279","0.4080523157","0.2625780805","0.2637326353","","","","","","","","","","","","","","74","J","1","","","135","main_expt",""
"","bandit","215","579821","0.0-177.0-0.0","43549415","wem/bandit_party_1","AH4S22PWE826G","either","3","2544","","","","","","","1","0","0","0.4176503084","","0.4","0.6","0.2","0.8","","","","","0.3160887017","0.4176503084","0.2981707722","0.2718680576","","","","","","","","","","74","J","1","","","136","main_expt",""
"","bandit","216","582268","0.0-178.0-0.0","43549415","wem/bandit_party_1","AH4S22PWE826G","either","3","942","","","","","","","1","0","0","0.3859803947","","0.4","0.6","0.2","0.8","","","","","0.2883225013","0.3859803947","0.3148158286","0.2919957672","","","","","","","","","","74","J","1","","","137","main_expt",""
"","bandit","217","584037","0.0-179.0-0.0","43549415","wem/bandit_party_1","AH4S22PWE826G","either","3","263","","","","","","","1","0","0","0.358492916","","0.4","0.6","0.2","0.8","","","","","0.3009152141","0.358492916","0.3111523267","0.3193993407","","","","","","","","","","74","J","1","","","138","main_expt",""
"","bandit","218","585580","0.0-180.0-0.0","43549415","wem/bandit_party_1","AH4S22PWE826G","either","3","38","","","","","","","0","0","1","0.3608756281","","0.4","0.6","0.2","0.8","","","","","0.293720077","0.3608756281","0.3034593298","0.3404434035","","","","","","","","","","74","J","1","","","139","main_expt",""
"","bandit","219","587141","0.0-181.0-0.0","43549415","wem/bandit_party_1","AH4S22PWE826G","either","3","56","","","","","","","0","0","1","0.3421836092","","0.4","0.6","0.2","0.8","","","","","0.286059761","0.3421836092","0.2507495005","0.3278052243","","","","","","","","","","74","J","1","","","140","main_expt",""
"","bandit","220","588732","0.0-182.0-0.0","43549415","wem/bandit_party_1","AH4S22PWE826G","either","3","86","","","","","","","1","0","0","0.3737340371","","0.4","0.6","0.2","0.8","","","","","0.2931724706","0.3737340371","0.2220694513","0.3038906839","","","","","","","","","","74","J","1","","","141","main_expt",""
"","bandit","221","590333","0.0-183.0-0.0","43549415","wem/bandit_party_1","AH4S22PWE826G","either","3","95","","","","","","","0","0","1","0.3461121542","","0.4","0.6","0.2","0.8","","","","","0.2182180164","0.3461121542","0.2119249064","0.2924195757","","","","","","","","","","74","J","1","","","142","main_expt",""
"","bandit","222","591989","0.0-184.0-0.0","43549415","wem/bandit_party_1","AH4S22PWE826G","either","3","150","","","","","","","0","0","1","","0.3305931074","0.4","0.6","0.2","0.8","0.2015475508","0.3305931074","0.2665135591","0.2816149275","","","","","","","","","","","","","","74","J","1","","","143","main_expt",""
"","bandit","223","593588","0.0-185.0-0.0","43549415","wem/bandit_party_1","AH4S22PWE826G","either","3","93","","","","","","","0","1","0","","0.3561039987","0.4","0.6","0.2","0.8","0.2074070562","0.3561039987","0.2854155153","0.2355525614","","","","","","","","","","","","","","74","J","1","","","144","main_expt",""
"","bandit","224","595212","0.0-186.0-0.0","43549415","wem/bandit_party_1","AH4S22PWE826G","either","3","120","","","","","","","0","0","1","0.3648023512","","0.4","0.6","0.2","0.8","","","","","0.1415368311","0.3648023512","0.2521048148","0.2185662272","","","","","","","","","","74","J","1","","","145","main_expt",""
"","bandit","225","596812","0.0-187.0-0.0","43549415","wem/bandit_party_1","AH4S22PWE826G","either","3","95","","","","","","","0","0","1","","0.3450315","0.4","0.6","0.2","0.8","0.1549520657","0.3450315","0.2321266643","0.2209315791","","","","","","","","","","","","","","74","J","1","","","146","main_expt",""
"","bandit","226","598446","0.0-188.0-0.0","43549415","wem/bandit_party_1","AH4S22PWE826G","either","3","128","","","","","","","0","1","0","","0.2720321141","0.4","0.6","0.2","0.8","0.1469310363","0.2720321141","0.3159383216","0.2889766311","","","","","","","","","","","","","","74","J","1","","","147","main_expt",""
"","bandit","227","600180","0.0-189.0-0.0","43549415","wem/bandit_party_1","AH4S22PWE826G","either","3","230","","","","","","","0","0","1","","0.2598972664","0.4","0.6","0.2","0.8","0.1332828417","0.2598972664","0.2673485129","0.2859466156","","","","","","","","","","","","","","74","J","1","","","148","main_expt",""
"","bandit","228","601836","0.0-190.0-0.0","43549415","wem/bandit_party_1","AH4S22PWE826G","either","3","151","","","","","","","0","0","1","0.2343157719","","0.4","0.6","0.2","0.8","","","","","0.1102010463","0.2343157719","0.3348600541","0.2588478233","","","","","","","","","","74","J","1","","","149","main_expt",""
"","bandit","229","603524","0.0-191.0-0.0","43549415","wem/bandit_party_1","AH4S22PWE826G","either","3","183","","","","","","","0","0","1","","0.2451363599","0.4","0.6","0.2","0.8","0.1356103494","0.2451363599","0.3659656834","0.2224653457","","","","","","","","","","","","","","74","J","1","","","150","main_expt",""
"","bandit","230","605132","0.0-192.0-0.0","43549415","wem/bandit_party_1","AH4S22PWE826G","either","3","102","","","","","","","0","0","1","","0.36397653","0.4","0.6","0.2","0.8","0.1621229287","0.2053737132","0.36397653","0.2387237716","","","","","","","","","","","","","","75","K","2","","","151","main_expt",""
"","bandit","231","606779","0.0-193.0-0.0","43549415","wem/bandit_party_1","AH4S22PWE826G","either","3","143","","","","","","","0","0","1","0.3710672623","","0.4","0.6","0.2","0.8","","","","","0.1412745606","0.2396242378","0.3710672623","0.2519133504","","","","","","","","","","75","K","2","","","152","main_expt",""
"","bandit","232","608501","0.0-194.0-0.0","43549415","wem/bandit_party_1","AH4S22PWE826G","either","3","217","","","","","","","0","0","1","","0.3828607765","0.4","0.6","0.2","0.8","0.1707580034","0.2923277395","0.3828607765","0.3078499427","","","","","","","","","","","","","","75","K","2","","","153","main_expt",""
"","bandit","233","610148","0.0-195.0-0.0","43549415","wem/bandit_party_1","AH4S22PWE826G","either","3","142","","","","","","","0","0","1","","0.3283820497","0.4","0.6","0.2","0.8","0.1717455462","0.3166515581","0.3526468527","0.3283820497","","","","","","","","","","","","","","76","L","3","","","154","main_expt",""
"","bandit","234","611796","0.0-196.0-0.0","43549415","wem/bandit_party_1","AH4S22PWE826G","either","3","143","","","","","","","0","0","1","0.3303057687","","0.4","0.6","0.2","0.8","","","","","0.1785539081","0.3194616596","0.3865981945","0.3303057687","","","","","","","","","","76","L","3","","","155","main_expt",""
"","bandit","235","613387","0.0-197.0-0.0","43549415","wem/bandit_party_1","AH4S22PWE826G","either","3","87","","","","","","","0","0","1","0.3178912443","","0.4","0.6","0.2","0.8","","","","","0.2175815231","0.3767011333","0.4328422877","0.3178912443","","","","","","","","","","76","L","3","","","156","main_expt",""
"","bandit","236","614894","0.0-198.0-0.0","43549415","wem/bandit_party_1","AH4S22PWE826G","either","3","0","","","","","","","0","0","1","0.216674397","","0.4","0.6","0.2","0.8","","","","","0.216674397","0.3853144204","0.4224906378","0.3236874272","","","","","","","","","","72","H","0","img/none_selected.jpg","","157","main_expt",""
"","bandit","237","616451","0.0-199.0-0.0","43549415","wem/bandit_party_1","AH4S22PWE826G","either","3","52","","","","","","","0","0","1","","0.2184316938","0.4","0.6","0.2","0.8","0.2184316938","0.3519128793","0.4428847078","0.3731337511","","","","","","","","","","","","","","72","H","0","img/none_selected.jpg","","158","main_expt",""
"","bandit","238","617979","0.0-200.0-0.0","43549415","wem/bandit_party_1","AH4S22PWE826G","either","3","23","","","","","","","0","0","1","","0.2603966468","0.4","0.6","0.2","0.8","0.2603966468","0.3255157266","0.4498083842","0.3758107074","","","","","","","","","","","","","","72","H","0","img/none_selected.jpg","","159","main_expt",""
"","bandit","239","619860","0.0-201.0-0.0","43549415","wem/bandit_party_1","AH4S22PWE826G","either","3","376","","","","","","","0","0","1","0.379238532","","0.4","0.6","0.2","0.8","","","","","0.2242017374","0.379238532","0.4319550234","0.3494215766","","","","","","","","","","74","J","1","","","160","main_expt",""
"","bandit","240","621963","0.0-202.0-0.0","43549415","wem/bandit_party_1","AH4S22PWE826G","either","3","598","","","","","","","0","0","1","","0.3776335756","0.4","0.6","0.2","0.8","0.2014027125","0.3776335756","0.4417514389","0.3327111917","","","","","","","","","","","","","","74","J","1","","","161","main_expt",""
"","bandit","241","623707","0.0-203.0-0.0","43549415","wem/bandit_party_1","AH4S22PWE826G","either","3","239","","","","","","","1","0","0","0.2955751891","","0.4","0.6","0.2","0.8","","","","","0.2038621466","0.2955751891","0.4081293495","0.3171011618","","","","","","","","","","74","J","1","","","162","main_expt",""
"","bandit","242","625275","0.0-204.0-0.0","43549415","wem/bandit_party_1","AH4S22PWE826G","either","3","63","","","","","","","0","0","1","0.30851492","","0.4","0.6","0.2","0.8","","","","","0.1238136799","0.30851492","0.4265776113","0.364183239","","","","","","","","","","74","J","1","","","163","main_expt",""
"","bandit","243","626947","0.0-205.0-0.0","43549415","wem/bandit_party_1","AH4S22PWE826G","either","3","167","","","","","","","1","0","0","0.3074756362","","0.4","0.6","0.2","0.8","","","","","0.1104941302","0.3074756362","0.427472809","0.3917374524","","","","","","","","","","74","J","1","","","164","main_expt",""
"","bandit","244","629059","0.0-206.0-0.0","43549415","wem/bandit_party_1","AH4S22PWE826G","either","3","607","","","","","","","0","0","1","0.2743039079","","0.4","0.6","0.2","0.8","","","","","0.1099358877","0.2743039079","0.4016343469","0.3629360172","","","","","","","","","","74","J","1","","","165","main_expt",""
"","bandit","245","630997","0.0-207.0-0.0","43549415","wem/bandit_party_1","AH4S22PWE826G","either","3","431","","","","","","","0","0","1","","0.2900226329","0.4","0.6","0.2","0.8","0.08082918558","0.2900226329","0.3578169927","0.3697042915","","","","","","","","","","","","","","74","J","1","","","166","main_expt",""
"","bandit","246","633013","0.0-208.0-0.0","43549415","wem/bandit_party_1","AH4S22PWE826G","either","3","509","","","","","","","0","1","0","","0.3444017494","0.4","0.6","0.2","0.8","0.08539074978","0.3444017494","0.3346076013","0.3626443337","","","","","","","","","","","","","","74","J","1","","","167","main_expt",""
"","bandit","247","634923","0.0-209.0-0.0","43549415","wem/bandit_party_1","AH4S22PWE826G","either","3","405","","","","","","","1","0","0","0.3934904689","","0.4","0.6","0.2","0.8","","","","","0.1307687804","0.3934904689","0.36326211","0.3488380128","","","","","","","","","","74","J","1","","","168","main_expt",""
"","bandit","248","637307","0.0-210.0-0.0","43549415","wem/bandit_party_1","AH4S22PWE826G","either","3","879","","","","","","","0","0","1","0.3712778229","","0.4","0.6","0.2","0.8","","","","","0.09435724838","0.3712778229","0.3389060657","0.3338465455","","","","","","","","","","74","J","1","","","169","main_expt",""
"","bandit","249","639508","0.0-211.0-0.0","43549415","wem/bandit_party_1","AH4S22PWE826G","either","3","695","","","","","","","0","0","1","0.3348119161","","0.4","0.6","0.2","0.8","","","","","0.09371103674","0.3348119161","0.3820287301","0.3675902536","","","","","","","","","","74","J","1","","","170","main_expt",""
"","bandit","250","641253","0.0-212.0-0.0","43549415","wem/bandit_party_1","AH4S22PWE826G","either","3","238","","","","","","","0","0","1","","0.3697689907","0.4","0.6","0.2","0.8","0.0912992704","0.3697689907","0.3738350687","0.3663425941","","","","","","","","","","","","","","74","J","1","","","171","main_expt",""
"","bandit","251","642794","0.0-213.0-0.0","43549415","wem/bandit_party_1","AH4S22PWE826G","either","3","37","","","","","","","0","0","1","","0.3449486646","0.4","0.6","0.2","0.8","0.1053216192","0.3438364448","0.3449486646","0.3571019768","","","","","","","","","","","","","","75","K","2","","","172","main_expt",""
"","bandit","252","644339","0.0-214.0-0.0","43549415","wem/bandit_party_1","AH4S22PWE826G","either","3","40","","","","","","","1","0","0","0.3754463001","","0.4","0.6","0.2","0.8","","","","","0.1119971747","0.4064517123","0.3754463001","0.383943734","","","","","","","","","","75","K","2","","","173","main_expt",""
"","bandit","253","645956","0.0-215.0-0.0","43549415","wem/bandit_party_1","AH4S22PWE826G","either","3","111","","","","","","","0","0","1","0.3983783957","","0.4","0.6","0.2","0.8","","","","","0.1049574405","0.4266345201","0.3983783957","0.378453819","","","","","","","","","","75","K","2","","","174","main_expt",""
"","bandit","254","647868","0.0-216.0-0.0","43549415","wem/bandit_party_1","AH4S22PWE826G","either","3","406","","","","","","","0","1","0","","0.4176958341","0.4","0.6","0.2","0.8","0.07351671593","0.4413212306","0.4176958341","0.3577460836","","","","","","","","","","","","","","75","K","2","","","175","main_expt",""
"","bandit","255","649667","0.0-217.0-0.0","43549415","wem/bandit_party_1","AH4S22PWE826G","either","3","294","","","","","","","0","0","1","","0.4336280271","0.4","0.6","0.2","0.8","0.06097876817","0.438548454","0.4336280271","0.3346789668","","","","","","","","","","","","","","75","K","2","","","176","main_expt",""
"","bandit","256","651413","0.0-218.0-0.0","43549415","wem/bandit_party_1","AH4S22PWE826G","either","3","240","","","","","","","0","0","1","","0.3863917124","0.4","0.6","0.2","0.8","0.05873143133","0.4350726265","0.3863917124","0.3720341948","","","","","","","","","","","","","","75","K","2","","","177","main_expt",""
"","bandit","257","653260","0.0-219.0-0.0","43549415","wem/bandit_party_1","AH4S22PWE826G","either","3","341","","","","","","","0","1","0","","0.3826512014","0.4","0.6","0.2","0.8","0.07829718294","0.4029859975","0.3826512014","0.4243236705","","","","","","","","","","","","","","75","K","2","","","178","main_expt",""
"","bandit","258","655011","0.0-220.0-0.0","43549415","wem/bandit_party_1","AH4S22PWE826G","either","3","246","","","","","","","0","0","1","0.3681046487","","0.4","0.6","0.2","0.8","","","","","0.05868413977","0.3738585124","0.3681046487","0.4396564102","","","","","","","","","","75","K","2","","","179","main_expt",""
"","bandit","259","656627","0.0-221.0-0.0","43549415","wem/bandit_party_1","AH4S22PWE826G","either","3","111","","","","","","","1","0","0","0.374340785","","0.4","0.6","0.2","0.8","","","","","0.04540529238","0.3884150149","0.374340785","0.4501825932","","","","","","","","","","75","K","2","","","180","main_expt",""
"","bandit","260","658459","0.0-222.0-0.0","43549415","wem/bandit_party_1","AH4S22PWE826G","either","3","327","","","","","","","1","0","0","0.3844034803","","0.4","0.6","0.2","0.8","","","","","0.04810206047","0.3977335033","0.3844034803","0.4527537228","","","","","","","","","","75","K","2","","","181","main_expt",""
"","bandit","261","660187","0.0-223.0-0.0","43549415","wem/bandit_party_1","AH4S22PWE826G","either","3","223","","","","","","","0","1","0","","0.3569363444","0.4","0.6","0.2","0.8","0.0564969073","0.4194204302","0.3569363444","0.4733821952","","","","","","","","","","","","","","75","K","2","","","182","main_expt",""
"","bandit","262","661796","0.0-224.0-0.0","43549415","wem/bandit_party_1","AH4S22PWE826G","either","3","103","","","","","","","0","0","1","0.3930074682","","0.4","0.6","0.2","0.8","","","","","0.06674959941","0.4050300101","0.3930074682","0.4741352064","","","","","","","","","","75","K","2","","","183","main_expt",""
"","bandit","263","663779","0.0-225.0-0.0","43549415","wem/bandit_party_1","AH4S22PWE826G","either","3","477","","","","","","","0","0","1","","0.4105724965","0.4","0.6","0.2","0.8","0.05730522946","0.4272992256","0.4105724965","0.4835015011","","","","","","","","","","","","","","75","K","2","","","184","main_expt",""
"","bandit","264","665555","0.0-226.0-0.0","43549415","wem/bandit_party_1","AH4S22PWE826G","either","3","271","","","","","","","0","0","1","0.4230276401","","0.4","0.6","0.2","0.8","","","","","0.0759668512","0.4213026748","0.4230276401","0.4907566516","","","","","","","","","","75","K","2","","","185","main_expt",""
"","bandit","265","667220","0.0-227.0-0.0","43549415","wem/bandit_party_1","AH4S22PWE826G","either","3","159","","","","","","","0","0","1","","0.4243078066","0.4","0.6","0.2","0.8","0.0736669194","0.3729626057","0.4243078066","0.4777100538","","","","","","","","","","","","","","75","K","2","","","186","main_expt",""
"","bandit","266","668778","0.0-228.0-0.0","43549415","wem/bandit_party_1","AH4S22PWE826G","either","3","54","","","","","","","0","0","1","0.4751658893","","0.4","0.6","0.2","0.8","","","","","0.1020870739","0.4022080601","0.419104652","0.4751658893","","","","","","","","","","76","L","3","","","187","main_expt",""
"","bandit","267","670396","0.0-229.0-0.0","43549415","wem/bandit_party_1","AH4S22PWE826G","either","3","112","","","","","","","0","0","1","0.4711403756","","0.4","0.6","0.2","0.8","","","","","0.110066606","0.4218987807","0.3917910895","0.4711403756","","","","","","","","","","76","L","3","","","188","main_expt",""
"","bandit","268","672092","0.0-230.0-0.0","43549415","wem/bandit_party_1","AH4S22PWE826G","either","3","190","","","","","","","0","0","1","0.4848283219","","0.4","0.6","0.2","0.8","","","","","0.1616324423","0.4284519853","0.3696037293","0.4848283219","","","","","","","","","","76","L","3","","","189","main_expt",""
"","bandit","269","673707","0.0-231.0-0.0","43549415","wem/bandit_party_1","AH4S22PWE826G","either","3","110","","","","","","","0","0","1","","0.1401199573","0.4","0.6","0.2","0.8","0.1401199573","0.4104863902","0.3722688899","0.4906713727","","","","","","","","","","","","","","72","H","0","img/none_selected.jpg","","190","main_expt",""
"","bandit","270","675380","0.0-232.0-0.0","43549415","wem/bandit_party_1","AH4S22PWE826G","either","3","168","","","","","","","0","0","1","0.1782786715","","0.4","0.6","0.2","0.8","","","","","0.1782786715","0.4071825693","0.3956575009","0.4944082075","","","","","","","","","","72","H","0","img/none_selected.jpg","","191","main_expt",""
"","bandit","271","677187","0.0-233.0-0.0","43549415","wem/bandit_party_1","AH4S22PWE826G","either","3","302","","","","","","","0","0","1","0.203517815","","0.4","0.6","0.2","0.8","","","","","0.203517815","0.4172763132","0.3843500594","0.4922337742","","","","","","","","","","72","H","0","img/none_selected.jpg","","192","main_expt",""
"","bandit","272","679075","0.0-234.0-0.0","43549415","wem/bandit_party_1","AH4S22PWE826G","either","3","383","","","","","","","1","0","0","0.3965334946","","0.4","0.6","0.2","0.8","","","","","0.172030281","0.3965334946","0.3801723293","0.4887356563","","","","","","","","","","74","J","1","","","193","main_expt",""
"","bandit","273","680747","0.0-235.0-0.0","43549415","wem/bandit_party_1","AH4S22PWE826G","either","3","167","","","","","","","0","1","0","","0.383316574","0.4","0.6","0.2","0.8","0.1813301739","0.383316574","0.3871645121","0.4850955297","","","","","","","","","","","","","","74","J","1","","","194","main_expt",""
"","bandit","274","682325","0.0-236.0-0.0","43549415","wem/bandit_party_1","AH4S22PWE826G","either","3","72","","","","","","","1","0","0","0.3965345796","","0.4","0.6","0.2","0.8","","","","","0.2284295163","0.3965345796","0.3633903175","0.4848341758","","","","","","","","","","74","J","1","","","195","main_expt",""
"","bandit","275","684051","0.0-237.0-0.0","43549415","wem/bandit_party_1","AH4S22PWE826G","either","3","221","","","","","","","0","0","1","","0.3978469093","0.4","0.6","0.2","0.8","0.2501246714","0.3978469093","0.3811675741","0.490049139","","","","","","","","","","","","","","74","J","1","","","196","main_expt",""
"","bandit","276","685821","0.0-238.0-0.0","43549415","wem/bandit_party_1","AH4S22PWE826G","either","3","262","","","","","","","1","0","0","0.3172926233","","0.4","0.6","0.2","0.8","","","","","0.3150809007","0.3172926233","0.3487868089","0.4912643012","","","","","","","","","","74","J","1","","","197","main_expt",""
"","bandit","277","687451","0.0-239.0-0.0","43549415","wem/bandit_party_1","AH4S22PWE826G","either","3","125","","","","","","","0","0","1","0.3113170709","","0.4","0.6","0.2","0.8","","","","","0.3442077965","0.3113170709","0.2986771554","0.4793615714","","","","","","","","","","74","J","1","","","198","main_expt",""
"","bandit","278","689075","0.0-240.0-0.0","43549415","wem/bandit_party_1","AH4S22PWE826G","either","3","118","","","","","","","0","0","1","0.3066116159","","0.4","0.6","0.2","0.8","","","","","0.3675051223","0.3066116159","0.3481418533","0.4661622676","","","","","","","","","","74","J","1","","","199","main_expt",""
"","bandit","279","690771","0.0-241.0-0.0","43549415","wem/bandit_party_1","AH4S22PWE826G","either","3","190","","","","","","","0","0","1","0.2521122026","","0.4","0.6","0.2","0.8","","","","","0.3044821291","0.2521122026","0.353319573","0.4479238565","","","","","","","","","","74","J","1","","","200","main_expt",""
"","bandit","280","692283","0.0-242.0-0.0","43549415","wem/bandit_party_1","AH4S22PWE826G","either","3","7","","","","","","","0","0","1","","0.2679963248","0.4","0.6","0.2","0.8","0.3013824411","0.2679963248","0.3676338631","0.4429166455","","","","","","","","","","","","","","74","J","1","","","201","main_expt",""
"","bandit","281","693892","0.0-243.0-0.0","43549415","wem/bandit_party_1","AH4S22PWE826G","either","3","102","","","","","","","1","0","0","0.311657493","","0.4","0.6","0.2","0.8","","","","","0.3001954661","0.2076546236","0.311657493","0.442820363","","","","","","","","","","75","K","2","","","202","main_expt",""
"","bandit","282","695563","0.0-244.0-0.0","43549415","wem/bandit_party_1","AH4S22PWE826G","either","3","165","","","","","","","0","0","1","0.3364041998","","0.4","0.6","0.2","0.8","","","","","0.3189156814","0.1881707852","0.3364041998","0.4539008368","","","","","","","","","","75","K","2","","","203","main_expt",""
"","bandit","283","697324","0.0-245.0-0.0","43549415","wem/bandit_party_1","AH4S22PWE826G","either","3","255","","","","","","","0","0","1","","0.3148670147","0.4","0.6","0.2","0.8","0.3162062407","0.2057853427","0.3148670147","0.4163307037","","","","","","","","","","","","","","75","K","2","","","204","main_expt",""
"","bandit","284","698867","0.0-246.0-0.0","43549415","wem/bandit_party_1","AH4S22PWE826G","either","3","37","","","","","","","0","0","1","","0.3293187519","0.4","0.6","0.2","0.8","0.347278619","0.2564451259","0.3293187519","0.4045388199","","","","","","","","","","","","","","75","K","2","","","205","main_expt",""
"","bandit","285","700499","0.0-247.0-0.0","43549415","wem/bandit_party_1","AH4S22PWE826G","either","3","126","","","","","","","0","0","1","0.4083422121","","0.4","0.6","0.2","0.8","","","","","0.2970129147","0.3082896296","0.2705077244","0.4083422121","","","","","","","","","","76","L","3","","","206","main_expt",""
"","bandit","286","702179","0.0-248.0-0.0","43549415","wem/bandit_party_1","AH4S22PWE826G","either","3","174","","","","","","","0","1","0","","0.4033585138","0.4","0.6","0.2","0.8","0.3331481178","0.3235103938","0.3083591011","0.4033585138","","","","","","","","","","","","","","76","L","3","","","207","main_expt",""
"","bandit","287","703780","0.0-249.0-0.0","43549415","wem/bandit_party_1","AH4S22PWE826G","either","3","96","","","","","","","0","0","1","0.3753320851","","0.4","0.6","0.2","0.8","","","","","0.3195917859","0.3563539536","0.2489273718","0.3753320851","","","","","","","","","","76","L","3","","","208","main_expt",""
"","bandit","288","705291","0.0-250.0-0.0","43549415","wem/bandit_party_1","AH4S22PWE826G","either","3","5","","","","","","","0","0","1","0.3864970555","","0.4","0.6","0.2","0.8","","","","","0.3642345195","0.3821305916","0.2224321457","0.3864970555","","","","","","","","","","76","L","3","","","209","main_expt",""
"","bandit","289","707028","0.0-251.0-0.0","43549415","wem/bandit_party_1","AH4S22PWE826G","either","3","231","","","","","","","1","0","0","0.3894881908","","0.4","0.6","0.2","0.8","","","","","0.3518797164","0.4067483812","0.2184729634","0.3894881908","","","","","","","","","","76","L","3","","","210","main_expt",""
"","bandit","290","708643","0.0-252.0-0.0","43549415","wem/bandit_party_1","AH4S22PWE826G","either","3","110","","","","","","","0","0","1","","0.4052823736","0.4","0.6","0.2","0.8","0.3781537602","0.376825818","0.2178464352","0.4052823736","","","","","","","","","","","","","","76","L","3","","","211","main_expt",""
"","bandit","291","710339","0.0-253.0-0.0","43549415","wem/bandit_party_1","AH4S22PWE826G","either","3","190","","","","","","","1","0","0","0.3783189977","","0.4","0.6","0.2","0.8","","","","","0.3773353051","0.3481764155","0.1644702768","0.3783189977","","","","","","","","","","76","L","3","","","212","main_expt",""
"","bandit","292","712091","0.0-254.0-0.0","43549415","wem/bandit_party_1","AH4S22PWE826G","either","3","246","","","","","","","0","0","1","0.3804187243","","0.4","0.6","0.2","0.8","","","","","0.3448860985","0.3239198888","0.1271660564","0.3804187243","","","","","","","","","","76","L","3","","","213","main_expt",""
"","bandit","293","713804","0.0-255.0-0.0","43549415","wem/bandit_party_1","AH4S22PWE826G","either","3","208","","","","","","","1","0","0","0.3964056757","","0.4","0.6","0.2","0.8","","","","","0.3622000499","0.3592643085","0.1368129038","0.3964056757","","","","","","","","","","76","L","3","","","214","main_expt",""
"","bandit","294","715475","0.0-256.0-0.0","43549415","wem/bandit_party_1","AH4S22PWE826G","either","3","164","","","","","","","0","1","0","","0.3939862607","0.4","0.6","0.2","0.8","0.3408682726","0.3482739819","0.07615368859","0.3939862607","","","","","","","","","","","","","","76","L","3","","","215","main_expt",""
"","bandit","295","717195","0.0-257.0-0.0","43549415","wem/bandit_party_1","AH4S22PWE826G","either","3","214","","","","","","","0","0","1","0.4062496234","","0.4","0.6","0.2","0.8","","","","","0.328819006","0.2972527025","0.07711559412","0.4062496234","","","","","","","","","","76","L","3","","","216","main_expt",""
"","bandit","296","718962","0.0-258.0-0.0","43549415","wem/bandit_party_1","AH4S22PWE826G","either","3","262","","","","","","","0","0","1","0.3440498305","","0.4","0.6","0.2","0.8","","","","","0.3229374792","0.2850944341","0.07728173513","0.3440498305","","","","","","","","","","76","L","3","","","217","main_expt",""
"","bandit","297","720667","0.0-259.0-0.0","43549415","wem/bandit_party_1","AH4S22PWE826G","either","3","200","","","","","","","1","0","0","0.3198020565","","0.4","0.6","0.2","0.8","","","","","0.3616220652","0.2483413171","0.07919919155","0.3198020565","","","","","","","","","","76","L","3","","","218","main_expt",""
"","bandit","298","722419","0.0-260.0-0.0","43549415","wem/bandit_party_1","AH4S22PWE826G","either","3","246","","","","","","","0","1","0","","0.3078290176","0.4","0.6","0.2","0.8","0.3591176528","0.2680513607","0.1270410367","0.3078290176","","","","","","","","","","","","","","76","L","3","","","219","main_expt",""
"","bandit","299","724229","0.0-261.0-0.0","43549415","wem/bandit_party_1","AH4S22PWE826G","either","3","304","","","","","","","1","0","0","0.2961895162","","0.4","0.6","0.2","0.8","","","","","0.2758994579","0.304668496","0.1117499599","0.2961895162","","","","","","","","","","76","L","3","","","220","main_expt",""
"","bandit","300","725891","0.0-262.0-0.0","43549415","wem/bandit_party_1","AH4S22PWE826G","either","3","156","","","","","","","1","0","0","0.2658603678","","0.4","0.6","0.2","0.8","","","","","0.3119987931","0.2773284289","0.1186324211","0.2658603678","","","","","","","","","","76","L","3","","","221","main_expt",""
"","bandit","301","727595","0.0-263.0-0.0","43549415","wem/bandit_party_1","AH4S22PWE826G","either","3","198","","","","","","","0","0","1","","0.274695037","0.4","0.6","0.2","0.8","0.3106374463","0.2152506718","0.1141050397","0.274695037","","","","","","","","","","","","","","76","L","3","","","222","main_expt",""
"","bandit","302","729299","0.0-264.0-0.0","43549415","wem/bandit_party_1","AH4S22PWE826G","either","3","197","","","","","","","1","0","0","0.2210940289","","0.4","0.6","0.2","0.8","","","","","0.3131570504","0.2445797097","0.1007228699","0.2210940289","","","","","","","","","","76","L","3","","","223","main_expt",""
"","bandit","303","731066","0.0-265.0-0.0","43549415","wem/bandit_party_1","AH4S22PWE826G","either","3","262","","","","","","","0","0","1","0.1843933297","","0.4","0.6","0.2","0.8","","","","","0.3025994915","0.2559263424","0.1380584308","0.1843933297","","","","","","","","","","76","L","3","","","224","main_expt",""
"","bandit","304","732691","0.0-266.0-0.0","43549415","wem/bandit_party_1","AH4S22PWE826G","either","3","119","","","","","","","0","0","1","0.212211923","","0.4","0.6","0.2","0.8","","","","","0.2994132709","0.2702522324","0.1393521225","0.212211923","","","","","","","","","","76","L","3","","","225","main_expt",""
"","bandit","305","734429","0.0-267.0-0.0","43549415","wem/bandit_party_1","AH4S22PWE826G","either","3","231","","","","","","","0","0","1","0.2315036379","","0.4","0.6","0.2","0.8","","","","","0.2866794375","0.2646860425","0.2094269877","0.2315036379","","","","","","","","","","76","L","3","","","226","main_expt",""
"","bandit","306","735964","0.0-268.0-0.0","43549415","wem/bandit_party_1","AH4S22PWE826G","either","3","28","","","","","","","0","0","1","0.2646353212","","0.4","0.6","0.2","0.8","","","","","0.2299222882","0.269556559","0.2959232149","0.2646353212","","","","","","","","","","76","L","3","","","227","main_expt",""
"","bandit","307","737531","0.0-269.0-0.0","43549415","wem/bandit_party_1","AH4S22PWE826G","either","3","61","","","","","","","0","0","1","","0.2991813551","0.4","0.6","0.2","0.8","0.2991813551","0.2498152532","0.374355758","0.2443517867","","","","","","","","","","","","","","72","H","0","img/none_selected.jpg","","228","main_expt",""
"","bandit","308","739067","0.0-270.0-0.0","43549415","wem/bandit_party_1","AH4S22PWE826G","either","3","30","","","","","","","0","0","1","0.3295538921","","0.4","0.6","0.2","0.8","","","","","0.3295538921","0.2495566458","0.3876740502","0.2569692975","","","","","","","","","","72","H","0","img/none_selected.jpg","","229","main_expt",""
"","bandit","309","740715","0.0-271.0-0.0","43549415","wem/bandit_party_1","AH4S22PWE826G","either","3","142","","","","","","","0","0","1","","0.2713593359","0.4","0.6","0.2","0.8","0.2713593359","0.2134382902","0.3341674595","0.2490290172","","","","","","","","","","","","","","72","H","0","img/none_selected.jpg","","230","main_expt",""
"","bandit","310","742427","0.0-272.0-0.0","43549415","wem/bandit_party_1","AH4S22PWE826G","either","3","206","","","","","","","0","0","1","","0.2099205747","0.4","0.6","0.2","0.8","0.2746975787","0.2099205747","0.3558281537","0.2368643707","","","","","","","","","","","","","","74","J","1","","","231","main_expt",""
"","bandit","311","744027","0.0-273.0-0.0","43549415","wem/bandit_party_1","AH4S22PWE826G","either","3","94","","","","","","","0","1","0","","0.1598609145","0.4","0.6","0.2","0.8","0.2817934899","0.1598609145","0.3293076861","0.2857324616","","","","","","","","","","","","","","74","J","1","","","232","main_expt",""
"","bandit","312","745678","0.0-274.0-0.0","43549415","wem/bandit_party_1","AH4S22PWE826G","either","3","143","","","","","","","0","0","1","","0.1472569172","0.4","0.6","0.2","0.8","0.3139736629","0.1472569172","0.3271309306","0.226619475","","","","","","","","","","","","","","74","J","1","","","233","main_expt",""
"","bandit","313","747427","0.0-275.0-0.0","43549415","wem/bandit_party_1","AH4S22PWE826G","either","3","243","","","","","","","0","0","1","","0.1123375355","0.4","0.6","0.2","0.8","0.3332560948","0.1123375355","0.3510228885","0.2448251662","","","","","","","","","","","","","","74","J","1","","","234","main_expt",""
"","bandit","314","749108","0.0-276.0-0.0","43549415","wem/bandit_party_1","AH4S22PWE826G","either","3","174","","","","","","","0","0","1","0.1562424728","","0.4","0.6","0.2","0.8","","","","","0.3475281657","0.1562424728","0.3346663699","0.2996798263","","","","","","","","","","74","J","1","","","235","main_expt",""
"","bandit","315","750748","0.0-277.0-0.0","43549415","wem/bandit_party_1","AH4S22PWE826G","either","3","133","","","","","","","0","0","1","","0.332043614","0.4","0.6","0.2","0.8","0.3170984437","0.1623269298","0.332043614","0.3220329496","","","","","","","","","","","","","","75","K","2","","","236","main_expt",""
"","bandit","316","752403","0.0-278.0-0.0","43549415","wem/bandit_party_1","AH4S22PWE826G","either","3","149","","","","","","","0","0","1","0.2780661838","","0.4","0.6","0.2","0.8","","","","","0.3611259067","0.1362759337","0.2780661838","0.3672390457","","","","","","","","","","75","K","2","","","237","main_expt",""
"","bandit","317","754003","0.0-279.0-0.0","43549415","wem/bandit_party_1","AH4S22PWE826G","either","3","94","","","","","","","0","0","1","","0.3071002506","0.4","0.6","0.2","0.8","0.3449339383","0.1282223372","0.3071002506","0.3702030288","","","","","","","","","","","","","","75","K","2","","","238","main_expt",""
"","bandit","318","755796","0.0-280.0-0.0","43549415","wem/bandit_party_1","AH4S22PWE826G","either","3","287","","","","","","","0","0","1","0.3486367063","","0.4","0.6","0.2","0.8","","","","","0.3006984684","0.08262393641","0.3101279526","0.3486367063","","","","","","","","","","76","L","3","","","239","main_expt",""
