"consent","trial_type","trial_index","time_elapsed","internal_node_id","subjID","study","MID","cond","drift","rt","responses","button_pressed","key_press","like","value","connected","gems","bombs","no_reward","GemPrChosen","BombPrChosen","GainOverPainPr_0","GainOverPainPr_1","GainOverPainPr_2","GainOverPainPr_3","LosePr_0","LosePr_1","LosePr_2","LosePr_3","WinPr_0","WinPr_1","WinPr_2","WinPr_3","Q0","Q1","Q2","gender","age","ethnicity","label","expt_phase","target","respCharCode","respKey","respChoiceNum","respChoice","practice","trial_counter","trial_label","Q0_index"
"GDM/GDM_behavioral_consent_30min_online.html","consent","0","15680","0.0-0.0","44110781","wem/bandit_party_1","A2TZRIS9XFZ18U","either","8","","","","","","","","","","","","","","","","","","","","","","","","","","","","","","","","","","","","","","","","",""
"","survey-text","1","42778","0.0-1.0","44110781","wem/bandit_party_1","A2TZRIS9XFZ18U","either","8","26063","{""Q0"":""A2TZRIS9XFZ18U""}","","","","","","","","","","","","","","","","","","","","","","","","","","","","","","","","","","","","","","",""
"","button-response","2","45907","0.0-2.0","44110781","wem/bandit_party_1","A2TZRIS9XFZ18U","either","8","2117","","1","","","","","","","","","","","","","","","","","","","","","","","","","","","","","","","","","","","","","",""
"","text-replacement","3","55669","0.0-3.0","44110781","wem/bandit_party_1","A2TZRIS9XFZ18U","either","8","8754","","","32","","","","","","","","","","","","","","","","","","","","","","","","","","","","","","","","","","","","",""
"","text-replacement","4","62877","0.0-4.0","44110781","wem/bandit_party_1","A2TZRIS9XFZ18U","either","8","7204","","","32","","","","","","","","","","","","","","","","","","","","","","","","","","","","","","","","","","","","",""
"","identification","5","79382","0.0-6.0-0.0","44110781","wem/bandit_party_1","A2TZRIS9XFZ18U","either","8","16457","","","","5","4","4","","","","","","","","","","","","","","","","","","","","","","","","pre","identification_pre","the Democratic Party","","","","","","","",""
"","identification","6","88979","0.0-6.0-1.0","44110781","wem/bandit_party_1","A2TZRIS9XFZ18U","either","8","8558","","","","1","1","1","","","","","","","","","","","","","","","","","","","","","","","","pre","identification_pre","the Republican party","","","","","","","",""
"","text-replacement","7","100584","0.0-7.0","44110781","wem/bandit_party_1","A2TZRIS9XFZ18U","either","8","10593","","","32","","","","","","","","","","","","","","","","","","","","","","","","","","","","","","","","","","","","",""
"","text-replacement","8","106670","0.0-8.0","44110781","wem/bandit_party_1","A2TZRIS9XFZ18U","either","8","6082","","","32","","","","","","","","","","","","","","","","","","","","","","","","","","","","","","","","","","","","",""
"","text-replacement","9","120262","0.0-9.0","44110781","wem/bandit_party_1","A2TZRIS9XFZ18U","either","8","13584","","","32","","","","","","","","","","","","","","","","","","","","","","","","","","","","","","","","","","","","",""
"","text-replacement","10","127068","0.0-10.0","44110781","wem/bandit_party_1","A2TZRIS9XFZ18U","either","8","6806","","","32","","","","","","","","","","","","","","","","","","","","","","","","","","","","","","","","","","","","",""
"","text-replacement","11","134060","0.0-11.0","44110781","wem/bandit_party_1","A2TZRIS9XFZ18U","either","8","6992","","","32","","","","","","","","","","","","","","","","","","","","","","","","","","","","","","","","","","","","",""
"","bandit","12","138433","0.0-12.0-0.0","44110781","wem/bandit_party_1","A2TZRIS9XFZ18U","either","8","2848","","","","","","","0","0","1","0","0","","","","","0","","","","0","","","","","","","","","","","","","74","J","0","img/none_selected_demo.jpg","true","0","",""
"","bandit","13","140689","0.0-13.0-0.0","44110781","wem/bandit_party_1","A2TZRIS9XFZ18U","either","8","732","","","","","","","0","0","1","0","0","","","","","0","","","","0","","","","","","","","","","","","","75","K","0","img/none_selected_demo.jpg","true","0","",""
"","text-replacement","14","144568","0.0-14.0","44110781","wem/bandit_party_1","A2TZRIS9XFZ18U","either","8","3871","","","32","","","","","","","","","","","","","","","","","","","","","","","","","","","","","","","","","","","","",""
"","text-replacement","15","147248","0.0-15.0","44110781","wem/bandit_party_1","A2TZRIS9XFZ18U","either","8","2676","","","32","","","","","","","","","","","","","","","","","","","","","","","","","","","","","","","","","","","","",""
"","text-replacement","16","154893","0.0-16.0","44110781","wem/bandit_party_1","A2TZRIS9XFZ18U","either","8","7641","","","32","","","","","","","","","","","","","","","","","","","","","","","","","","","","","","","","","","","","",""
"","text-replacement","17","157108","0.0-17.0","44110781","wem/bandit_party_1","A2TZRIS9XFZ18U","either","8","2207","","","32","","","","","","","","","","","","","","","","","","","","","","","","","","","","","","","","","","","","",""
"","bandit","18","159903","0.0-18.0-0.0","44110781","wem/bandit_party_1","A2TZRIS9XFZ18U","either","8","1273","","","","","","","0","0","1","","0.2","0.5","0.5","","","0.8","0.2","","","","","","","","","","","","","","","","75","K","1","","true","0","80_20_practice",""
"","bandit","19","164430","0.0-18.0-1.0","44110781","wem/bandit_party_1","A2TZRIS9XFZ18U","either","8","3007","","","","","","","0","1","0","","0.8","0.5","0.5","","","0.8","0.2","","","","","","","","","","","","","","","","74","J","0","img/none_selected_demo.jpg","true","0","80_20_practice",""
"","bandit","20","167382","0.0-18.0-2.0","44110781","wem/bandit_party_1","A2TZRIS9XFZ18U","either","8","1412","","","","","","","0","1","0","","0.8","0.5","0.5","","","0.8","0.2","","","","","","","","","","","","","","","","74","J","0","img/none_selected_demo.jpg","true","0","80_20_practice",""
"","bandit","21","170450","0.0-18.0-3.0","44110781","wem/bandit_party_1","A2TZRIS9XFZ18U","either","8","1520","","","","","","","0","1","0","","0.8","0.5","0.5","","","0.8","0.2","","","","","","","","","","","","","","","","74","J","0","img/none_selected_demo.jpg","true","0","80_20_practice",""
"","bandit","22","172899","0.0-18.0-4.0","44110781","wem/bandit_party_1","A2TZRIS9XFZ18U","either","8","912","","","","","","","1","0","0","0.8","","0.5","0.5","","","","","","","0.8","0.2","","","","","","","","","","","","74","J","0","img/none_selected_demo.jpg","true","0","80_20_practice",""
"","bandit","23","174963","0.0-18.0-5.0","44110781","wem/bandit_party_1","A2TZRIS9XFZ18U","either","8","546","","","","","","","1","0","0","0.8","","0.5","0.5","","","","","","","0.8","0.2","","","","","","","","","","","","74","J","0","img/none_selected_demo.jpg","true","0","80_20_practice",""
"","bandit","24","177312","0.0-18.0-6.0","44110781","wem/bandit_party_1","A2TZRIS9XFZ18U","either","8","818","","","","","","","0","0","1","0.2","","0.5","0.5","","","","","","","0.8","0.2","","","","","","","","","","","","75","K","1","","true","0","80_20_practice",""
"","bandit","25","179193","0.0-18.0-7.0","44110781","wem/bandit_party_1","A2TZRIS9XFZ18U","either","8","356","","","","","","","1","0","0","0.8","","0.5","0.5","","","","","","","0.8","0.2","","","","","","","","","","","","74","J","0","img/none_selected_demo.jpg","true","0","80_20_practice",""
"","bandit","26","181147","0.0-18.0-8.0","44110781","wem/bandit_party_1","A2TZRIS9XFZ18U","either","8","420","","","","","","","1","0","0","0.8","","0.5","0.5","","","","","","","0.8","0.2","","","","","","","","","","","","74","J","0","img/none_selected_demo.jpg","true","0","80_20_practice",""
"","bandit","27","183130","0.0-18.0-9.0","44110781","wem/bandit_party_1","A2TZRIS9XFZ18U","either","8","455","","","","","","","1","0","0","0.8","","0.5","0.5","","","","","","","0.8","0.2","","","","","","","","","","","","74","J","0","img/none_selected_demo.jpg","true","0","80_20_practice",""
"","bandit","28","185184","0.0-18.0-10.0","44110781","wem/bandit_party_1","A2TZRIS9XFZ18U","either","8","510","","","","","","","1","0","0","0.8","","0.5","0.5","","","","","","","0.8","0.2","","","","","","","","","","","","74","J","0","img/none_selected_demo.jpg","true","0","80_20_practice",""
"","bandit","29","187402","0.0-18.0-11.0","44110781","wem/bandit_party_1","A2TZRIS9XFZ18U","either","8","689","","","","","","","1","0","0","0.8","","0.5","0.5","","","","","","","0.8","0.2","","","","","","","","","","","","74","J","0","img/none_selected_demo.jpg","true","0","80_20_practice",""
"","bandit","30","189724","0.0-18.0-12.0","44110781","wem/bandit_party_1","A2TZRIS9XFZ18U","either","8","806","","","","","","","0","1","0","","0.8","0.5","0.5","","","0.8","0.2","","","","","","","","","","","","","","","","74","J","0","img/none_selected_demo.jpg","true","0","80_20_practice",""
"","bandit","31","191829","0.0-18.0-13.0","44110781","wem/bandit_party_1","A2TZRIS9XFZ18U","either","8","572","","","","","","","0","1","0","","0.8","0.5","0.5","","","0.8","0.2","","","","","","","","","","","","","","","","74","J","0","img/none_selected_demo.jpg","true","0","80_20_practice",""
"","bandit","32","193763","0.0-18.0-14.0","44110781","wem/bandit_party_1","A2TZRIS9XFZ18U","either","8","356","","","","","","","1","0","0","0.8","","0.5","0.5","","","","","","","0.8","0.2","","","","","","","","","","","","74","J","0","img/none_selected_demo.jpg","true","0","80_20_practice",""
"","bandit","33","195580","0.0-18.0-15.0","44110781","wem/bandit_party_1","A2TZRIS9XFZ18U","either","8","247","","","","","","","0","0","1","0.8","","0.5","0.5","","","","","","","0.8","0.2","","","","","","","","","","","","74","J","0","img/none_selected_demo.jpg","true","0","80_20_practice",""
"","bandit","34","197438","0.0-18.0-16.0","44110781","wem/bandit_party_1","A2TZRIS9XFZ18U","either","8","321","","","","","","","1","0","0","0.8","","0.5","0.5","","","","","","","0.8","0.2","","","","","","","","","","","","74","J","0","img/none_selected_demo.jpg","true","0","80_20_practice",""
"","bandit","35","199328","0.0-18.0-17.0","44110781","wem/bandit_party_1","A2TZRIS9XFZ18U","either","8","358","","","","","","","1","0","0","0.8","","0.5","0.5","","","","","","","0.8","0.2","","","","","","","","","","","","74","J","0","img/none_selected_demo.jpg","true","0","80_20_practice",""
"","bandit","36","201190","0.0-18.0-18.0","44110781","wem/bandit_party_1","A2TZRIS9XFZ18U","either","8","324","","","","","","","0","1","0","","0.8","0.5","0.5","","","0.8","0.2","","","","","","","","","","","","","","","","74","J","0","img/none_selected_demo.jpg","true","0","80_20_practice",""
"","bandit","37","203002","0.0-18.0-19.0","44110781","wem/bandit_party_1","A2TZRIS9XFZ18U","either","8","272","","","","","","","0","0","1","0.8","","0.5","0.5","","","","","","","0.8","0.2","","","","","","","","","","","","74","J","0","img/none_selected_demo.jpg","true","0","80_20_practice",""
"","text-replacement","38","210328","0.0-19.0","44110781","wem/bandit_party_1","A2TZRIS9XFZ18U","either","8","7318","","","32","","","","","","","","","","","","","","","","","","","","","","","","","","","","","","","","","","","","",""
"","bandit","39","214096","0.0-20.0-0.0","44110781","wem/bandit_party_1","A2TZRIS9XFZ18U","either","8","2225","","","","","","","1","0","0","1","0","","","","","0","1","","","1","0","","","","","","","","","","","","74","J","0","img/none_selected_demo.jpg","true","0","",""
"","text-replacement","40","217645","0.0-21.0","44110781","wem/bandit_party_1","A2TZRIS9XFZ18U","either","8","3529","","","32","","","","","","","","","","","","","","","","","","","","","","","","","","","","","","","","","","","","",""
"","text-replacement","41","222275","0.0-22.0","44110781","wem/bandit_party_1","A2TZRIS9XFZ18U","either","8","4626","","","32","","","","","","","","","","","","","","","","","","","","","","","","","","","","","","","","","","","","",""
"","text-replacement","42","225583","0.0-23.0","44110781","wem/bandit_party_1","A2TZRIS9XFZ18U","either","8","3300","","","32","","","","","","","","","","","","","","","","","","","","","","","","","","","","","","","","","","","","",""
"","text-replacement","43","228109","0.0-24.0","44110781","wem/bandit_party_1","A2TZRIS9XFZ18U","either","8","2522","","","32","","","","","","","","","","","","","","","","","","","","","","","","","","","","","","","","","","","","",""
"","text-replacement","44","230428","0.0-25.0","44110781","wem/bandit_party_1","A2TZRIS9XFZ18U","either","8","2315","","","32","","","","","","","","","","","","","","","","","","","","","","","","","","","","","","","","","","","","",""
"","text-replacement","45","233096","0.0-26.0","44110781","wem/bandit_party_1","A2TZRIS9XFZ18U","either","8","2660","","","32","","","","","","","","","","","","","","","","","","","","","","","","","","","","","","","","","","","","",""
"","text-replacement","46","235196","0.0-27.0","44110781","wem/bandit_party_1","A2TZRIS9XFZ18U","either","8","2096","","","32","","","","","","","","","","","","","","","","","","","","","","","","","","","","","","","","","","","","",""
"","text-replacement","47","236764","0.0-28.0","44110781","wem/bandit_party_1","A2TZRIS9XFZ18U","either","8","1564","","","32","","","","","","","","","","","","","","","","","","","","","","","","","","","","","","","","","","","","",""
"","text-replacement","48","245676","0.0-29.0","44110781","wem/bandit_party_1","A2TZRIS9XFZ18U","either","8","8908","","","32","","","","","","","","","","","","","","","","","","","","","","","","","","","","","","","","","","","","",""
"","text-replacement","49","248632","0.0-30.0","44110781","wem/bandit_party_1","A2TZRIS9XFZ18U","either","8","2952","","","32","","","","","","","","","","","","","","","","","","","","","","","","","","","","","","","","","","","","",""
"","text-replacement","50","252624","0.0-31.0","44110781","wem/bandit_party_1","A2TZRIS9XFZ18U","either","8","3988","","","32","","","","","","","","","","","","","","","","","","","","","","","","","","","","","","","","","","","","",""
"","bandit","51","260856","0.0-32.0-0.0","44110781","wem/bandit_party_1","A2TZRIS9XFZ18U","either","8","6708","","","","","","","0","1","0","","0.8","0.5","0.5","0.5","0.5","0.8","0.2","0.6","0.2","","","","","","","","","","","","","","72","H","0","img/none_selected.jpg","true","0","full_practice",""
"","bandit","52","262723","0.0-32.0-1.0","44110781","wem/bandit_party_1","A2TZRIS9XFZ18U","either","8","332","","","","","","","0","0","1","0.2","","0.5","0.5","0.5","0.5","","","","","0.8","0.2","0.6","0.2","","","","","","","","","","74","J","1","","true","0","full_practice",""
"","bandit","53","264690","0.0-32.0-2.0","44110781","wem/bandit_party_1","A2TZRIS9XFZ18U","either","8","432","","","","","","","1","0","0","0.6","","0.5","0.5","0.5","0.5","","","","","0.8","0.2","0.6","0.2","","","","","","","","","","75","K","2","","true","0","full_practice",""
"","bandit","54","266623","0.0-32.0-3.0","44110781","wem/bandit_party_1","A2TZRIS9XFZ18U","either","8","411","","","","","","","0","0","1","0.2","","0.5","0.5","0.5","0.5","","","","","0.8","0.2","0.6","0.2","","","","","","","","","","76","L","3","","true","0","full_practice",""
"","bandit","55","268632","0.0-32.0-4.0","44110781","wem/bandit_party_1","A2TZRIS9XFZ18U","either","8","468","","","","","","","0","1","0","","0.6","0.5","0.5","0.5","0.5","0.8","0.2","0.6","0.2","","","","","","","","","","","","","","75","K","2","","true","0","full_practice",""
"","bandit","56","270484","0.0-32.0-5.0","44110781","wem/bandit_party_1","A2TZRIS9XFZ18U","either","8","324","","","","","","","1","0","0","0.8","","0.5","0.5","0.5","0.5","","","","","0.8","0.2","0.6","0.2","","","","","","","","","","72","H","0","img/none_selected.jpg","true","0","full_practice",""
"","bandit","57","272428","0.0-32.0-6.0","44110781","wem/bandit_party_1","A2TZRIS9XFZ18U","either","8","412","","","","","","","0","0","1","0.6","","0.5","0.5","0.5","0.5","","","","","0.8","0.2","0.6","0.2","","","","","","","","","","75","K","2","","true","0","full_practice",""
"","bandit","58","274254","0.0-32.0-7.0","44110781","wem/bandit_party_1","A2TZRIS9XFZ18U","either","8","296","","","","","","","0","0","1","0.2","","0.5","0.5","0.5","0.5","","","","","0.8","0.2","0.6","0.2","","","","","","","","","","74","J","1","","true","0","full_practice",""
"","bandit","59","275894","0.0-32.0-8.0","44110781","wem/bandit_party_1","A2TZRIS9XFZ18U","either","8","113","","","","","","","1","0","0","0.8","","0.5","0.5","0.5","0.5","","","","","0.8","0.2","0.6","0.2","","","","","","","","","","72","H","0","img/none_selected.jpg","true","0","full_practice",""
"","bandit","60","277760","0.0-32.0-9.0","44110781","wem/bandit_party_1","A2TZRIS9XFZ18U","either","8","344","","","","","","","0","0","1","","0.8","0.5","0.5","0.5","0.5","0.8","0.2","0.6","0.2","","","","","","","","","","","","","","72","H","0","img/none_selected.jpg","true","0","full_practice",""
"","bandit","61","279690","0.0-32.0-10.0","44110781","wem/bandit_party_1","A2TZRIS9XFZ18U","either","8","399","","","","","","","0","0","1","0.2","","0.5","0.5","0.5","0.5","","","","","0.8","0.2","0.6","0.2","","","","","","","","","","76","L","3","","true","0","full_practice",""
"","bandit","62","281558","0.0-32.0-11.0","44110781","wem/bandit_party_1","A2TZRIS9XFZ18U","either","8","320","","","","","","","0","1","0","","0.6","0.5","0.5","0.5","0.5","0.8","0.2","0.6","0.2","","","","","","","","","","","","","","75","K","2","","true","0","full_practice",""
"","bandit","63","283498","0.0-32.0-12.0","44110781","wem/bandit_party_1","A2TZRIS9XFZ18U","either","8","416","","","","","","","1","0","0","0.6","","0.5","0.5","0.5","0.5","","","","","0.8","0.2","0.6","0.2","","","","","","","","","","75","K","2","","true","0","full_practice",""
"","bandit","64","285410","0.0-32.0-13.0","44110781","wem/bandit_party_1","A2TZRIS9XFZ18U","either","8","380","","","","","","","0","0","1","0.8","","0.5","0.5","0.5","0.5","","","","","0.8","0.2","0.6","0.2","","","","","","","","","","72","H","0","img/none_selected.jpg","true","0","full_practice",""
"","bandit","65","287401","0.0-32.0-14.0","44110781","wem/bandit_party_1","A2TZRIS9XFZ18U","either","8","455","","","","","","","0","1","0","","0.6","0.5","0.5","0.5","0.5","0.8","0.2","0.6","0.2","","","","","","","","","","","","","","75","K","2","","true","0","full_practice",""
"","bandit","66","289587","0.0-32.0-15.0","44110781","wem/bandit_party_1","A2TZRIS9XFZ18U","either","8","648","","","","","","","1","0","0","0.6","","0.5","0.5","0.5","0.5","","","","","0.8","0.2","0.6","0.2","","","","","","","","","","75","K","2","","true","0","full_practice",""
"","bandit","67","291487","0.0-32.0-16.0","44110781","wem/bandit_party_1","A2TZRIS9XFZ18U","either","8","384","","","","","","","0","0","1","","0.6","0.5","0.5","0.5","0.5","0.8","0.2","0.6","0.2","","","","","","","","","","","","","","75","K","2","","true","0","full_practice",""
"","bandit","68","293375","0.0-32.0-17.0","44110781","wem/bandit_party_1","A2TZRIS9XFZ18U","either","8","348","","","","","","","0","0","1","0.6","","0.5","0.5","0.5","0.5","","","","","0.8","0.2","0.6","0.2","","","","","","","","","","75","K","2","","true","0","full_practice",""
"","bandit","69","295322","0.0-32.0-18.0","44110781","wem/bandit_party_1","A2TZRIS9XFZ18U","either","8","420","","","","","","","0","0","1","0.6","","0.5","0.5","0.5","0.5","","","","","0.8","0.2","0.6","0.2","","","","","","","","","","75","K","2","","true","0","full_practice",""
"","bandit","70","297212","0.0-32.0-19.0","44110781","wem/bandit_party_1","A2TZRIS9XFZ18U","either","8","358","","","","","","","0","0","1","","0.2","0.5","0.5","0.5","0.5","0.8","0.2","0.6","0.2","","","","","","","","","","","","","","76","L","3","","true","0","full_practice",""
"","text","71","301697","0.0-33.0","44110781","wem/bandit_party_1","A2TZRIS9XFZ18U","either","8","4407","","","32","","","","","","","","","","","","","","","","","","","","","","","","","","","","","","","","","","","","",""
"","text-replacement","72","314570","0.0-34.0","44110781","wem/bandit_party_1","A2TZRIS9XFZ18U","either","8","11855","","","32","","","","","","","","","","","","","","","","","","","","","","","","","","","","","","","","","","","","",""
"","text-replacement","73","318639","0.0-35.0","44110781","wem/bandit_party_1","A2TZRIS9XFZ18U","either","8","4061","","","32","","","","","","","","","","","","","","","","","","","","","","","","","","","","","","","","","","","","",""
"","text-replacement","74","320993","0.0-36.0","44110781","wem/bandit_party_1","A2TZRIS9XFZ18U","either","8","2350","","","32","","","","","","","","","","","","","","","","","","","","","","","","","","","","","","","","","","","","",""
"","text-replacement","75","323138","0.0-37.0","44110781","wem/bandit_party_1","A2TZRIS9XFZ18U","either","8","2137","","","32","","","","","","","","","","","","","","","","","","","","","","","","","","","","","","","","","","","","",""
"","text-replacement","76","325762","0.0-38.0","44110781","wem/bandit_party_1","A2TZRIS9XFZ18U","either","8","2620","","","32","","","","","","","","","","","","","","","","","","","","","","","","","","","","","","","","","","","","",""
"","survey-multi-choice-replacement","77","330566","0.0-39.0-0.0","44110781","wem/bandit_party_1","A2TZRIS9XFZ18U","either","8","4776","","","","","","","","","","","","","","","","","","","","","","","","Money will be added to the pool for <span style='color:blue;'>DEMOCRATS</span>","","","","","","","attn_check","","","","","","","","","0"
"","survey-multi-choice-replacement","78","334585","0.0-40.0-0.0","44110781","wem/bandit_party_1","A2TZRIS9XFZ18U","either","8","2975","","","","","","","","","","","","","","","","","","","","","","","","Equal amounts of money will be added to the pool for <span style='color:blue;'>DEMOCRATS</span> and subtracted from the pool for <span style='color:red;'>REPUBLICANS</span>","","","","","","","attn_check","","","","","","","","","2"
"","survey-multi-choice-replacement","79","337602","0.0-41.0-0.0","44110781","wem/bandit_party_1","A2TZRIS9XFZ18U","either","8","1990","","","","","","","","","","","","","","","","","","","","","","","","No money will be added to either pool","","","","","","","attn_check","","","","","","","","","3"
"","bandit","80","342608","0.0-42.0-0.0","44110781","wem/bandit_party_1","A2TZRIS9XFZ18U","either","8","2474","","","","","","","0","0","1","0.2637293772","","0.8","0.6","0.2","0.4","","","","","0.2637293772","0.1351790469","0.2928194041","0.3540548627","","","","","","","","","","72","H","0","img/none_selected.jpg","","1","main_expt",""
"","bandit","81","344561","0.0-43.0-0.0","44110781","wem/bandit_party_1","A2TZRIS9XFZ18U","either","8","428","","","","","","","1","0","0","0.125602744","","0.8","0.6","0.2","0.4","","","","","0.2760013096","0.125602744","0.3040419902","0.3812516843","","","","","","","","","","74","J","1","","","2","main_expt",""
"","bandit","82","346541","0.0-44.0-0.0","44110781","wem/bandit_party_1","A2TZRIS9XFZ18U","either","8","417","","","","","","","0","0","1","","0.09574082279","0.8","0.6","0.2","0.4","0.3240499928","0.09574082279","0.2875251023","0.3901316494","","","","","","","","","","","","","","74","J","1","","","3","main_expt",""
"","bandit","83","348430","0.0-45.0-0.0","44110781","wem/bandit_party_1","A2TZRIS9XFZ18U","either","8","362","","","","","","","0","0","1","","0.2965567903","0.8","0.6","0.2","0.4","0.3510822359","0.0913382225","0.2965567903","0.3945399471","","","","","","","","","","","","","","75","K","2","","","4","main_expt",""
"","bandit","84","350442","0.0-46.0-0.0","44110781","wem/bandit_party_1","A2TZRIS9XFZ18U","either","8","490","","","","","","","0","0","1","","0.3997977613","0.8","0.6","0.2","0.4","0.3522827721","0.106177601","0.2681113314","0.3997977613","","","","","","","","","","","","","","76","L","3","","","5","main_expt",""
"","bandit","85","352239","0.0-47.0-0.0","44110781","wem/bandit_party_1","A2TZRIS9XFZ18U","either","8","268","","","","","","","1","0","0","0.382674005","","0.8","0.6","0.2","0.4","","","","","0.382674005","0.08998955495","0.2330443498","0.390783501","","","","","","","","","","72","H","0","img/none_selected.jpg","","6","main_expt",""
"","bandit","86","354092","0.0-48.0-0.0","44110781","wem/bandit_party_1","A2TZRIS9XFZ18U","either","8","318","","","","","","","0","1","0","","0.3998463606","0.8","0.6","0.2","0.4","0.3998463606","0.1077526668","0.1630509172","0.3305693427","","","","","","","","","","","","","","72","H","0","img/none_selected.jpg","","7","main_expt",""
"","bandit","87","356080","0.0-49.0-0.0","44110781","wem/bandit_party_1","A2TZRIS9XFZ18U","either","8","448","","","","","","","1","0","0","0.3832029687","","0.8","0.6","0.2","0.4","","","","","0.3832029687","0.1243697388","0.2002468685","0.3056545716","","","","","","","","","","72","H","0","img/none_selected.jpg","","8","main_expt",""
"","bandit","88","357946","0.0-50.0-0.0","44110781","wem/bandit_party_1","A2TZRIS9XFZ18U","either","8","340","","","","","","","1","0","0","0.3796681134","","0.8","0.6","0.2","0.4","","","","","0.3796681134","0.1698108096","0.1835034381","0.3278889804","","","","","","","","","","72","H","0","img/none_selected.jpg","","9","main_expt",""
"","bandit","89","359825","0.0-51.0-0.0","44110781","wem/bandit_party_1","A2TZRIS9XFZ18U","either","8","328","","","","","","","0","0","1","","0.3614311416","0.8","0.6","0.2","0.4","0.3614311416","0.221757114","0.1939723001","0.3137855556","","","","","","","","","","","","","","72","H","0","img/none_selected.jpg","","10","main_expt",""
"","bandit","90","361664","0.0-52.0-0.0","44110781","wem/bandit_party_1","A2TZRIS9XFZ18U","either","8","306","","","","","","","0","0","1","","0.1961062924","0.8","0.6","0.2","0.4","0.3938737051","0.1961062924","0.1949806013","0.3253079181","","","","","","","","","","","","","","74","J","1","","","11","main_expt",""
"","bandit","91","363595","0.0-53.0-0.0","44110781","wem/bandit_party_1","A2TZRIS9XFZ18U","either","8","400","","","","","","","0","0","1","0.1907056259","","0.8","0.6","0.2","0.4","","","","","0.3810544723","0.1907056259","0.2587943474","0.3298150516","","","","","","","","","","74","J","1","","","12","main_expt",""
"","bandit","92","365483","0.0-54.0-0.0","44110781","wem/bandit_party_1","A2TZRIS9XFZ18U","either","8","344","","","","","","","0","0","1","0.2162865666","","0.8","0.6","0.2","0.4","","","","","0.3707046684","0.2162865666","0.3085985727","0.3673307406","","","","","","","","","","74","J","1","","","13","main_expt",""
"","bandit","93","367428","0.0-55.0-0.0","44110781","wem/bandit_party_1","A2TZRIS9XFZ18U","either","8","404","","","","","","","0","0","1","0.2464992766","","0.8","0.6","0.2","0.4","","","","","0.3486531997","0.2399362825","0.2464992766","0.3679224674","","","","","","","","","","75","K","2","","","14","main_expt",""
"","bandit","94","369477","0.0-56.0-0.0","44110781","wem/bandit_party_1","A2TZRIS9XFZ18U","either","8","509","","","","","","","0","1","0","","0.2474611475","0.8","0.6","0.2","0.4","0.3263578384","0.1986859052","0.2474611475","0.3062507314","","","","","","","","","","","","","","75","K","2","","","15","main_expt",""
"","bandit","95","371438","0.0-57.0-0.0","44110781","wem/bandit_party_1","A2TZRIS9XFZ18U","either","8","428","","","","","","","1","0","0","0.2835538477","","0.8","0.6","0.2","0.4","","","","","0.3514189979","0.1865641621","0.2835538477","0.2892976033","","","","","","","","","","75","K","2","","","16","main_expt",""
"","bandit","96","373312","0.0-58.0-0.0","44110781","wem/bandit_party_1","A2TZRIS9XFZ18U","either","8","340","","","","","","","0","1","0","","0.3256112075","0.8","0.6","0.2","0.4","0.3532592314","0.2035525071","0.3256112075","0.2861796528","","","","","","","","","","","","","","75","K","2","","","17","main_expt",""
"","bandit","97","375109","0.0-59.0-0.0","44110781","wem/bandit_party_1","A2TZRIS9XFZ18U","either","8","248","","","","","","","0","0","1","0.3802227677","","0.8","0.6","0.2","0.4","","","","","0.3858608091","0.2039336531","0.3802227677","0.2958570682","","","","","","","","","","75","K","2","","","18","main_expt",""
"","bandit","98","376998","0.0-60.0-0.0","44110781","wem/bandit_party_1","A2TZRIS9XFZ18U","either","8","360","","","","","","","1","0","0","0.3353028819","","0.8","0.6","0.2","0.4","","","","","0.3837638756","0.1598579642","0.360566968","0.3353028819","","","","","","","","","","76","L","3","","","19","main_expt",""
"","bandit","99","379126","0.0-61.0-0.0","44110781","wem/bandit_party_1","A2TZRIS9XFZ18U","either","8","596","","","","","","","0","0","1","","0.3139704528","0.8","0.6","0.2","0.4","0.2872100501","0.1437622327","0.3696799013","0.3139704528","","","","","","","","","","","","","","76","L","3","","","20","main_expt",""
"","bandit","100","381176","0.0-62.0-0.0","44110781","wem/bandit_party_1","A2TZRIS9XFZ18U","either","8","524","","","","","","","0","0","1","0.2524707143","","0.8","0.6","0.2","0.4","","","","","0.2975414498","0.07974703335","0.4006907501","0.2524707143","","","","","","","","","","76","L","3","","","21","main_expt",""
"","bandit","101","383010","0.0-63.0-0.0","44110781","wem/bandit_party_1","A2TZRIS9XFZ18U","either","8","298","","","","","","","0","0","1","","0.248326021","0.8","0.6","0.2","0.4","0.2741965999","0.1361132429","0.4081217326","0.248326021","","","","","","","","","","","","","","76","L","3","","","22","main_expt",""
"","bandit","102","384821","0.0-64.0-0.0","44110781","wem/bandit_party_1","A2TZRIS9XFZ18U","either","8","276","","","","","","","0","0","1","","0.3740207531","0.8","0.6","0.2","0.4","0.2379064449","0.1705973249","0.3740207531","0.2937153481","","","","","","","","","","","","","","75","K","2","","","23","main_expt",""
"","bandit","103","386716","0.0-65.0-0.0","44110781","wem/bandit_party_1","A2TZRIS9XFZ18U","either","8","344","","","","","","","0","0","1","","0.3913756451","0.8","0.6","0.2","0.4","0.2078598572","0.1392759225","0.3913756451","0.2625315469","","","","","","","","","","","","","","75","K","2","","","24","main_expt",""
"","bandit","104","388677","0.0-66.0-0.0","44110781","wem/bandit_party_1","A2TZRIS9XFZ18U","either","8","426","","","","","","","0","0","1","","0.4100905738","0.8","0.6","0.2","0.4","0.2764850733","0.1800538527","0.4100905738","0.2405651368","","","","","","","","","","","","","","75","K","2","","","25","main_expt",""
"","bandit","105","390560","0.0-67.0-0.0","44110781","wem/bandit_party_1","A2TZRIS9XFZ18U","either","8","350","","","","","","","0","0","1","0.3080191348","","0.8","0.6","0.2","0.4","","","","","0.3080191348","0.2146400533","0.3600668969","0.2503350336","","","","","","","","","","72","H","0","img/none_selected.jpg","","26","main_expt",""
"","bandit","106","392560","0.0-68.0-0.0","44110781","wem/bandit_party_1","A2TZRIS9XFZ18U","either","8","448","","","","","","","0","0","1","0.3606197488","","0.8","0.6","0.2","0.4","","","","","0.3606197488","0.1948367851","0.3703096079","0.354091838","","","","","","","","","","72","H","0","img/none_selected.jpg","","27","main_expt",""
"","bandit","107","394665","0.0-69.0-0.0","44110781","wem/bandit_party_1","A2TZRIS9XFZ18U","either","8","553","","","","","","","0","0","1","","0.2282666016","0.8","0.6","0.2","0.4","0.3696097963","0.2282666016","0.3527269899","0.3419366675","","","","","","","","","","","","","","74","J","1","","","28","main_expt",""
"","bandit","108","396611","0.0-70.0-0.0","44110781","wem/bandit_party_1","A2TZRIS9XFZ18U","either","8","404","","","","","","","0","0","1","0.3434444954","","0.8","0.6","0.2","0.4","","","","","0.3434444954","0.1842618798","0.2854860911","0.361896517","","","","","","","","","","72","H","0","img/none_selected.jpg","","29","main_expt",""
"","bandit","109","398647","0.0-71.0-0.0","44110781","wem/bandit_party_1","A2TZRIS9XFZ18U","either","8","496","","","","","","","0","1","0","","0.2971434158","0.8","0.6","0.2","0.4","0.3528183973","0.1930267653","0.2971434158","0.3701160785","","","","","","","","","","","","","","75","K","2","","","30","main_expt",""
"","bandit","110","400639","0.0-72.0-0.0","44110781","wem/bandit_party_1","A2TZRIS9XFZ18U","either","8","472","","","","","","","0","0","1","","0.3192935598","0.8","0.6","0.2","0.4","0.3436926249","0.2279264959","0.3192935598","0.3602312343","","","","","","","","","","","","","","75","K","2","","","31","main_expt",""
"","bandit","111","402566","0.0-73.0-0.0","44110781","wem/bandit_party_1","A2TZRIS9XFZ18U","either","8","405","","","","","","","0","0","1","","0.3550043818","0.8","0.6","0.2","0.4","0.3392376576","0.1922668126","0.2910845839","0.3550043818","","","","","","","","","","","","","","76","L","3","","","32","main_expt",""
"","bandit","112","404420","0.0-74.0-0.0","44110781","wem/bandit_party_1","A2TZRIS9XFZ18U","either","8","288","","","","","","","1","0","0","0.2524106513","","0.8","0.6","0.2","0.4","","","","","0.2524106513","0.1503247695","0.2956883229","0.3927862597","","","","","","","","","","72","H","0","img/none_selected.jpg","","33","main_expt",""
"","bandit","113","406377","0.0-75.0-0.0","44110781","wem/bandit_party_1","A2TZRIS9XFZ18U","either","8","396","","","","","","","0","0","1","0.2378308988","","0.8","0.6","0.2","0.4","","","","","0.2378308988","0.1875072744","0.2918182698","0.4185963197","","","","","","","","","","72","H","0","img/none_selected.jpg","","34","main_expt",""
"","bandit","114","408314","0.0-76.0-0.0","44110781","wem/bandit_party_1","A2TZRIS9XFZ18U","either","8","380","","","","","","","0","0","1","0.2135507624","","0.8","0.6","0.2","0.4","","","","","0.2683654211","0.2135507624","0.3063909307","0.441983755","","","","","","","","","","74","J","1","","","35","main_expt",""
"","bandit","115","410194","0.0-77.0-0.0","44110781","wem/bandit_party_1","A2TZRIS9XFZ18U","either","8","336","","","","","","","0","1","0","","0.2820805085","0.8","0.6","0.2","0.4","0.2645223933","0.2042402853","0.2820805085","0.4352827683","","","","","","","","","","","","","","75","K","2","","","36","main_expt",""
"","bandit","116","412097","0.0-78.0-0.0","44110781","wem/bandit_party_1","A2TZRIS9XFZ18U","either","8","358","","","","","","","1","0","0","0.450520142","","0.8","0.6","0.2","0.4","","","","","0.2360561858","0.2024605481","0.2610370824","0.450520142","","","","","","","","","","76","L","3","","","37","main_expt",""
"","bandit","117","414003","0.0-79.0-0.0","44110781","wem/bandit_party_1","A2TZRIS9XFZ18U","either","8","385","","","","","","","0","0","1","0.2001865083","","0.8","0.6","0.2","0.4","","","","","0.2001865083","0.1677713785","0.1896233007","0.4681224698","","","","","","","","","","72","H","0","img/none_selected.jpg","","38","main_expt",""
"","bandit","118","415895","0.0-80.0-0.0","44110781","wem/bandit_party_1","A2TZRIS9XFZ18U","either","8","348","","","","","","","1","0","0","0.221779122","","0.8","0.6","0.2","0.4","","","","","0.1687915361","0.221779122","0.168851025","0.4711022053","","","","","","","","","","74","J","1","","","39","main_expt",""
"","bandit","119","417813","0.0-81.0-0.0","44110781","wem/bandit_party_1","A2TZRIS9XFZ18U","either","8","380","","","","","","","0","0","1","0.2722397218","","0.8","0.6","0.2","0.4","","","","","0.1503151413","0.2722397218","0.1615787635","0.4559447699","","","","","","","","","","74","J","1","","","40","main_expt",""
"","bandit","120","419637","0.0-82.0-0.0","44110781","wem/bandit_party_1","A2TZRIS9XFZ18U","either","8","304","","","","","","","0","0","1","","0.1472326003","0.8","0.6","0.2","0.4","0.08168262283","0.3298230943","0.1472326003","0.4412687596","","","","","","","","","","","","","","75","K","2","","","41","main_expt",""
"","bandit","121","421448","0.0-83.0-0.0","44110781","wem/bandit_party_1","A2TZRIS9XFZ18U","either","8","264","","","","","","","0","0","1","0.4457751761","","0.8","0.6","0.2","0.4","","","","","0.07668629145","0.3104885444","0.1533480506","0.4457751761","","","","","","","","","","76","L","3","","","42","main_expt",""
"","bandit","122","423301","0.0-84.0-0.0","44110781","wem/bandit_party_1","A2TZRIS9XFZ18U","either","8","316","","","","","","","0","0","1","0.1414351437","","0.8","0.6","0.2","0.4","","","","","0.07394587158","0.3005355489","0.1414351437","0.4298378352","","","","","","","","","","75","K","2","","","43","main_expt",""
"","bandit","123","425134","0.0-85.0-0.0","44110781","wem/bandit_party_1","A2TZRIS9XFZ18U","either","8","288","","","","","","","0","0","1","","0.1067646429","0.8","0.6","0.2","0.4","0.1192337685","0.2456242138","0.1067646429","0.4416915379","","","","","","","","","","","","","","75","K","2","","","44","main_expt",""
"","bandit","124","426940","0.0-86.0-0.0","44110781","wem/bandit_party_1","A2TZRIS9XFZ18U","either","8","276","","","","","","","0","0","1","0.1285724119","","0.8","0.6","0.2","0.4","","","","","0.1285724119","0.2839901561","0.1250796286","0.3915522423","","","","","","","","","","72","H","0","img/none_selected.jpg","","45","main_expt",""
"","bandit","125","428781","0.0-87.0-0.0","44110781","wem/bandit_party_1","A2TZRIS9XFZ18U","either","8","300","","","","","","","1","0","0","0.1112684106","","0.8","0.6","0.2","0.4","","","","","0.1112684106","0.2353621531","0.1927264636","0.4318427431","","","","","","","","","","72","H","0","img/none_selected.jpg","","46","main_expt",""
"","bandit","126","430621","0.0-88.0-0.0","44110781","wem/bandit_party_1","A2TZRIS9XFZ18U","either","8","294","","","","","","","0","0","1","0.1207340475","","0.8","0.6","0.2","0.4","","","","","0.1207340475","0.2405257196","0.1804488412","0.4395998441","","","","","","","","","","72","H","0","img/none_selected.jpg","","47","main_expt",""
"","bandit","127","432397","0.0-89.0-0.0","44110781","wem/bandit_party_1","A2TZRIS9XFZ18U","either","8","252","","","","","","","0","0","1","0.2629408555","","0.8","0.6","0.2","0.4","","","","","0.1182533935","0.2629408555","0.168268176","0.4630443269","","","","","","","","","","74","J","1","","","48","main_expt",""
"","bandit","128","434226","0.0-90.0-0.0","44110781","wem/bandit_party_1","A2TZRIS9XFZ18U","either","8","300","","","","","","","0","0","1","","0.1466838001","0.8","0.6","0.2","0.4","0.1460801474","0.2902453213","0.1466838001","0.4794982466","","","","","","","","","","","","","","75","K","2","","","49","main_expt",""
"","bandit","129","435978","0.0-91.0-0.0","44110781","wem/bandit_party_1","A2TZRIS9XFZ18U","either","8","204","","","","","","","1","0","0","0.4562783041","","0.8","0.6","0.2","0.4","","","","","0.1765155983","0.3033715012","0.1336340117","0.4562783041","","","","","","","","","","76","L","3","","","50","main_expt",""
"","bandit","130","437866","0.0-92.0-0.0","44110781","wem/bandit_party_1","A2TZRIS9XFZ18U","either","8","360","","","","","","","0","0","1","0.4515646323","","0.8","0.6","0.2","0.4","","","","","0.1614266163","0.3536831403","0.1067821754","0.4515646323","","","","","","","","","","76","L","3","","","51","main_expt",""
"","bandit","131","439715","0.0-93.0-0.0","44110781","wem/bandit_party_1","A2TZRIS9XFZ18U","either","8","327","","","","","","","0","0","1","","0.4344137529","0.8","0.6","0.2","0.4","0.1938643747","0.3058792917","0.07294577227","0.4344137529","","","","","","","","","","","","","","76","L","3","","","52","main_expt",""
"","bandit","132","441511","0.0-94.0-0.0","44110781","wem/bandit_party_1","A2TZRIS9XFZ18U","either","8","272","","","","","","","0","1","0","","0.07676454597","0.8","0.6","0.2","0.4","0.1721886996","0.3466820038","0.07676454597","0.4421766306","","","","","","","","","","","","","","75","K","2","","","53","main_expt",""
"","bandit","133","443410","0.0-95.0-0.0","44110781","wem/bandit_party_1","A2TZRIS9XFZ18U","either","8","354","","","","","","","0","1","0","","0.4591875032","0.8","0.6","0.2","0.4","0.1542880765","0.3159173384","0.07707135067","0.4591875032","","","","","","","","","","","","","","76","L","3","","","54","main_expt",""
"","bandit","134","445285","0.0-96.0-0.0","44110781","wem/bandit_party_1","A2TZRIS9XFZ18U","either","8","307","","","","","","","0","0","1","","0.08227932488","0.8","0.6","0.2","0.4","0.2155598061","0.3205246683","0.08227932488","0.4455250987","","","","","","","","","","","","","","75","K","2","","","55","main_expt",""
"","bandit","135","447037","0.0-97.0-0.0","44110781","wem/bandit_party_1","A2TZRIS9XFZ18U","either","8","216","","","","","","","0","0","1","0.199350645","","0.8","0.6","0.2","0.4","","","","","0.199350645","0.3067659888","0.09013031375","0.4200701886","","","","","","","","","","72","H","0","img/none_selected.jpg","","56","main_expt",""
"","bandit","136","448918","0.0-98.0-0.0","44110781","wem/bandit_party_1","A2TZRIS9XFZ18U","either","8","346","","","","","","","0","0","1","0.1991981904","","0.8","0.6","0.2","0.4","","","","","0.1991981904","0.3786279545","0.106866739","0.3635567377","","","","","","","","","","72","H","0","img/none_selected.jpg","","57","main_expt",""
"","bandit","137","450695","0.0-99.0-0.0","44110781","wem/bandit_party_1","A2TZRIS9XFZ18U","either","8","254","","","","","","","0","0","1","","0.3796022377","0.8","0.6","0.2","0.4","0.1307276253","0.3796022377","0.0915584437","0.3647217687","","","","","","","","","","","","","","74","J","1","","","58","main_expt",""
"","bandit","138","452510","0.0-100.0-0.0","44110781","wem/bandit_party_1","A2TZRIS9XFZ18U","either","8","292","","","","","","","0","0","1","0.1036540812","","0.8","0.6","0.2","0.4","","","","","0.1540949786","0.3570845549","0.1036540812","0.3975499765","","","","","","","","","","75","K","2","","","59","main_expt",""
"","bandit","139","454294","0.0-101.0-0.0","44110781","wem/bandit_party_1","A2TZRIS9XFZ18U","either","8","259","","","","","","","0","0","1","0.376383165","","0.8","0.6","0.2","0.4","","","","","0.1187181044","0.398525789","0.07948280662","0.376383165","","","","","","","","","","76","L","3","","","60","main_expt",""
"","bandit","140","456026","0.0-102.0-0.0","44110781","wem/bandit_party_1","A2TZRIS9XFZ18U","either","8","208","","","","","","","0","0","1","","0.3384437455","0.8","0.6","0.2","0.4","0.1734870435","0.380986593","0.0685056185","0.3384437455","","","","","","","","","","","","","","76","L","3","","","61","main_expt",""
"","bandit","141","457942","0.0-103.0-0.0","44110781","wem/bandit_party_1","A2TZRIS9XFZ18U","either","8","350","","","","","","","0","0","1","","0.04196312691","0.8","0.6","0.2","0.4","0.2056999461","0.3928002855","0.04196312691","0.3086389155","","","","","","","","","","","","","","75","K","2","","","62","main_expt",""
"","bandit","142","459777","0.0-104.0-0.0","44110781","wem/bandit_party_1","A2TZRIS9XFZ18U","either","8","308","","","","","","","0","0","1","","0.3098998428","0.8","0.6","0.2","0.4","0.2421495796","0.4097838671","0.06524357318","0.3098998428","","","","","","","","","","","","","","76","L","3","","","63","main_expt",""
"","bandit","143","461680","0.0-105.0-0.0","44110781","wem/bandit_party_1","A2TZRIS9XFZ18U","either","8","361","","","","","","","0","0","1","0.2678986655","","0.8","0.6","0.2","0.4","","","","","0.2678986655","0.3942475769","0.04599317762","0.2859800092","","","","","","","","","","72","H","0","img/none_selected.jpg","","64","main_expt",""
"","bandit","144","463876","0.0-106.0-0.0","44110781","wem/bandit_party_1","A2TZRIS9XFZ18U","either","8","658","","","","","","","0","0","1","","0.2780805564","0.8","0.6","0.2","0.4","0.2780805564","0.3756823908","0.04738713632","0.2780623804","","","","","","","","","","","","","","72","H","0","img/none_selected.jpg","","65","main_expt",""
"","bandit","145","465699","0.0-107.0-0.0","44110781","wem/bandit_party_1","A2TZRIS9XFZ18U","either","8","242","","","","","","","0","0","1","","0.02873144913","0.8","0.6","0.2","0.4","0.2923516192","0.3780323226","0.02873144913","0.2740889186","","","","","","","","","","","","","","75","K","2","","","66","main_expt",""
"","bandit","146","470601","0.0-108.0-0.0","44110781","wem/bandit_party_1","A2TZRIS9XFZ18U","either","8","3357","","","","","","","0","0","1","0.382091886","","0.8","0.6","0.2","0.4","","","","","0.3481747094","0.382091886","0.0355516853","0.3122756929","","","","","","","","","","74","J","1","","","67","main_expt",""
"","bandit","147","472592","0.0-109.0-0.0","44110781","wem/bandit_party_1","A2TZRIS9XFZ18U","either","8","457","","","","","","","1","0","0","0.3004294993","","0.8","0.6","0.2","0.4","","","","","0.3540590834","0.4080562953","0.04483006882","0.3004294993","","","","","","","","","","76","L","3","","","68","main_expt",""
"","bandit","148","474693","0.0-110.0-0.0","44110781","wem/bandit_party_1","A2TZRIS9XFZ18U","either","8","562","","","","","","","0","1","0","","0.3312842332","0.8","0.6","0.2","0.4","0.3348318208","0.419826639","0.04300650393","0.3312842332","","","","","","","","","","","","","","76","L","3","","","69","main_expt",""
"","bandit","149","476789","0.0-111.0-0.0","44110781","wem/bandit_party_1","A2TZRIS9XFZ18U","either","8","546","","","","","","","0","0","1","","0.2362018798","0.8","0.6","0.2","0.4","0.3844983113","0.3889643965","0.03960880855","0.2362018798","","","","","","","","","","","","","","76","L","3","","","70","main_expt",""
"","bandit","150","479077","0.0-112.0-0.0","44110781","wem/bandit_party_1","A2TZRIS9XFZ18U","either","8","760","","","","","","","0","0","1","","0.02401392238","0.8","0.6","0.2","0.4","0.3753843975","0.3492343966","0.02401392238","0.1838323472","","","","","","","","","","","","","","75","K","2","","","71","main_expt",""
"","bandit","151","481908","0.0-113.0-0.0","44110781","wem/bandit_party_1","A2TZRIS9XFZ18U","either","8","1302","","","","","","","0","0","1","0.3861429343","","0.8","0.6","0.2","0.4","","","","","0.3861429343","0.3502155883","0.008756159955","0.1749810972","","","","","","","","","","72","H","0","img/none_selected.jpg","","72","main_expt",""
"","bandit","152","483973","0.0-114.0-0.0","44110781","wem/bandit_party_1","A2TZRIS9XFZ18U","either","8","527","","","","","","","1","0","0","0.3978436086","","0.8","0.6","0.2","0.4","","","","","0.3978436086","0.3568691787","0.006257651783","0.1664097112","","","","","","","","","","72","H","0","img/none_selected.jpg","","73","main_expt",""
"","bandit","153","486375","0.0-115.0-0.0","44110781","wem/bandit_party_1","A2TZRIS9XFZ18U","either","8","867","","","","","","","0","0","1","0.3847979518","","0.8","0.6","0.2","0.4","","","","","0.3847979518","0.3303653739","0.004732084297","0.2001176207","","","","","","","","","","72","H","0","img/none_selected.jpg","","74","main_expt",""
"","bandit","154","489265","0.0-116.0-0.0","44110781","wem/bandit_party_1","A2TZRIS9XFZ18U","either","8","1338","","","","","","","0","0","1","","0.006967558871","0.8","0.6","0.2","0.4","0.3974319157","0.3353283381","0.006967558871","0.1848717924","","","","","","","","","","","","","","75","K","2","","","75","main_expt",""
"","bandit","155","492675","0.0-117.0-0.0","44110781","wem/bandit_party_1","A2TZRIS9XFZ18U","either","8","1862","","","","","","","0","0","1","0.004525860487","","0.8","0.6","0.2","0.4","","","","","0.3987985884","0.3009524994","0.004525860487","0.1510178238","","","","","","","","","","75","K","2","","","76","main_expt",""
"","bandit","156","496210","0.0-118.0-0.0","44110781","wem/bandit_party_1","A2TZRIS9XFZ18U","either","8","1979","","","","","","","0","0","1","","0.007245535115","0.8","0.6","0.2","0.4","0.4127312768","0.3316028908","0.007245535115","0.2089633591","","","","","","","","","","","","","","75","K","2","","","77","main_expt",""
"","bandit","157","498830","0.0-119.0-0.0","44110781","wem/bandit_party_1","A2TZRIS9XFZ18U","either","8","1070","","","","","","","0","0","1","0.2285147345","","0.8","0.6","0.2","0.4","","","","","0.4257675477","0.3571024926","0.00483057751","0.2285147345","","","","","","","","","","76","L","3","","","78","main_expt",""
"","bandit","158","503821","0.0-120.0-0.0","44110781","wem/bandit_party_1","A2TZRIS9XFZ18U","either","8","3461","","","","","","","0","0","1","","0.2246975601","0.8","0.6","0.2","0.4","0.4331167668","0.3542776451","0.005956317848","0.2246975601","","","","","","","","","","","","","","76","L","3","","","79","main_expt",""
"","bandit","159","505845","0.0-121.0-0.0","44110781","wem/bandit_party_1","A2TZRIS9XFZ18U","either","8","482","","","","","","","0","0","1","","0.0076590047","0.8","0.6","0.2","0.4","0.4294395537","0.3201174307","0.0076590047","0.1878766281","","","","","","","","","","","","","","75","K","2","","","80","main_expt",""
"","bandit","160","511909","0.0-122.0-0.0","44110781","wem/bandit_party_1","A2TZRIS9XFZ18U","either","8","4524","","","","","","","0","0","1","0.4234249918","","0.8","0.6","0.2","0.4","","","","","0.4234249918","0.3503003334","0.009115568074","0.2436254364","","","","","","","","","","72","H","0","img/none_selected.jpg","","81","main_expt",""
"","bandit","161","514322","0.0-123.0-0.0","44110781","wem/bandit_party_1","A2TZRIS9XFZ18U","either","8","877","","","","","","","0","0","1","0.01382977225","","0.8","0.6","0.2","0.4","","","","","0.3956977209","0.3509066846","0.01382977225","0.2627531714","","","","","","","","","","75","K","2","","","82","main_expt",""
"","bandit","162","516309","0.0-124.0-0.0","44110781","wem/bandit_party_1","A2TZRIS9XFZ18U","either","8","444","","","","","","","0","0","1","0.2672212524","","0.8","0.6","0.2","0.4","","","","","0.4248650233","0.3951868033","0.01500629599","0.2672212524","","","","","","","","","","76","L","3","","","83","main_expt",""
"","bandit","163","519928","0.0-125.0-0.0","44110781","wem/bandit_party_1","A2TZRIS9XFZ18U","either","8","2084","","","","","","","1","0","0","0.4196907627","","0.8","0.6","0.2","0.4","","","","","0.4196907627","0.4131477378","0.02310127573","0.2817484998","","","","","","","","","","72","H","0","img/none_selected.jpg","","84","main_expt",""
"","bandit","164","524561","0.0-126.0-0.0","44110781","wem/bandit_party_1","A2TZRIS9XFZ18U","either","8","3093","","","","","","","1","0","0","0.435633498","","0.8","0.6","0.2","0.4","","","","","0.435633498","0.3889697292","0.02639065846","0.3074775227","","","","","","","","","","72","H","0","img/none_selected.jpg","","85","main_expt",""
"","bandit","165","532047","0.0-127.0-0.0","44110781","wem/bandit_party_1","A2TZRIS9XFZ18U","either","8","5954","","","","","","","0","1","0","","0.2717847629","0.8","0.6","0.2","0.4","0.4322222521","0.3885636443","0.01746441632","0.2717847629","","","","","","","","","","","","","","76","L","3","","","86","main_expt",""
"","bandit","166","536908","0.0-128.0-0.0","44110781","wem/bandit_party_1","A2TZRIS9XFZ18U","either","8","3337","","","","","","","1","0","0","0.2183858348","","0.8","0.6","0.2","0.4","","","","","0.4476119451","0.4028282504","0.01256144444","0.2183858348","","","","","","","","","","76","L","3","","","87","main_expt",""
"","bandit","167","539238","0.0-129.0-0.0","44110781","wem/bandit_party_1","A2TZRIS9XFZ18U","either","8","794","","","","","","","0","0","1","","0.01178158386","0.8","0.6","0.2","0.4","0.4073123198","0.4306890759","0.01178158386","0.2054961256","","","","","","","","","","","","","","75","K","2","","","88","main_expt",""
"","bandit","168","549065","0.0-130.0-0.0","44110781","wem/bandit_party_1","A2TZRIS9XFZ18U","either","8","8292","","","","","","","1","0","0","0.1452714398","","0.8","0.6","0.2","0.4","","","","","0.3862301724","0.4103738654","0.008722555822","0.1452714398","","","","","","","","","","76","L","3","","","89","main_expt",""
"","bandit","169","551239","0.0-131.0-0.0","44110781","wem/bandit_party_1","A2TZRIS9XFZ18U","either","8","626","","","","","","","0","0","1","0.3596745144","","0.8","0.6","0.2","0.4","","","","","0.3596745144","0.3980827974","0.008232471735","0.1077779513","","","","","","","","","","72","H","0","img/none_selected.jpg","","90","main_expt",""
"","bandit","170","555579","0.0-132.0-0.0","44110781","wem/bandit_party_1","A2TZRIS9XFZ18U","either","8","2797","","","","","","","0","0","1","","0.1308407065","0.8","0.6","0.2","0.4","0.3082854458","0.4040531024","0.01249180717","0.1308407065","","","","","","","","","","","","","","76","L","3","","","91","main_expt",""
"","bandit","171","558753","0.0-133.0-0.0","44110781","wem/bandit_party_1","A2TZRIS9XFZ18U","either","8","1632","","","","","","","0","0","1","","0.01470986316","0.8","0.6","0.2","0.4","0.312225492","0.3462944796","0.01470986316","0.1652322036","","","","","","","","","","","","","","75","K","2","","","92","main_expt",""
"","bandit","172","560673","0.0-134.0-0.0","44110781","wem/bandit_party_1","A2TZRIS9XFZ18U","either","8","380","","","","","","","1","0","0","0.3411451966","","0.8","0.6","0.2","0.4","","","","","0.3671658277","0.3411451966","0.02655281846","0.1344678182","","","","","","","","","","74","J","1","","","93","main_expt",""
"","bandit","173","564696","0.0-135.0-0.0","44110781","wem/bandit_party_1","A2TZRIS9XFZ18U","either","8","2460","","","","","","","0","0","1","","0.1301314301","0.8","0.6","0.2","0.4","0.3401731108","0.3384154489","0.02575246025","0.1301314301","","","","","","","","","","","","","","76","L","3","","","94","main_expt",""
"","bandit","174","566660","0.0-136.0-0.0","44110781","wem/bandit_party_1","A2TZRIS9XFZ18U","either","8","400","","","","","","","0","0","1","0.3126988266","","0.8","0.6","0.2","0.4","","","","","0.3413923724","0.3126988266","0.02262355665","0.1746055711","","","","","","","","","","74","J","1","","","95","main_expt",""
"","bandit","175","568957","0.0-137.0-0.0","44110781","wem/bandit_party_1","A2TZRIS9XFZ18U","either","8","758","","","","","","","0","0","1","","0.02047181149","0.8","0.6","0.2","0.4","0.3570420485","0.3800019137","0.02047181149","0.1994244555","","","","","","","","","","","","","","75","K","2","","","96","main_expt",""
"","bandit","176","570908","0.0-138.0-0.0","44110781","wem/bandit_party_1","A2TZRIS9XFZ18U","either","8","397","","","","","","","0","0","1","0.3435474977","","0.8","0.6","0.2","0.4","","","","","0.3435474977","0.3328121005","0.0207754381","0.1834602947","","","","","","","","","","72","H","0","img/none_selected.jpg","","97","main_expt",""
"","bandit","177","573309","0.0-139.0-0.0","44110781","wem/bandit_party_1","A2TZRIS9XFZ18U","either","8","856","","","","","","","0","0","1","0.332228596","","0.8","0.6","0.2","0.4","","","","","0.3614714926","0.332228596","0.02955834597","0.1719221531","","","","","","","","","","74","J","1","","","98","main_expt",""
"","bandit","178","577337","0.0-140.0-0.0","44110781","wem/bandit_party_1","A2TZRIS9XFZ18U","either","8","2476","","","","","","","0","0","1","","0.2843854285","0.8","0.6","0.2","0.4","0.3176405447","0.2843854285","0.0383131093","0.1183399241","","","","","","","","","","","","","","74","J","1","","","99","main_expt",""
"","bandit","179","579193","0.0-141.0-0.0","44110781","wem/bandit_party_1","A2TZRIS9XFZ18U","either","8","316","","","","","","","0","0","1","","0.1558635017","0.8","0.6","0.2","0.4","0.3586553183","0.309751149","0.03580757471","0.1558635017","","","","","","","","","","","","","","76","L","3","","","100","main_expt",""
"","bandit","180","581349","0.0-142.0-0.0","44110781","wem/bandit_party_1","A2TZRIS9XFZ18U","either","8","620","","","","","","","0","0","1","","0.04899620691","0.8","0.6","0.2","0.4","0.2951503345","0.2993195944","0.04899620691","0.1389665978","","","","","","","","","","","","","","75","K","2","","","101","main_expt",""
"","bandit","181","583531","0.0-143.0-0.0","44110781","wem/bandit_party_1","A2TZRIS9XFZ18U","either","8","624","","","","","","","0","0","1","","0.1377203561","0.8","0.6","0.2","0.4","0.2998391809","0.3551890872","0.08055650644","0.1377203561","","","","","","","","","","","","","","76","L","3","","","102","main_expt",""
"","bandit","182","585482","0.0-144.0-0.0","44110781","wem/bandit_party_1","A2TZRIS9XFZ18U","either","8","376","","","","","","","0","0","1","","0.1285548106","0.8","0.6","0.2","0.4","0.2791823827","0.3148404956","0.1040447627","0.1285548106","","","","","","","","","","","","","","76","L","3","","","103","main_expt",""
"","bandit","183","589119","0.0-145.0-0.0","44110781","wem/bandit_party_1","A2TZRIS9XFZ18U","either","8","2090","","","","","","","0","0","1","","0.1555523735","0.8","0.6","0.2","0.4","0.3382769334","0.3286912191","0.1143547335","0.1555523735","","","","","","","","","","","","","","76","L","3","","","104","main_expt",""
"","bandit","184","594895","0.0-146.0-0.0","44110781","wem/bandit_party_1","A2TZRIS9XFZ18U","either","8","4240","","","","","","","0","0","1","0.1487676438","","0.8","0.6","0.2","0.4","","","","","0.3339697125","0.298340497","0.1487676438","0.1775592141","","","","","","","","","","75","K","2","","","105","main_expt",""
"","bandit","185","598055","0.0-147.0-0.0","44110781","wem/bandit_party_1","A2TZRIS9XFZ18U","either","8","1624","","","","","","","1","0","0","0.3124129253","","0.8","0.6","0.2","0.4","","","","","0.3124129253","0.3504464386","0.152088545","0.2263451353","","","","","","","","","","72","H","0","img/none_selected.jpg","","106","main_expt",""
"","bandit","186","600236","0.0-148.0-0.0","44110781","wem/bandit_party_1","A2TZRIS9XFZ18U","either","8","636","","","","","","","0","0","1","0.3400683723","","0.8","0.6","0.2","0.4","","","","","0.3400683723","0.3510410077","0.2406734145","0.1679769802","","","","","","","","","","72","H","0","img/none_selected.jpg","","107","main_expt",""
"","bandit","187","602359","0.0-149.0-0.0","44110781","wem/bandit_party_1","A2TZRIS9XFZ18U","either","8","587","","","","","","","0","1","0","","0.3282766846","0.8","0.6","0.2","0.4","0.3557340834","0.3282766846","0.3048040024","0.1999870147","","","","","","","","","","","","","","74","J","1","","","108","main_expt",""
"","bandit","188","613223","0.0-150.0-0.0","44110781","wem/bandit_party_1","A2TZRIS9XFZ18U","either","8","9324","","","","","","","0","1","0","","0.3561186451","0.8","0.6","0.2","0.4","0.3846418901","0.3561186451","0.3418503096","0.208992856","","","","","","","","","","","","","","74","J","1","","","109","main_expt",""
"","bandit","189","617106","0.0-151.0-0.0","44110781","wem/bandit_party_1","A2TZRIS9XFZ18U","either","8","2354","","","","","","","0","0","1","0.3576445865","","0.8","0.6","0.2","0.4","","","","","0.4057962062","0.3576445865","0.3198501315","0.1716040471","","","","","","","","","","74","J","1","","","110","main_expt",""
"","bandit","190","618853","0.0-152.0-0.0","44110781","wem/bandit_party_1","A2TZRIS9XFZ18U","either","8","164","","","","","","","0","1","0","","0.3681534847","0.8","0.6","0.2","0.4","0.3692451483","0.3377543854","0.3681534847","0.08984071331","","","","","","","","","","","","","","75","K","2","","","111","main_expt",""
"","bandit","191","620768","0.0-153.0-0.0","44110781","wem/bandit_party_1","A2TZRIS9XFZ18U","either","8","380","","","","","","","0","1","0","","0.3757830796","0.8","0.6","0.2","0.4","0.3577317973","0.286234052","0.3757830796","0.1243463141","","","","","","","","","","","","","","75","K","2","","","112","main_expt",""
"","bandit","192","622718","0.0-154.0-0.0","44110781","wem/bandit_party_1","A2TZRIS9XFZ18U","either","8","394","","","","","","","0","1","0","","0.3838999828","0.8","0.6","0.2","0.4","0.3328808086","0.1932674395","0.3838999828","0.1433440675","","","","","","","","","","","","","","75","K","2","","","113","main_expt",""
"","bandit","193","624812","0.0-155.0-0.0","44110781","wem/bandit_party_1","A2TZRIS9XFZ18U","either","8","564","","","","","","","0","0","1","0.4157938717","","0.8","0.6","0.2","0.4","","","","","0.3416979579","0.2403040534","0.4157938717","0.1510662198","","","","","","","","","","75","K","2","","","114","main_expt",""
"","bandit","194","626801","0.0-156.0-0.0","44110781","wem/bandit_party_1","A2TZRIS9XFZ18U","either","8","449","","","","","","","1","0","0","0.09845245139","","0.8","0.6","0.2","0.4","","","","","0.3377137281","0.254937398","0.4055870595","0.09845245139","","","","","","","","","","76","L","3","","","115","main_expt",""
"","bandit","195","629279","0.0-157.0-0.0","44110781","wem/bandit_party_1","A2TZRIS9XFZ18U","either","8","939","","","","","","","0","0","1","","0.107393795","0.8","0.6","0.2","0.4","0.3039448029","0.2605063941","0.4161015278","0.107393795","","","","","","","","","","","","","","76","L","3","","","116","main_expt",""
"","bandit","196","631148","0.0-158.0-0.0","44110781","wem/bandit_party_1","A2TZRIS9XFZ18U","either","8","328","","","","","","","1","0","0","0.2974336912","","0.8","0.6","0.2","0.4","","","","","0.2974336912","0.2161328783","0.414877819","0.07879800556","","","","","","","","","","72","H","0","img/none_selected.jpg","","117","main_expt",""
"","bandit","197","633121","0.0-159.0-0.0","44110781","wem/bandit_party_1","A2TZRIS9XFZ18U","either","8","432","","","","","","","0","0","1","0.2651867246","","0.8","0.6","0.2","0.4","","","","","0.2651867246","0.1931197841","0.3968259953","0.08383735875","","","","","","","","","","72","H","0","img/none_selected.jpg","","118","main_expt",""
"","bandit","198","635171","0.0-160.0-0.0","44110781","wem/bandit_party_1","A2TZRIS9XFZ18U","either","8","500","","","","","","","0","0","1","0.1638183597","","0.8","0.6","0.2","0.4","","","","","0.3131666206","0.1638183597","0.4198241006","0.1392474383","","","","","","","","","","74","J","1","","","119","main_expt",""
"","bandit","199","636971","0.0-161.0-0.0","44110781","wem/bandit_party_1","A2TZRIS9XFZ18U","either","8","272","","","","","","","0","0","1","0.4286088018","","0.8","0.6","0.2","0.4","","","","","0.358829095","0.1893282748","0.4286088018","0.1649404926","","","","","","","","","","75","K","2","","","120","main_expt",""
"","bandit","200","638841","0.0-162.0-0.0","44110781","wem/bandit_party_1","A2TZRIS9XFZ18U","either","8","328","","","","","","","0","0","1","0.1764152442","","0.8","0.6","0.2","0.4","","","","","0.3189860171","0.2290368179","0.4253829576","0.1764152442","","","","","","","","","","76","L","3","","","121","main_expt",""
"","bandit","201","640687","0.0-163.0-0.0","44110781","wem/bandit_party_1","A2TZRIS9XFZ18U","either","8","321","","","","","","","0","0","1","","0.3011672979","0.8","0.6","0.2","0.4","0.3011672979","0.2445441383","0.4235175979","0.2092397698","","","","","","","","","","","","","","72","H","0","img/none_selected.jpg","","122","main_expt",""
"","bandit","202","642540","0.0-164.0-0.0","44110781","wem/bandit_party_1","A2TZRIS9XFZ18U","either","8","321","","","","","","","0","0","1","","0.2091075756","0.8","0.6","0.2","0.4","0.3037948063","0.2091075756","0.4182090072","0.1884058447","","","","","","","","","","","","","","74","J","1","","","123","main_expt",""
"","bandit","203","644440","0.0-165.0-0.0","44110781","wem/bandit_party_1","A2TZRIS9XFZ18U","either","8","324","","","","","","","0","1","0","","0.4356016004","0.8","0.6","0.2","0.4","0.2446200253","0.2216111921","0.4356016004","0.1876417206","","","","","","","","","","","","","","75","K","2","","","124","main_expt",""
"","bandit","204","646476","0.0-166.0-0.0","44110781","wem/bandit_party_1","A2TZRIS9XFZ18U","either","8","452","","","","","","","0","0","1","","0.403953628","0.8","0.6","0.2","0.4","0.2464628806","0.1622020501","0.403953628","0.1890564589","","","","","","","","","","","","","","75","K","2","","","125","main_expt",""
"","bandit","205","648397","0.0-167.0-0.0","44110781","wem/bandit_party_1","A2TZRIS9XFZ18U","either","8","396","","","","","","","0","1","0","","0.4020675328","0.8","0.6","0.2","0.4","0.281169445","0.173533554","0.4020675328","0.1659850756","","","","","","","","","","","","","","75","K","2","","","126","main_expt",""
"","bandit","206","650417","0.0-168.0-0.0","44110781","wem/bandit_party_1","A2TZRIS9XFZ18U","either","8","484","","","","","","","0","1","0","","0.338443572","0.8","0.6","0.2","0.4","0.290080064","0.189829559","0.338443572","0.2006343121","","","","","","","","","","","","","","75","K","2","","","127","main_expt",""
"","bandit","207","652351","0.0-169.0-0.0","44110781","wem/bandit_party_1","A2TZRIS9XFZ18U","either","8","399","","","","","","","0","0","1","0.323123489","","0.8","0.6","0.2","0.4","","","","","0.3280989756","0.1764696366","0.323123489","0.2637444583","","","","","","","","","","75","K","2","","","128","main_expt",""
"","bandit","208","653989","0.0-170.0-0.0","44110781","wem/bandit_party_1","A2TZRIS9XFZ18U","either","8","96","","","","","","","0","0","1","","0.2783394686","0.8","0.6","0.2","0.4","0.3052704822","0.172709194","0.3615310162","0.2783394686","","","","","","","","","","","","","","76","L","3","","","129","main_expt",""
"","bandit","209","655739","0.0-171.0-0.0","44110781","wem/bandit_party_1","A2TZRIS9XFZ18U","either","8","200","","","","","","","0","0","1","","0.2674474002","0.8","0.6","0.2","0.4","0.314718742","0.1407460215","0.3667448715","0.2674474002","","","","","","","","","","","","","","76","L","3","","","130","main_expt",""
"","bandit","210","657371","0.0-172.0-0.0","44110781","wem/bandit_party_1","A2TZRIS9XFZ18U","either","8","65","","","","","","","0","0","1","0.2122920843","","0.8","0.6","0.2","0.4","","","","","0.2492347367","0.143826562","0.341745941","0.2122920843","","","","","","","","","","76","L","3","","","131","main_expt",""
"","bandit","211","659216","0.0-173.0-0.0","44110781","wem/bandit_party_1","A2TZRIS9XFZ18U","either","8","276","","","","","","","0","0","1","0.1969346152","","0.8","0.6","0.2","0.4","","","","","0.2495736985","0.1862992663","0.2615325727","0.1969346152","","","","","","","","","","76","L","3","","","132","main_expt",""
"","bandit","212","661010","0.0-174.0-0.0","44110781","wem/bandit_party_1","A2TZRIS9XFZ18U","either","8","260","","","","","","","0","0","1","","0.1390835973","0.8","0.6","0.2","0.4","0.2487120015","0.185648564","0.27905624","0.1390835973","","","","","","","","","","","","","","76","L","3","","","133","main_expt",""
"","bandit","213","662814","0.0-175.0-0.0","44110781","wem/bandit_party_1","A2TZRIS9XFZ18U","either","8","272","","","","","","","0","0","1","","0.2002276213","0.8","0.6","0.2","0.4","0.3239420422","0.2002276213","0.2751163123","0.1437640715","","","","","","","","","","","","","","74","J","1","","","134","main_expt",""
"","bandit","214","664974","0.0-176.0-0.0","44110781","wem/bandit_party_1","A2TZRIS9XFZ18U","either","8","604","","","","","","","0","0","1","0.2474552851","","0.8","0.6","0.2","0.4","","","","","0.3903525049","0.2474552851","0.2586507773","0.1175999949","","","","","","","","","","74","J","1","","","135","main_expt",""
"","bandit","215","667159","0.0-177.0-0.0","44110781","wem/bandit_party_1","A2TZRIS9XFZ18U","either","8","636","","","","","","","1","0","0","0.2454982057","","0.8","0.6","0.2","0.4","","","","","0.3703049055","0.2454982057","0.2385277364","0.1108499649","","","","","","","","","","74","J","1","","","136","main_expt",""
"","bandit","216","669766","0.0-178.0-0.0","44110781","wem/bandit_party_1","A2TZRIS9XFZ18U","either","8","1073","","","","","","","0","0","1","","0.2708690816","0.8","0.6","0.2","0.4","0.3657944308","0.2708690816","0.1935782534","0.1208727618","","","","","","","","","","","","","","74","J","1","","","137","main_expt",""
"","bandit","217","673097","0.0-179.0-0.0","44110781","wem/bandit_party_1","A2TZRIS9XFZ18U","either","8","1794","","","","","","","0","0","1","0.2219039101","","0.8","0.6","0.2","0.4","","","","","0.3452946514","0.2219039101","0.14087624","0.1098805161","","","","","","","","","","74","J","1","","","138","main_expt",""
"","bandit","218","675377","0.0-180.0-0.0","44110781","wem/bandit_party_1","A2TZRIS9XFZ18U","either","8","721","","","","","","","0","0","1","","0.2485571535","0.8","0.6","0.2","0.4","0.3225052804","0.2485571535","0.1340930794","0.1359731218","","","","","","","","","","","","","","74","J","1","","","139","main_expt",""
"","bandit","219","677233","0.0-181.0-0.0","44110781","wem/bandit_party_1","A2TZRIS9XFZ18U","either","8","306","","","","","","","0","1","0","","0.2605640439","0.8","0.6","0.2","0.4","0.2997250911","0.2605640439","0.1170750994","0.1419248406","","","","","","","","","","","","","","74","J","1","","","140","main_expt",""
"","bandit","220","679115","0.0-182.0-0.0","44110781","wem/bandit_party_1","A2TZRIS9XFZ18U","either","8","344","","","","","","","0","0","1","0.2260680923","","0.8","0.6","0.2","0.4","","","","","0.311933389","0.2260680923","0.1316830279","0.1269577117","","","","","","","","","","74","J","1","","","141","main_expt",""
"","bandit","221","680946","0.0-183.0-0.0","44110781","wem/bandit_party_1","A2TZRIS9XFZ18U","either","8","296","","","","","","","0","1","0","","0.3442568425","0.8","0.6","0.2","0.4","0.3442568425","0.2354846983","0.09490366034","0.1073819056","","","","","","","","","","","","","","72","H","0","img/none_selected.jpg","","142","main_expt",""
"","bandit","222","682872","0.0-184.0-0.0","44110781","wem/bandit_party_1","A2TZRIS9XFZ18U","either","8","395","","","","","","","0","0","1","0.3117203045","","0.8","0.6","0.2","0.4","","","","","0.3117203045","0.2089358464","0.1246024154","0.1152767294","","","","","","","","","","72","H","0","img/none_selected.jpg","","143","main_expt",""
"","bandit","223","684762","0.0-185.0-0.0","44110781","wem/bandit_party_1","A2TZRIS9XFZ18U","either","8","346","","","","","","","1","0","0","0.3080771123","","0.8","0.6","0.2","0.4","","","","","0.3080771123","0.1844607625","0.1179874238","0.1317444946","","","","","","","","","","72","H","0","img/none_selected.jpg","","144","main_expt",""
"","bandit","224","686578","0.0-186.0-0.0","44110781","wem/bandit_party_1","A2TZRIS9XFZ18U","either","8","258","","","","","","","1","0","0","0.3146876691","","0.8","0.6","0.2","0.4","","","","","0.3146876691","0.1940384654","0.1211842963","0.1058600218","","","","","","","","","","72","H","0","img/none_selected.jpg","","145","main_expt",""
"","bandit","225","688499","0.0-187.0-0.0","44110781","wem/bandit_party_1","A2TZRIS9XFZ18U","either","8","372","","","","","","","1","0","0","0.3526806189","","0.8","0.6","0.2","0.4","","","","","0.3526806189","0.2532022814","0.06212451067","0.1862633901","","","","","","","","","","72","H","0","img/none_selected.jpg","","146","main_expt",""
"","bandit","226","690438","0.0-188.0-0.0","44110781","wem/bandit_party_1","A2TZRIS9XFZ18U","either","8","399","","","","","","","0","0","1","","0.3859334927","0.8","0.6","0.2","0.4","0.3859334927","0.272856749","0.05826033827","0.1944793183","","","","","","","","","","","","","","72","H","0","img/none_selected.jpg","","147","main_expt",""
"","bandit","227","692570","0.0-189.0-0.0","44110781","wem/bandit_party_1","A2TZRIS9XFZ18U","either","8","584","","","","","","","0","0","1","","0.04847575149","0.8","0.6","0.2","0.4","0.4089873985","0.2441255329","0.04847575149","0.1572605535","","","","","","","","","","","","","","75","K","2","","","148","main_expt",""
"","bandit","228","694472","0.0-190.0-0.0","44110781","wem/bandit_party_1","A2TZRIS9XFZ18U","either","8","360","","","","","","","0","0","1","0.1632070519","","0.8","0.6","0.2","0.4","","","","","0.3317076441","0.2304797635","0.07397138717","0.1632070519","","","","","","","","","","76","L","3","","","149","main_expt",""
"","bandit","229","697316","0.0-191.0-0.0","44110781","wem/bandit_party_1","A2TZRIS9XFZ18U","either","8","1308","","","","","","","1","0","0","0.2162169298","","0.8","0.6","0.2","0.4","","","","","0.2514439341","0.2645424191","0.1178437277","0.2162169298","","","","","","","","","","76","L","3","","","150","main_expt",""
"","bandit","230","699454","0.0-192.0-0.0","44110781","wem/bandit_party_1","A2TZRIS9XFZ18U","either","8","614","","","","","","","0","0","1","","0.2806681102","0.8","0.6","0.2","0.4","0.2209696772","0.2919476008","0.1116740648","0.2806681102","","","","","","","","","","","","","","76","L","3","","","151","main_expt",""
"","bandit","231","701344","0.0-193.0-0.0","44110781","wem/bandit_party_1","A2TZRIS9XFZ18U","either","8","348","","","","","","","0","0","1","","0.25223767","0.8","0.6","0.2","0.4","0.2004300668","0.3004198658","0.09681320826","0.25223767","","","","","","","","","","","","","","76","L","3","","","152","main_expt",""
"","bandit","232","703226","0.0-194.0-0.0","44110781","wem/bandit_party_1","A2TZRIS9XFZ18U","either","8","340","","","","","","","1","0","0","0.2910243242","","0.8","0.6","0.2","0.4","","","","","0.1803159607","0.2910243242","0.1162344283","0.2259503681","","","","","","","","","","74","J","1","","","153","main_expt",""
"","bandit","233","705283","0.0-195.0-0.0","44110781","wem/bandit_party_1","A2TZRIS9XFZ18U","either","8","498","","","","","","","0","0","1","","0.2858680692","0.8","0.6","0.2","0.4","0.1793353988","0.2858680692","0.1441765144","0.2520515582","","","","","","","","","","","","","","74","J","1","","","154","main_expt",""
"","bandit","234","707292","0.0-196.0-0.0","44110781","wem/bandit_party_1","A2TZRIS9XFZ18U","either","8","456","","","","","","","0","0","1","","0.1506434262","0.8","0.6","0.2","0.4","0.175125938","0.276906037","0.1506434262","0.246895917","","","","","","","","","","","","","","75","K","2","","","155","main_expt",""
"","bandit","235","709619","0.0-197.0-0.0","44110781","wem/bandit_party_1","A2TZRIS9XFZ18U","either","8","788","","","","","","","0","0","1","","0.19004546","0.8","0.6","0.2","0.4","0.19004546","0.3087514371","0.1691825384","0.2067462234","","","","","","","","","","","","","","72","H","0","img/none_selected.jpg","","156","main_expt",""
"","bandit","236","711799","0.0-198.0-0.0","44110781","wem/bandit_party_1","A2TZRIS9XFZ18U","either","8","641","","","","","","","0","0","1","","0.1538528063","0.8","0.6","0.2","0.4","0.1538528063","0.3400763937","0.1465267651","0.1736677602","","","","","","","","","","","","","","72","H","0","img/none_selected.jpg","","157","main_expt",""
"","bandit","237","713777","0.0-199.0-0.0","44110781","wem/bandit_party_1","A2TZRIS9XFZ18U","either","8","432","","","","","","","0","1","0","","0.1624419901","0.8","0.6","0.2","0.4","0.1624419901","0.3388441277","0.1517260174","0.2437422656","","","","","","","","","","","","","","72","H","0","img/none_selected.jpg","","158","main_expt",""
"","bandit","238","715641","0.0-200.0-0.0","44110781","wem/bandit_party_1","A2TZRIS9XFZ18U","either","8","326","","","","","","","0","0","1","0.1749682205","","0.8","0.6","0.2","0.4","","","","","0.1749682205","0.3496437485","0.143579764","0.2627628197","","","","","","","","","","72","H","0","img/none_selected.jpg","","159","main_expt",""
"","bandit","239","717869","0.0-201.0-0.0","44110781","wem/bandit_party_1","A2TZRIS9XFZ18U","either","8","668","","","","","","","0","0","1","0.3347491532","","0.8","0.6","0.2","0.4","","","","","0.2227833177","0.3347491532","0.1701049762","0.2532756584","","","","","","","","","","74","J","1","","","160","main_expt",""
"","bandit","240","720036","0.0-202.0-0.0","44110781","wem/bandit_party_1","A2TZRIS9XFZ18U","either","8","577","","","","","","","0","1","0","","0.1596038406","0.8","0.6","0.2","0.4","0.1616195486","0.3036625801","0.1596038406","0.2846030245","","","","","","","","","","","","","","75","K","2","","","161","main_expt",""
"","bandit","241","722023","0.0-203.0-0.0","44110781","wem/bandit_party_1","A2TZRIS9XFZ18U","either","8","440","","","","","","","0","0","1","0.1186271452","","0.8","0.6","0.2","0.4","","","","","0.1440802068","0.2735804545","0.1186271452","0.2480450928","","","","","","","","","","75","K","2","","","162","main_expt",""
"","bandit","242","724273","0.0-204.0-0.0","44110781","wem/bandit_party_1","A2TZRIS9XFZ18U","either","8","721","","","","","","","0","0","1","0.3217860246","","0.8","0.6","0.2","0.4","","","","","0.1349250059","0.2219233964","0.1460830151","0.3217860246","","","","","","","","","","76","L","3","","","163","main_expt",""
"","bandit","243","726384","0.0-205.0-0.0","44110781","wem/bandit_party_1","A2TZRIS9XFZ18U","either","8","575","","","","","","","0","1","0","","0.3528623486","0.8","0.6","0.2","0.4","0.1482528248","0.2489701673","0.1924179555","0.3528623486","","","","","","","","","","","","","","76","L","3","","","164","main_expt",""
"","bandit","244","728338","0.0-206.0-0.0","44110781","wem/bandit_party_1","A2TZRIS9XFZ18U","either","8","400","","","","","","","0","0","1","","0.3113737792","0.8","0.6","0.2","0.4","0.1444116863","0.2424219606","0.1909643941","0.3113737792","","","","","","","","","","","","","","76","L","3","","","165","main_expt",""
"","bandit","245","730160","0.0-207.0-0.0","44110781","wem/bandit_party_1","A2TZRIS9XFZ18U","either","8","281","","","","","","","1","0","0","0.2820045276","","0.8","0.6","0.2","0.4","","","","","0.1621449425","0.1899742571","0.1917506842","0.2820045276","","","","","","","","","","76","L","3","","","166","main_expt",""
"","bandit","246","732120","0.0-208.0-0.0","44110781","wem/bandit_party_1","A2TZRIS9XFZ18U","either","8","410","","","","","","","0","0","1","0.2539690707","","0.8","0.6","0.2","0.4","","","","","0.1695256229","0.2298880826","0.2238056512","0.2539690707","","","","","","","","","","76","L","3","","","167","main_expt",""
"","bandit","247","734088","0.0-209.0-0.0","44110781","wem/bandit_party_1","A2TZRIS9XFZ18U","either","8","412","","","","","","","0","1","0","","0.2132240521","0.8","0.6","0.2","0.4","0.1712445676","0.241220494","0.2132240521","0.2177565821","","","","","","","","","","","","","","75","K","2","","","168","main_expt",""
"","bandit","248","735890","0.0-210.0-0.0","44110781","wem/bandit_party_1","A2TZRIS9XFZ18U","either","8","267","","","","","","","0","0","1","","0.1363713625","0.8","0.6","0.2","0.4","0.191079104","0.2113351254","0.1363713625","0.183214586","","","","","","","","","","","","","","75","K","2","","","169","main_expt",""
"","bandit","249","737735","0.0-211.0-0.0","44110781","wem/bandit_party_1","A2TZRIS9XFZ18U","either","8","272","","","","","","","1","0","0","0.2007690262","","0.8","0.6","0.2","0.4","","","","","0.2227666825","0.2224744884","0.2007690262","0.1757282231","","","","","","","","","","75","K","2","","","170","main_expt",""
"","bandit","250","739627","0.0-212.0-0.0","44110781","wem/bandit_party_1","A2TZRIS9XFZ18U","either","8","336","","","","","","","0","0","1","","0.1238998316","0.8","0.6","0.2","0.4","0.2719914804","0.262177911","0.1238998316","0.1679331046","","","","","","","","","","","","","","75","K","2","","","171","main_expt",""
"","bandit","251","741514","0.0-213.0-0.0","44110781","wem/bandit_party_1","A2TZRIS9XFZ18U","either","8","347","","","","","","","0","0","1","0.2822992514","","0.8","0.6","0.2","0.4","","","","","0.2330128459","0.2822992514","0.09746419185","0.14560319","","","","","","","","","","74","J","1","","","172","main_expt",""
"","bandit","252","743620","0.0-214.0-0.0","44110781","wem/bandit_party_1","A2TZRIS9XFZ18U","either","8","565","","","","","","","1","0","0","0.2545762091","","0.8","0.6","0.2","0.4","","","","","0.2840251313","0.2545762091","0.1018164217","0.1341549344","","","","","","","","","","74","J","1","","","173","main_expt",""
"","bandit","253","745501","0.0-215.0-0.0","44110781","wem/bandit_party_1","A2TZRIS9XFZ18U","either","8","304","","","","","","","0","0","1","0.2838184637","","0.8","0.6","0.2","0.4","","","","","0.2739042306","0.2838184637","0.1401689619","0.1471305278","","","","","","","","","","74","J","1","","","174","main_expt",""
"","bandit","254","747315","0.0-216.0-0.0","44110781","wem/bandit_party_1","A2TZRIS9XFZ18U","either","8","256","","","","","","","0","0","1","0.3002790513","","0.8","0.6","0.2","0.4","","","","","0.3444735506","0.3002790513","0.1697524679","0.173963405","","","","","","","","","","74","J","1","","","175","main_expt",""
"","bandit","255","749211","0.0-217.0-0.0","44110781","wem/bandit_party_1","A2TZRIS9XFZ18U","either","8","324","","","","","","","0","0","1","0.3223017316","","0.8","0.6","0.2","0.4","","","","","0.3223017316","0.3771690292","0.1896898672","0.1821857965","","","","","","","","","","72","H","0","img/none_selected.jpg","","176","main_expt",""
"","bandit","256","751078","0.0-218.0-0.0","44110781","wem/bandit_party_1","A2TZRIS9XFZ18U","either","8","320","","","","","","","0","0","1","0.2964924158","","0.8","0.6","0.2","0.4","","","","","0.2964924158","0.4047809956","0.2441254625","0.1444884472","","","","","","","","","","72","H","0","img/none_selected.jpg","","177","main_expt",""
"","bandit","257","753306","0.0-219.0-0.0","44110781","wem/bandit_party_1","A2TZRIS9XFZ18U","either","8","650","","","","","","","0","0","1","","0.2427722412","0.8","0.6","0.2","0.4","0.2780576925","0.4344960837","0.2427722412","0.1207783293","","","","","","","","","","","","","","75","K","2","","","178","main_expt",""
"","bandit","258","755509","0.0-220.0-0.0","44110781","wem/bandit_party_1","A2TZRIS9XFZ18U","either","8","660","","","","","","","1","0","0","0.111585665","","0.8","0.6","0.2","0.4","","","","","0.2859751729","0.4287912686","0.2284650367","0.111585665","","","","","","","","","","76","L","3","","","179","main_expt",""
"","bandit","259","757439","0.0-221.0-0.0","44110781","wem/bandit_party_1","A2TZRIS9XFZ18U","either","8","386","","","","","","","0","1","0","","0.06891525065","0.8","0.6","0.2","0.4","0.283533164","0.4294180747","0.2694081366","0.06891525065","","","","","","","","","","","","","","76","L","3","","","180","main_expt",""
"","bandit","260","759368","0.0-222.0-0.0","44110781","wem/bandit_party_1","A2TZRIS9XFZ18U","either","8","340","","","","","","","0","0","1","","0.07407739619","0.8","0.6","0.2","0.4","0.2430023428","0.3887332701","0.2471628034","0.07407739619","","","","","","","","","","","","","","76","L","3","","","181","main_expt",""
"","bandit","261","761268","0.0-223.0-0.0","44110781","wem/bandit_party_1","A2TZRIS9XFZ18U","either","8","320","","","","","","","0","0","1","0.275372354","","0.8","0.6","0.2","0.4","","","","","0.223254837","0.3910635387","0.275372354","0.07501704201","","","","","","","","","","75","K","2","","","182","main_expt",""
"","bandit","262","762940","0.0-224.0-0.0","44110781","wem/bandit_party_1","A2TZRIS9XFZ18U","either","8","116","","","","","","","0","0","1","0.3957792538","","0.8","0.6","0.2","0.4","","","","","0.2274286797","0.3957792538","0.2378950907","0.09354103142","","","","","","","","","","74","J","1","","","183","main_expt",""
"","bandit","263","764595","0.0-225.0-0.0","44110781","wem/bandit_party_1","A2TZRIS9XFZ18U","either","8","108","","","","","","","0","0","1","","0.2485964068","0.8","0.6","0.2","0.4","0.2485964068","0.3777829694","0.2611999536","0.06673830493","","","","","","","","","","","","","","72","H","0","img/none_selected.jpg","","184","main_expt",""
"","bandit","264","766471","0.0-226.0-0.0","44110781","wem/bandit_party_1","A2TZRIS9XFZ18U","either","8","328","","","","","","","0","0","1","0.2080173303","","0.8","0.6","0.2","0.4","","","","","0.2080173303","0.4130939835","0.2799245071","0.08617836821","","","","","","","","","","72","H","0","img/none_selected.jpg","","185","main_expt",""
"","bandit","265","768089","0.0-227.0-0.0","44110781","wem/bandit_party_1","A2TZRIS9XFZ18U","either","8","64","","","","","","","0","0","1","0.2538883687","","0.8","0.6","0.2","0.4","","","","","0.2538883687","0.376930599","0.2275386122","0.05054014018","","","","","","","","","","72","H","0","img/none_selected.jpg","","186","main_expt",""
"","bandit","266","770589","0.0-228.0-0.0","44110781","wem/bandit_party_1","A2TZRIS9XFZ18U","either","8","936","","","","","","","0","0","1","0.3934592684","","0.8","0.6","0.2","0.4","","","","","0.2267652077","0.3934592684","0.2558518805","0.1101456656","","","","","","","","","","74","J","1","","","187","main_expt",""
"","bandit","267","772149","0.0-229.0-0.0","44110781","wem/bandit_party_1","A2TZRIS9XFZ18U","either","8","4","","","","","","","0","0","1","","0.2757393749","0.8","0.6","0.2","0.4","0.2583789709","0.4086060551","0.2757393749","0.1076418148","","","","","","","","","","","","","","75","K","2","","","188","main_expt",""
"","bandit","268","774154","0.0-230.0-0.0","44110781","wem/bandit_party_1","A2TZRIS9XFZ18U","either","8","450","","","","","","","0","0","1","","0.3326758055","0.8","0.6","0.2","0.4","0.2329768584","0.447145564","0.3326758055","0.1230456027","","","","","","","","","","","","","","75","K","2","","","189","main_expt",""
"","bandit","269","776154","0.0-231.0-0.0","44110781","wem/bandit_party_1","A2TZRIS9XFZ18U","either","8","424","","","","","","","0","0","1","","0.1872873117","0.8","0.6","0.2","0.4","0.2002510669","0.386091063","0.332927569","0.1872873117","","","","","","","","","","","","","","76","L","3","","","190","main_expt",""
"","bandit","270","778587","0.0-232.0-0.0","44110781","wem/bandit_party_1","A2TZRIS9XFZ18U","either","8","865","","","","","","","0","0","1","0.1413073252","","0.8","0.6","0.2","0.4","","","","","0.2182600554","0.4221145333","0.3859199101","0.1413073252","","","","","","","","","","76","L","3","","","191","main_expt",""
"","bandit","271","780478","0.0-233.0-0.0","44110781","wem/bandit_party_1","A2TZRIS9XFZ18U","either","8","336","","","","","","","0","0","1","0.3913199708","","0.8","0.6","0.2","0.4","","","","","0.2681613901","0.3913199708","0.392668484","0.1868627967","","","","","","","","","","74","J","1","","","192","main_expt",""
"","bandit","272","782504","0.0-234.0-0.0","44110781","wem/bandit_party_1","A2TZRIS9XFZ18U","either","8","503","","","","","","","0","0","1","0.3035027483","","0.8","0.6","0.2","0.4","","","","","0.3035027483","0.4013624592","0.3789843676","0.2312719224","","","","","","","","","","72","H","0","img/none_selected.jpg","","193","main_expt",""
"","bandit","273","784283","0.0-235.0-0.0","44110781","wem/bandit_party_1","A2TZRIS9XFZ18U","either","8","224","","","","","","","0","0","1","","0.3668237699","0.8","0.6","0.2","0.4","0.275531754","0.3668237699","0.3689216281","0.2585201677","","","","","","","","","","","","","","74","J","1","","","194","main_expt",""
"","bandit","274","786259","0.0-236.0-0.0","44110781","wem/bandit_party_1","A2TZRIS9XFZ18U","either","8","424","","","","","","","0","0","1","","0.2786104129","0.8","0.6","0.2","0.4","0.2716401532","0.3856266791","0.4136905162","0.2786104129","","","","","","","","","","","","","","76","L","3","","","195","main_expt",""
"","bandit","275","788759","0.0-237.0-0.0","44110781","wem/bandit_party_1","A2TZRIS9XFZ18U","either","8","963","","","","","","","0","0","1","","0.2407834285","0.8","0.6","0.2","0.4","0.2814611543","0.3702439493","0.4258575101","0.2407834285","","","","","","","","","","","","","","76","L","3","","","196","main_expt",""
"","bandit","276","790560","0.0-238.0-0.0","44110781","wem/bandit_party_1","A2TZRIS9XFZ18U","either","8","244","","","","","","","0","0","1","","0.3976178043","0.8","0.6","0.2","0.4","0.2588010394","0.3665926528","0.3976178043","0.2550568011","","","","","","","","","","","","","","75","K","2","","","197","main_expt",""
"","bandit","277","793565","0.0-239.0-0.0","44110781","wem/bandit_party_1","A2TZRIS9XFZ18U","either","8","1444","","","","","","","0","1","0","","0.3432124584","0.8","0.6","0.2","0.4","0.3094610495","0.3432124584","0.3802378075","0.3094863904","","","","","","","","","","","","","","74","J","1","","","198","main_expt",""
"","bandit","278","796711","0.0-240.0-0.0","44110781","wem/bandit_party_1","A2TZRIS9XFZ18U","either","8","1614","","","","","","","0","1","0","","0.4096574544","0.8","0.6","0.2","0.4","0.3139278769","0.4096574544","0.3926800246","0.3012985694","","","","","","","","","","","","","","74","J","1","","","199","main_expt",""
"","bandit","279","799234","0.0-241.0-0.0","44110781","wem/bandit_party_1","A2TZRIS9XFZ18U","either","8","984","","","","","","","0","0","1","","0.3799023259","0.8","0.6","0.2","0.4","0.3459706187","0.3799023259","0.3814844917","0.3149132519","","","","","","","","","","","","","","74","J","1","","","200","main_expt",""
"","bandit","280","802071","0.0-242.0-0.0","44110781","wem/bandit_party_1","A2TZRIS9XFZ18U","either","8","1272","","","","","","","0","1","0","","0.3831630738","0.8","0.6","0.2","0.4","0.3038365479","0.3513783521","0.3831630738","0.3236307962","","","","","","","","","","","","","","75","K","2","","","201","main_expt",""
"","bandit","281","804768","0.0-243.0-0.0","44110781","wem/bandit_party_1","A2TZRIS9XFZ18U","either","8","1133","","","","","","","0","0","1","","0.3957430938","0.8","0.6","0.2","0.4","0.2964599608","0.3439351057","0.3957430938","0.3163717903","","","","","","","","","","","","","","75","K","2","","","202","main_expt",""
"","bandit","282","806722","0.0-244.0-0.0","44110781","wem/bandit_party_1","A2TZRIS9XFZ18U","either","8","420","","","","","","","0","0","1","","0.3165936227","0.8","0.6","0.2","0.4","0.280336616","0.2615327891","0.4175506619","0.3165936227","","","","","","","","","","","","","","76","L","3","","","203","main_expt",""
"","bandit","283","808757","0.0-245.0-0.0","44110781","wem/bandit_party_1","A2TZRIS9XFZ18U","either","8","476","","","","","","","0","0","1","0.262900641","","0.8","0.6","0.2","0.4","","","","","0.262900641","0.2211517471","0.4356800279","0.3166231072","","","","","","","","","","72","H","0","img/none_selected.jpg","","204","main_expt",""
"","bandit","284","810954","0.0-246.0-0.0","44110781","wem/bandit_party_1","A2TZRIS9XFZ18U","either","8","657","","","","","","","0","0","1","0.3403150927","","0.8","0.6","0.2","0.4","","","","","0.3403150927","0.1955747294","0.4342993254","0.2983153058","","","","","","","","","","72","H","0","img/none_selected.jpg","","205","main_expt",""
"","bandit","285","813475","0.0-247.0-0.0","44110781","wem/bandit_party_1","A2TZRIS9XFZ18U","either","8","976","","","","","","","1","0","0","0.3137251184","","0.8","0.6","0.2","0.4","","","","","0.3407188883","0.3137251184","0.4515967499","0.255573156","","","","","","","","","","74","J","1","","","206","main_expt",""
"","bandit","286","815482","0.0-248.0-0.0","44110781","wem/bandit_party_1","A2TZRIS9XFZ18U","either","8","443","","","","","","","0","0","1","","0.2982459604","0.8","0.6","0.2","0.4","0.2955601217","0.2982459604","0.4559700358","0.2816724171","","","","","","","","","","","","","","74","J","1","","","207","main_expt",""
"","bandit","287","817855","0.0-249.0-0.0","44110781","wem/bandit_party_1","A2TZRIS9XFZ18U","either","8","808","","","","","","","0","0","1","","0.4711787588","0.8","0.6","0.2","0.4","0.2832193826","0.2359404152","0.4711787588","0.2462622089","","","","","","","","","","","","","","75","K","2","","","208","main_expt",""
"","bandit","288","824197","0.0-250.0-0.0","44110781","wem/bandit_party_1","A2TZRIS9XFZ18U","either","8","4809","","","","","","","0","0","1","0.25637755","","0.8","0.6","0.2","0.4","","","","","0.25637755","0.2396635106","0.4859779177","0.2608633631","","","","","","","","","","72","H","0","img/none_selected.jpg","","209","main_expt",""
"","bandit","289","828680","0.0-251.0-0.0","44110781","wem/bandit_party_1","A2TZRIS9XFZ18U","either","8","2931","","","","","","","0","0","1","0.2649708152","","0.8","0.6","0.2","0.4","","","","","0.2500912527","0.2320506775","0.4798195452","0.2649708152","","","","","","","","","","76","L","3","","","210","main_expt",""
"","bandit","290","836574","0.0-252.0-0.0","44110781","wem/bandit_party_1","A2TZRIS9XFZ18U","either","8","6354","","","","","","","0","0","1","0.1894847828","","0.8","0.6","0.2","0.4","","","","","0.2481129288","0.1894847828","0.4754072522","0.2658594566","","","","","","","","","","74","J","1","","","211","main_expt",""
"","bandit","291","838528","0.0-253.0-0.0","44110781","wem/bandit_party_1","A2TZRIS9XFZ18U","either","8","398","","","","","","","0","0","1","","0.4780703898","0.8","0.6","0.2","0.4","0.3192168596","0.2330804604","0.4780703898","0.2648449814","","","","","","","","","","","","","","75","K","2","","","212","main_expt",""
"","bandit","292","840551","0.0-254.0-0.0","44110781","wem/bandit_party_1","A2TZRIS9XFZ18U","either","8","450","","","","","","","0","0","1","0.286492297","","0.8","0.6","0.2","0.4","","","","","0.2361953268","0.2484053244","0.4883488692","0.286492297","","","","","","","","","","76","L","3","","","213","main_expt",""
"","bandit","293","842535","0.0-255.0-0.0","44110781","wem/bandit_party_1","A2TZRIS9XFZ18U","either","8","412","","","","","","","0","0","1","","0.2308921763","0.8","0.6","0.2","0.4","0.2308921763","0.2182548364","0.4872562331","0.2540339129","","","","","","","","","","","","","","72","H","0","img/none_selected.jpg","","214","main_expt",""
"","bandit","294","844499","0.0-256.0-0.0","44110781","wem/bandit_party_1","A2TZRIS9XFZ18U","either","8","401","","","","","","","0","0","1","0.1824073789","","0.8","0.6","0.2","0.4","","","","","0.2161033537","0.1824073789","0.4749609167","0.254651127","","","","","","","","","","74","J","1","","","215","main_expt",""
"","bandit","295","846328","0.0-257.0-0.0","44110781","wem/bandit_party_1","A2TZRIS9XFZ18U","either","8","281","","","","","","","1","0","0","0.1896756427","","0.8","0.6","0.2","0.4","","","","","0.1896756427","0.1923730387","0.4798413464","0.3140517816","","","","","","","","","","72","H","0","img/none_selected.jpg","","216","main_expt",""
"","bandit","296","848252","0.0-258.0-0.0","44110781","wem/bandit_party_1","A2TZRIS9XFZ18U","either","8","368","","","","","","","0","0","1","","0.1724286307","0.8","0.6","0.2","0.4","0.1724286307","0.2266612446","0.4865144435","0.3338676317","","","","","","","","","","","","","","72","H","0","img/none_selected.jpg","","217","main_expt",""
"","bandit","297","850104","0.0-259.0-0.0","44110781","wem/bandit_party_1","A2TZRIS9XFZ18U","either","8","308","","","","","","","0","0","1","","0.4789145001","0.8","0.6","0.2","0.4","0.161168334","0.1702705737","0.4789145001","0.3397001125","","","","","","","","","","","","","","75","K","2","","","218","main_expt",""
"","bandit","298","851920","0.0-260.0-0.0","44110781","wem/bandit_party_1","A2TZRIS9XFZ18U","either","8","278","","","","","","","1","0","0","0.2982528089","","0.8","0.6","0.2","0.4","","","","","0.2021763003","0.1159766116","0.4834748692","0.2982528089","","","","","","","","","","76","L","3","","","219","main_expt",""
"","bandit","299","853753","0.0-261.0-0.0","44110781","wem/bandit_party_1","A2TZRIS9XFZ18U","either","8","275","","","","","","","0","0","1","0.2770934022","","0.8","0.6","0.2","0.4","","","","","0.2142164272","0.09529473055","0.4722371777","0.2770934022","","","","","","","","","","76","L","3","","","220","main_expt",""
"","bandit","300","855562","0.0-262.0-0.0","44110781","wem/bandit_party_1","A2TZRIS9XFZ18U","either","8","263","","","","","","","0","0","1","","0.09060922323","0.8","0.6","0.2","0.4","0.189068297","0.09060922323","0.4654689219","0.2696770889","","","","","","","","","","","","","","74","J","1","","","221","main_expt",""
"","bandit","301","857374","0.0-263.0-0.0","44110781","wem/bandit_party_1","A2TZRIS9XFZ18U","either","8","284","","","","","","","0","0","1","0.2120997892","","0.8","0.6","0.2","0.4","","","","","0.2120997892","0.1250772464","0.4533789701","0.3103502417","","","","","","","","","","72","H","0","img/none_selected.jpg","","222","main_expt",""
"","bandit","302","859202","0.0-264.0-0.0","44110781","wem/bandit_party_1","A2TZRIS9XFZ18U","either","8","290","","","","","","","0","1","0","","0.4473019993","0.8","0.6","0.2","0.4","0.1937664477","0.1177235221","0.4473019993","0.3477728299","","","","","","","","","","","","","","75","K","2","","","223","main_expt",""
"","bandit","303","861122","0.0-265.0-0.0","44110781","wem/bandit_party_1","A2TZRIS9XFZ18U","either","8","376","","","","","","","0","1","0","","0.4651086175","0.8","0.6","0.2","0.4","0.2195846313","0.1589673504","0.4651086175","0.3230244909","","","","","","","","","","","","","","75","K","2","","","224","main_expt",""
"","bandit","304","863002","0.0-266.0-0.0","44110781","wem/bandit_party_1","A2TZRIS9XFZ18U","either","8","347","","","","","","","0","0","1","","0.4704934375","0.8","0.6","0.2","0.4","0.1973587738","0.1582937281","0.4704934375","0.3641913847","","","","","","","","","","","","","","75","K","2","","","225","main_expt",""
"","bandit","305","864906","0.0-267.0-0.0","44110781","wem/bandit_party_1","A2TZRIS9XFZ18U","either","8","352","","","","","","","0","0","1","0.1585786296","","0.8","0.6","0.2","0.4","","","","","0.2029059012","0.1585786296","0.4545632724","0.3211822138","","","","","","","","","","74","J","1","","","226","main_expt",""
"","bandit","306","866758","0.0-268.0-0.0","44110781","wem/bandit_party_1","A2TZRIS9XFZ18U","either","8","316","","","","","","","0","0","1","0.1677618241","","0.8","0.6","0.2","0.4","","","","","0.1677618241","0.1614007709","0.4313330006","0.3318596792","","","","","","","","","","72","H","0","img/none_selected.jpg","","227","main_expt",""
"","bandit","307","868580","0.0-269.0-0.0","44110781","wem/bandit_party_1","A2TZRIS9XFZ18U","either","8","256","","","","","","","0","0","1","","0.3715738924","0.8","0.6","0.2","0.4","0.2079318551","0.1160982884","0.4253897179","0.3715738924","","","","","","","","","","","","","","76","L","3","","","228","main_expt",""
"","bandit","308","870438","0.0-270.0-0.0","44110781","wem/bandit_party_1","A2TZRIS9XFZ18U","either","8","324","","","","","","","0","0","1","","0.3571583743","0.8","0.6","0.2","0.4","0.1860779256","0.1327168588","0.4416009531","0.3571583743","","","","","","","","","","","","","","76","L","3","","","229","main_expt",""
"","bandit","309","872542","0.0-271.0-0.0","44110781","wem/bandit_party_1","A2TZRIS9XFZ18U","either","8","564","","","","","","","0","0","1","0.1751239199","","0.8","0.6","0.2","0.4","","","","","0.1294985144","0.1751239199","0.4612445757","0.3455313741","","","","","","","","","","74","J","1","","","230","main_expt",""
"","bandit","310","874386","0.0-272.0-0.0","44110781","wem/bandit_party_1","A2TZRIS9XFZ18U","either","8","296","","","","","","","0","0","1","","0.4455927364","0.8","0.6","0.2","0.4","0.1424139305","0.2080149414","0.4455927364","0.3114256563","","","","","","","","","","","","","","75","K","2","","","231","main_expt",""
"","bandit","311","876262","0.0-273.0-0.0","44110781","wem/bandit_party_1","A2TZRIS9XFZ18U","either","8","316","","","","","","","0","0","1","0.1777617008","","0.8","0.6","0.2","0.4","","","","","0.1777617008","0.2305008548","0.4449483857","0.3127001645","","","","","","","","","","72","H","0","img/none_selected.jpg","","232","main_expt",""
"","bandit","312","878000","0.0-274.0-0.0","44110781","wem/bandit_party_1","A2TZRIS9XFZ18U","either","8","210","","","","","","","0","1","0","","0.2953609795","0.8","0.6","0.2","0.4","0.1408291819","0.2331895239","0.4570404202","0.2953609795","","","","","","","","","","","","","","76","L","3","","","233","main_expt",""
"","bandit","313","880296","0.0-275.0-0.0","44110781","wem/bandit_party_1","A2TZRIS9XFZ18U","either","8","748","","","","","","","0","0","1","","0.2743769666","0.8","0.6","0.2","0.4","0.09563300426","0.2007149185","0.4785018613","0.2743769666","","","","","","","","","","","","","","76","L","3","","","234","main_expt",""
"","bandit","314","882387","0.0-276.0-0.0","44110781","wem/bandit_party_1","A2TZRIS9XFZ18U","either","8","534","","","","","","","0","0","1","","0.2842570603","0.8","0.6","0.2","0.4","0.06508254785","0.1428876463","0.4708517218","0.2842570603","","","","","","","","","","","","","","76","L","3","","","235","main_expt",""
"","bandit","315","884290","0.0-277.0-0.0","44110781","wem/bandit_party_1","A2TZRIS9XFZ18U","either","8","355","","","","","","","1","0","0","0.4721911582","","0.8","0.6","0.2","0.4","","","","","0.05272484418","0.1327756685","0.4721911582","0.3536106974","","","","","","","","","","75","K","2","","","236","main_expt",""
"","bandit","316","886154","0.0-278.0-0.0","44110781","wem/bandit_party_1","A2TZRIS9XFZ18U","either","8","328","","","","","","","0","0","1","","0.4567984566","0.8","0.6","0.2","0.4","0.05000735717","0.1969646424","0.4567984566","0.3777879982","","","","","","","","","","","","","","75","K","2","","","237","main_expt",""
