"consent","trial_type","trial_index","time_elapsed","internal_node_id","subjID","study","MID","cond","drift","rt","responses","button_pressed","key_press","like","value","connected","gems","bombs","no_reward","GemPrChosen","BombPrChosen","GainOverPainPr_0","GainOverPainPr_1","GainOverPainPr_2","GainOverPainPr_3","LosePr_0","LosePr_1","LosePr_2","LosePr_3","WinPr_0","WinPr_1","WinPr_2","WinPr_3","Q0","Q1","Q2","gender","age","ethnicity","label","expt_phase","target","respCharCode","respKey","respChoiceNum","respChoice","practice","trial_counter","trial_label","Q0_index"
"GDM/GDM_behavioral_consent_30min_online.html","consent","0","107076","0.0-0.0","44315914","wem/bandit_party_1","AB66CTVQ90RCV","either","5","","","","","","","","","","","","","","","","","","","","","","","","","","","","","","","","","","","","","","","","",""
"","survey-text","1","116104","0.0-1.0","44315914","wem/bandit_party_1","AB66CTVQ90RCV","either","5","8020","{""Q0"":""AB66CTVQ90RCV""}","","","","","","","","","","","","","","","","","","","","","","","","","","","","","","","","","","","","","","",""
"","button-response","2","118990","0.0-2.0","44315914","wem/bandit_party_1","AB66CTVQ90RCV","either","5","1881","","1","","","","","","","","","","","","","","","","","","","","","","","","","","","","","","","","","","","","","",""
"","text-replacement","3","134683","0.0-3.0","44315914","wem/bandit_party_1","AB66CTVQ90RCV","either","5","14688","","","32","","","","","","","","","","","","","","","","","","","","","","","","","","","","","","","","","","","","",""
"","text-replacement","4","235302","0.0-4.0","44315914","wem/bandit_party_1","AB66CTVQ90RCV","either","5","100617","","","32","","","","","","","","","","","","","","","","","","","","","","","","","","","","","","","","","","","","",""
"","identification","5","244044","0.0-6.0-0.0","44315914","wem/bandit_party_1","AB66CTVQ90RCV","either","5","8725","","","","6","3","3","","","","","","","","","","","","","","","","","","","","","","","","pre","identification_pre","the Democratic Party","","","","","","","",""
"","identification","6","252212","0.0-6.0-1.0","44315914","wem/bandit_party_1","AB66CTVQ90RCV","either","5","7161","","","","6","3","1","","","","","","","","","","","","","","","","","","","","","","","","pre","identification_pre","the Republican party","","","","","","","",""
"","text-replacement","7","263252","0.0-7.0","44315914","wem/bandit_party_1","AB66CTVQ90RCV","either","5","10039","","","32","","","","","","","","","","","","","","","","","","","","","","","","","","","","","","","","","","","","",""
"","text-replacement","8","266522","0.0-8.0","44315914","wem/bandit_party_1","AB66CTVQ90RCV","either","5","3269","","","32","","","","","","","","","","","","","","","","","","","","","","","","","","","","","","","","","","","","",""
"","text-replacement","9","278315","0.0-9.0","44315914","wem/bandit_party_1","AB66CTVQ90RCV","either","5","11791","","","32","","","","","","","","","","","","","","","","","","","","","","","","","","","","","","","","","","","","",""
"","text-replacement","10","282246","0.0-10.0","44315914","wem/bandit_party_1","AB66CTVQ90RCV","either","5","3930","","","32","","","","","","","","","","","","","","","","","","","","","","","","","","","","","","","","","","","","",""
"","text-replacement","11","287580","0.0-11.0","44315914","wem/bandit_party_1","AB66CTVQ90RCV","either","5","5334","","","32","","","","","","","","","","","","","","","","","","","","","","","","","","","","","","","","","","","","",""
"","bandit","12","291477","0.0-12.0-0.0","44315914","wem/bandit_party_1","AB66CTVQ90RCV","either","5","2391","","","","","","","0","0","1","0","0","","","","","0","","","","0","","","","","","","","","","","","","74","J","0","img/none_selected_demo.jpg","true","0","",""
"","bandit","13","294810","0.0-13.0-0.0","44315914","wem/bandit_party_1","AB66CTVQ90RCV","either","5","1828","","","","","","","0","0","1","0","0","","","","","0","","","","0","","","","","","","","","","","","","75","K","0","img/none_selected_demo.jpg","true","0","",""
"","text-replacement","14","304773","0.0-14.0","44315914","wem/bandit_party_1","AB66CTVQ90RCV","either","5","9961","","","32","","","","","","","","","","","","","","","","","","","","","","","","","","","","","","","","","","","","",""
"","text-replacement","15","310140","0.0-15.0","44315914","wem/bandit_party_1","AB66CTVQ90RCV","either","5","5367","","","32","","","","","","","","","","","","","","","","","","","","","","","","","","","","","","","","","","","","",""
"","text-replacement","16","318628","0.0-16.0","44315914","wem/bandit_party_1","AB66CTVQ90RCV","either","5","8487","","","32","","","","","","","","","","","","","","","","","","","","","","","","","","","","","","","","","","","","",""
"","text-replacement","17","328521","0.0-17.0","44315914","wem/bandit_party_1","AB66CTVQ90RCV","either","5","9892","","","32","","","","","","","","","","","","","","","","","","","","","","","","","","","","","","","","","","","","",""
"","bandit","18","333063","0.0-18.0-0.0","44315914","wem/bandit_party_1","AB66CTVQ90RCV","either","5","3035","","","","","","","0","0","1","","0.8","0.5","0.5","","","0.8","0.2","","","","","","","","","","","","","","","","74","J","0","img/none_selected_demo.jpg","true","0","80_20_practice",""
"","bandit","19","336207","0.0-18.0-1.0","44315914","wem/bandit_party_1","AB66CTVQ90RCV","either","5","1639","","","","","","","1","0","0","0.8","","0.5","0.5","","","","","","","0.8","0.2","","","","","","","","","","","","74","J","0","img/none_selected_demo.jpg","true","0","80_20_practice",""
"","bandit","20","343721","0.0-18.0-2.0","44315914","wem/bandit_party_1","AB66CTVQ90RCV","either","5","6009","","","","","","","0","0","1","0.8","","0.5","0.5","","","","","","","0.8","0.2","","","","","","","","","","","","74","J","0","img/none_selected_demo.jpg","true","0","80_20_practice",""
"","bandit","21","346805","0.0-18.0-3.0","44315914","wem/bandit_party_1","AB66CTVQ90RCV","either","5","1580","","","","","","","0","0","1","0.8","","0.5","0.5","","","","","","","0.8","0.2","","","","","","","","","","","","74","J","0","img/none_selected_demo.jpg","true","0","80_20_practice",""
"","bandit","22","348944","0.0-18.0-4.0","44315914","wem/bandit_party_1","AB66CTVQ90RCV","either","5","634","","","","","","","0","0","1","","0.2","0.5","0.5","","","0.8","0.2","","","","","","","","","","","","","","","","75","K","1","","true","0","80_20_practice",""
"","bandit","23","350977","0.0-18.0-5.0","44315914","wem/bandit_party_1","AB66CTVQ90RCV","either","5","528","","","","","","","0","0","1","","0.2","0.5","0.5","","","0.8","0.2","","","","","","","","","","","","","","","","75","K","1","","true","0","80_20_practice",""
"","bandit","24","353025","0.0-18.0-6.0","44315914","wem/bandit_party_1","AB66CTVQ90RCV","either","5","546","","","","","","","0","1","0","","0.2","0.5","0.5","","","0.8","0.2","","","","","","","","","","","","","","","","75","K","1","","true","0","80_20_practice",""
"","bandit","25","354973","0.0-18.0-7.0","44315914","wem/bandit_party_1","AB66CTVQ90RCV","either","5","443","","","","","","","0","0","1","0.2","","0.5","0.5","","","","","","","0.8","0.2","","","","","","","","","","","","75","K","1","","true","0","80_20_practice",""
"","bandit","26","356859","0.0-18.0-8.0","44315914","wem/bandit_party_1","AB66CTVQ90RCV","either","5","382","","","","","","","0","0","1","0.2","","0.5","0.5","","","","","","","0.8","0.2","","","","","","","","","","","","75","K","1","","true","0","80_20_practice",""
"","bandit","27","359113","0.0-18.0-9.0","44315914","wem/bandit_party_1","AB66CTVQ90RCV","either","5","750","","","","","","","0","1","0","","0.8","0.5","0.5","","","0.8","0.2","","","","","","","","","","","","","","","","74","J","0","img/none_selected_demo.jpg","true","0","80_20_practice",""
"","bandit","28","361125","0.0-18.0-10.0","44315914","wem/bandit_party_1","AB66CTVQ90RCV","either","5","508","","","","","","","0","1","0","","0.8","0.5","0.5","","","0.8","0.2","","","","","","","","","","","","","","","","74","J","0","img/none_selected_demo.jpg","true","0","80_20_practice",""
"","bandit","29","363182","0.0-18.0-11.0","44315914","wem/bandit_party_1","AB66CTVQ90RCV","either","5","553","","","","","","","0","1","0","","0.8","0.5","0.5","","","0.8","0.2","","","","","","","","","","","","","","","","74","J","0","img/none_selected_demo.jpg","true","0","80_20_practice",""
"","bandit","30","365207","0.0-18.0-12.0","44315914","wem/bandit_party_1","AB66CTVQ90RCV","either","5","521","","","","","","","1","0","0","0.8","","0.5","0.5","","","","","","","0.8","0.2","","","","","","","","","","","","74","J","0","img/none_selected_demo.jpg","true","0","80_20_practice",""
"","bandit","31","367213","0.0-18.0-13.0","44315914","wem/bandit_party_1","AB66CTVQ90RCV","either","5","502","","","","","","","0","1","0","","0.8","0.5","0.5","","","0.8","0.2","","","","","","","","","","","","","","","","74","J","0","img/none_selected_demo.jpg","true","0","80_20_practice",""
"","bandit","32","369173","0.0-18.0-14.0","44315914","wem/bandit_party_1","AB66CTVQ90RCV","either","5","455","","","","","","","1","0","0","0.8","","0.5","0.5","","","","","","","0.8","0.2","","","","","","","","","","","","74","J","0","img/none_selected_demo.jpg","true","0","80_20_practice",""
"","bandit","33","371702","0.0-18.0-15.0","44315914","wem/bandit_party_1","AB66CTVQ90RCV","either","5","1026","","","","","","","0","0","1","","0.8","0.5","0.5","","","0.8","0.2","","","","","","","","","","","","","","","","74","J","0","img/none_selected_demo.jpg","true","0","80_20_practice",""
"","bandit","34","373664","0.0-18.0-16.0","44315914","wem/bandit_party_1","AB66CTVQ90RCV","either","5","457","","","","","","","0","1","0","","0.8","0.5","0.5","","","0.8","0.2","","","","","","","","","","","","","","","","74","J","0","img/none_selected_demo.jpg","true","0","80_20_practice",""
"","bandit","35","376015","0.0-18.0-17.0","44315914","wem/bandit_party_1","AB66CTVQ90RCV","either","5","847","","","","","","","0","1","0","","0.8","0.5","0.5","","","0.8","0.2","","","","","","","","","","","","","","","","74","J","0","img/none_selected_demo.jpg","true","0","80_20_practice",""
"","bandit","36","378280","0.0-18.0-18.0","44315914","wem/bandit_party_1","AB66CTVQ90RCV","either","5","763","","","","","","","1","0","0","0.8","","0.5","0.5","","","","","","","0.8","0.2","","","","","","","","","","","","74","J","0","img/none_selected_demo.jpg","true","0","80_20_practice",""
"","bandit","37","380971","0.0-18.0-19.0","44315914","wem/bandit_party_1","AB66CTVQ90RCV","either","5","1187","","","","","","","0","1","0","","0.8","0.5","0.5","","","0.8","0.2","","","","","","","","","","","","","","","","74","J","0","img/none_selected_demo.jpg","true","0","80_20_practice",""
"","text-replacement","38","386373","0.0-19.0","44315914","wem/bandit_party_1","AB66CTVQ90RCV","either","5","5400","","","32","","","","","","","","","","","","","","","","","","","","","","","","","","","","","","","","","","","","",""
"","bandit","39","389634","0.0-20.0-0.0","44315914","wem/bandit_party_1","AB66CTVQ90RCV","either","5","1756","","","","","","","1","0","0","1","0","","","","","0","1","","","1","0","","","","","","","","","","","","74","J","0","img/none_selected_demo.jpg","true","0","",""
"","text-replacement","40","393247","0.0-21.0","44315914","wem/bandit_party_1","AB66CTVQ90RCV","either","5","3610","","","74","","","","","","","","","","","","","","","","","","","","","","","","","","","","","","","","","","","","",""
"","text-replacement","41","403289","0.0-22.0","44315914","wem/bandit_party_1","AB66CTVQ90RCV","either","5","10041","","","32","","","","","","","","","","","","","","","","","","","","","","","","","","","","","","","","","","","","",""
"","text-replacement","42","405869","0.0-23.0","44315914","wem/bandit_party_1","AB66CTVQ90RCV","either","5","2578","","","32","","","","","","","","","","","","","","","","","","","","","","","","","","","","","","","","","","","","",""
"","text-replacement","43","411412","0.0-24.0","44315914","wem/bandit_party_1","AB66CTVQ90RCV","either","5","5541","","","32","","","","","","","","","","","","","","","","","","","","","","","","","","","","","","","","","","","","",""
"","text-replacement","44","417511","0.0-25.0","44315914","wem/bandit_party_1","AB66CTVQ90RCV","either","5","6097","","","32","","","","","","","","","","","","","","","","","","","","","","","","","","","","","","","","","","","","",""
"","text-replacement","45","420551","0.0-26.0","44315914","wem/bandit_party_1","AB66CTVQ90RCV","either","5","3038","","","32","","","","","","","","","","","","","","","","","","","","","","","","","","","","","","","","","","","","",""
"","text-replacement","46","424332","0.0-27.0","44315914","wem/bandit_party_1","AB66CTVQ90RCV","either","5","3779","","","32","","","","","","","","","","","","","","","","","","","","","","","","","","","","","","","","","","","","",""
"","text-replacement","47","426926","0.0-28.0","44315914","wem/bandit_party_1","AB66CTVQ90RCV","either","5","2592","","","32","","","","","","","","","","","","","","","","","","","","","","","","","","","","","","","","","","","","",""
"","text-replacement","48","442464","0.0-29.0","44315914","wem/bandit_party_1","AB66CTVQ90RCV","either","5","15536","","","32","","","","","","","","","","","","","","","","","","","","","","","","","","","","","","","","","","","","",""
"","text-replacement","49","444418","0.0-30.0","44315914","wem/bandit_party_1","AB66CTVQ90RCV","either","5","1952","","","32","","","","","","","","","","","","","","","","","","","","","","","","","","","","","","","","","","","","",""
"","text-replacement","50","446680","0.0-31.0","44315914","wem/bandit_party_1","AB66CTVQ90RCV","either","5","2260","","","32","","","","","","","","","","","","","","","","","","","","","","","","","","","","","","","","","","","","",""
"","bandit","51","449694","0.0-32.0-0.0","44315914","wem/bandit_party_1","AB66CTVQ90RCV","either","5","1509","","","","","","","0","1","0","","0.8","0.5","0.5","0.5","0.5","0.8","0.2","0.6","0.2","","","","","","","","","","","","","","72","H","0","img/none_selected.jpg","true","0","full_practice",""
"","bandit","52","451761","0.0-32.0-1.0","44315914","wem/bandit_party_1","AB66CTVQ90RCV","either","5","559","","","","","","","0","1","0","","0.8","0.5","0.5","0.5","0.5","0.8","0.2","0.6","0.2","","","","","","","","","","","","","","72","H","0","img/none_selected.jpg","true","0","full_practice",""
"","bandit","53","453746","0.0-32.0-2.0","44315914","wem/bandit_party_1","AB66CTVQ90RCV","either","5","479","","","","","","","0","1","0","","0.8","0.5","0.5","0.5","0.5","0.8","0.2","0.6","0.2","","","","","","","","","","","","","","72","H","0","img/none_selected.jpg","true","0","full_practice",""
"","bandit","54","455653","0.0-32.0-3.0","44315914","wem/bandit_party_1","AB66CTVQ90RCV","either","5","401","","","","","","","1","0","0","0.8","","0.5","0.5","0.5","0.5","","","","","0.8","0.2","0.6","0.2","","","","","","","","","","72","H","0","img/none_selected.jpg","true","0","full_practice",""
"","bandit","55","457480","0.0-32.0-4.0","44315914","wem/bandit_party_1","AB66CTVQ90RCV","either","5","321","","","","","","","1","0","0","0.8","","0.5","0.5","0.5","0.5","","","","","0.8","0.2","0.6","0.2","","","","","","","","","","72","H","0","img/none_selected.jpg","true","0","full_practice",""
"","bandit","56","459481","0.0-32.0-5.0","44315914","wem/bandit_party_1","AB66CTVQ90RCV","either","5","496","","","","","","","0","1","0","","0.8","0.5","0.5","0.5","0.5","0.8","0.2","0.6","0.2","","","","","","","","","","","","","","72","H","0","img/none_selected.jpg","true","0","full_practice",""
"","bandit","57","461550","0.0-32.0-6.0","44315914","wem/bandit_party_1","AB66CTVQ90RCV","either","5","563","","","","","","","0","1","0","","0.8","0.5","0.5","0.5","0.5","0.8","0.2","0.6","0.2","","","","","","","","","","","","","","72","H","0","img/none_selected.jpg","true","0","full_practice",""
"","bandit","58","463511","0.0-32.0-7.0","44315914","wem/bandit_party_1","AB66CTVQ90RCV","either","5","454","","","","","","","0","1","0","","0.8","0.5","0.5","0.5","0.5","0.8","0.2","0.6","0.2","","","","","","","","","","","","","","72","H","0","img/none_selected.jpg","true","0","full_practice",""
"","bandit","59","465534","0.0-32.0-8.0","44315914","wem/bandit_party_1","AB66CTVQ90RCV","either","5","519","","","","","","","0","1","0","","0.8","0.5","0.5","0.5","0.5","0.8","0.2","0.6","0.2","","","","","","","","","","","","","","72","H","0","img/none_selected.jpg","true","0","full_practice",""
"","bandit","60","467729","0.0-32.0-9.0","44315914","wem/bandit_party_1","AB66CTVQ90RCV","either","5","689","","","","","","","0","1","0","","0.8","0.5","0.5","0.5","0.5","0.8","0.2","0.6","0.2","","","","","","","","","","","","","","72","H","0","img/none_selected.jpg","true","0","full_practice",""
"","bandit","61","469636","0.0-32.0-10.0","44315914","wem/bandit_party_1","AB66CTVQ90RCV","either","5","402","","","","","","","0","0","1","0.8","","0.5","0.5","0.5","0.5","","","","","0.8","0.2","0.6","0.2","","","","","","","","","","72","H","0","img/none_selected.jpg","true","0","full_practice",""
"","bandit","62","471382","0.0-32.0-11.0","44315914","wem/bandit_party_1","AB66CTVQ90RCV","either","5","240","","","","","","","0","0","1","0.8","","0.5","0.5","0.5","0.5","","","","","0.8","0.2","0.6","0.2","","","","","","","","","","72","H","0","img/none_selected.jpg","true","0","full_practice",""
"","bandit","63","474459","0.0-32.0-12.0","44315914","wem/bandit_party_1","AB66CTVQ90RCV","either","5","1570","","","","","","","0","0","1","0.2","","0.5","0.5","0.5","0.5","","","","","0.8","0.2","0.6","0.2","","","","","","","","","","74","J","1","","true","0","full_practice",""
"","bandit","64","476292","0.0-32.0-13.0","44315914","wem/bandit_party_1","AB66CTVQ90RCV","either","5","326","","","","","","","1","0","0","0.6","","0.5","0.5","0.5","0.5","","","","","0.8","0.2","0.6","0.2","","","","","","","","","","75","K","2","","true","0","full_practice",""
"","bandit","65","478349","0.0-32.0-14.0","44315914","wem/bandit_party_1","AB66CTVQ90RCV","either","5","551","","","","","","","0","1","0","","0.6","0.5","0.5","0.5","0.5","0.8","0.2","0.6","0.2","","","","","","","","","","","","","","75","K","2","","true","0","full_practice",""
"","bandit","66","480335","0.0-32.0-15.0","44315914","wem/bandit_party_1","AB66CTVQ90RCV","either","5","479","","","","","","","1","0","0","0.6","","0.5","0.5","0.5","0.5","","","","","0.8","0.2","0.6","0.2","","","","","","","","","","75","K","2","","true","0","full_practice",""
"","bandit","67","482250","0.0-32.0-16.0","44315914","wem/bandit_party_1","AB66CTVQ90RCV","either","5","409","","","","","","","1","0","0","0.6","","0.5","0.5","0.5","0.5","","","","","0.8","0.2","0.6","0.2","","","","","","","","","","75","K","2","","true","0","full_practice",""
"","bandit","68","483763","0.0-32.0-17.0","44315914","wem/bandit_party_1","AB66CTVQ90RCV","either","5","5","","","","","","","1","0","0","0.6","","0.5","0.5","0.5","0.5","","","","","0.8","0.2","0.6","0.2","","","","","","","","","","75","K","2","","true","0","full_practice",""
"","bandit","69","486401","0.0-32.0-18.0","44315914","wem/bandit_party_1","AB66CTVQ90RCV","either","5","1131","","","","","","","0","1","0","","0.6","0.5","0.5","0.5","0.5","0.8","0.2","0.6","0.2","","","","","","","","","","","","","","75","K","2","","true","0","full_practice",""
"","bandit","70","488426","0.0-32.0-19.0","44315914","wem/bandit_party_1","AB66CTVQ90RCV","either","5","521","","","","","","","0","1","0","","0.6","0.5","0.5","0.5","0.5","0.8","0.2","0.6","0.2","","","","","","","","","","","","","","75","K","2","","true","0","full_practice",""
"","text","71","493272","0.0-33.0","44315914","wem/bandit_party_1","AB66CTVQ90RCV","either","5","4835","","","32","","","","","","","","","","","","","","","","","","","","","","","","","","","","","","","","","","","","",""
"","text-replacement","72","1027634","0.0-34.0","44315914","wem/bandit_party_1","AB66CTVQ90RCV","either","5","533360","","","32","","","","","","","","","","","","","","","","","","","","","","","","","","","","","","","","","","","","",""
"","text-replacement","73","1031719","0.0-35.0","44315914","wem/bandit_party_1","AB66CTVQ90RCV","either","5","4082","","","32","","","","","","","","","","","","","","","","","","","","","","","","","","","","","","","","","","","","",""
"","text-replacement","74","1036876","0.0-36.0","44315914","wem/bandit_party_1","AB66CTVQ90RCV","either","5","5155","","","32","","","","","","","","","","","","","","","","","","","","","","","","","","","","","","","","","","","","",""
"","text-replacement","75","1041301","0.0-37.0","44315914","wem/bandit_party_1","AB66CTVQ90RCV","either","5","4423","","","32","","","","","","","","","","","","","","","","","","","","","","","","","","","","","","","","","","","","",""
"","text-replacement","76","1045303","0.0-38.0","44315914","wem/bandit_party_1","AB66CTVQ90RCV","either","5","3998","","","32","","","","","","","","","","","","","","","","","","","","","","","","","","","","","","","","","","","","",""
"","survey-multi-choice-replacement","77","1075272","0.0-39.0-0.0","44315914","wem/bandit_party_1","AB66CTVQ90RCV","either","5","29962","","","","","","","","","","","","","","","","","","","","","","","","Money will be added to the pool for <span style='color:blue;'>DEMOCRATS</span>","","","","","","","attn_check","","","","","","","","","0"
"","survey-multi-choice-replacement","78","1082639","0.0-40.0-0.0","44315914","wem/bandit_party_1","AB66CTVQ90RCV","either","5","6358","","","","","","","","","","","","","","","","","","","","","","","","Equal amounts of money will be added to the pool for <span style='color:blue;'>DEMOCRATS</span> and subtracted from the pool for <span style='color:red;'>REPUBLICANS</span>","","","","","","","attn_check","","","","","","","","","2"
"","survey-multi-choice-replacement","79","1086056","0.0-41.0-0.0","44315914","wem/bandit_party_1","AB66CTVQ90RCV","either","5","2407","","","","","","","","","","","","","","","","","","","","","","","","No money will be added to either pool","","","","","","","attn_check","","","","","","","","","3"
"","bandit","80","1090698","0.0-42.0-0.0","44315914","wem/bandit_party_1","AB66CTVQ90RCV","either","5","2132","","","","","","","0","0","1","","0.3340388524","0.4","0.2","0.8","0.6","0.3340388524","0.4265570961","0.1165465043","0.3897275569","","","","","","","","","","","","","","72","H","0","img/none_selected.jpg","","1","main_expt",""
"","bandit","81","1092522","0.0-43.0-0.0","44315914","wem/bandit_party_1","AB66CTVQ90RCV","either","5","318","","","","","","","0","0","1","","0.4177099958","0.4","0.2","0.8","0.6","0.3223834482","0.4177099958","0.08371899021","0.3911966266","","","","","","","","","","","","","","74","J","1","","","2","main_expt",""
"","bandit","82","1094536","0.0-44.0-0.0","44315914","wem/bandit_party_1","AB66CTVQ90RCV","either","5","509","","","","","","","0","0","1","","0.04339790364","0.4","0.2","0.8","0.6","0.3585509001","0.4192185534","0.04339790364","0.4074861021","","","","","","","","","","","","","","75","K","2","","","3","main_expt",""
"","bandit","83","1096225","0.0-45.0-0.0","44315914","wem/bandit_party_1","AB66CTVQ90RCV","either","5","182","","","","","","","0","0","1","","0.3965638453","0.4","0.2","0.8","0.6","0.3416436242","0.4241610434","0.04073472785","0.3965638453","","","","","","","","","","","","","","76","L","3","","","4","main_expt",""
"","bandit","84","1098284","0.0-46.0-0.0","44315914","wem/bandit_party_1","AB66CTVQ90RCV","either","5","552","","","","","","","0","0","1","0.3444758892","","0.4","0.2","0.8","0.6","","","","","0.3444758892","0.4284837315","0.04731773769","0.3688269119","","","","","","","","","","72","H","0","img/none_selected.jpg","","5","main_expt",""
"","bandit","85","1100113","0.0-47.0-0.0","44315914","wem/bandit_party_1","AB66CTVQ90RCV","either","5","323","","","","","","","0","1","0","","0.4328708062","0.4","0.2","0.8","0.6","0.3574177426","0.4328708062","0.05617088868","0.3865867917","","","","","","","","","","","","","","74","J","1","","","6","main_expt",""
"","bandit","86","1102125","0.0-48.0-0.0","44315914","wem/bandit_party_1","AB66CTVQ90RCV","either","5","505","","","","","","","0","1","0","","0.4176545671","0.4","0.2","0.8","0.6","0.3634052143","0.4176545671","0.05606577856","0.4294719924","","","","","","","","","","","","","","74","J","1","","","7","main_expt",""
"","bandit","87","1104055","0.0-49.0-0.0","44315914","wem/bandit_party_1","AB66CTVQ90RCV","either","5","424","","","","","","","0","0","1","0.4022395488","","0.4","0.2","0.8","0.6","","","","","0.3675420607","0.4022395488","0.09244853328","0.4210378118","","","","","","","","","","74","J","1","","","8","main_expt",""
"","bandit","88","1106020","0.0-50.0-0.0","44315914","wem/bandit_party_1","AB66CTVQ90RCV","either","5","458","","","","","","","0","1","0","","0.3929004949","0.4","0.2","0.8","0.6","0.3921196104","0.3929004949","0.1271341085","0.4502112583","","","","","","","","","","","","","","74","J","1","","","9","main_expt",""
"","bandit","89","1107816","0.0-51.0-0.0","44315914","wem/bandit_party_1","AB66CTVQ90RCV","either","5","286","","","","","","","0","0","1","","0.3863711448","0.4","0.2","0.8","0.6","0.4026182126","0.3863711448","0.1370717255","0.4452653155","","","","","","","","","","","","","","74","J","1","","","10","main_expt",""
"","bandit","90","1109453","0.0-52.0-0.0","44315914","wem/bandit_party_1","AB66CTVQ90RCV","either","5","131","","","","","","","0","0","1","","0.1275050207","0.4","0.2","0.8","0.6","0.3543069494","0.4205849279","0.1275050207","0.4352349267","","","","","","","","","","","","","","75","K","2","","","11","main_expt",""
"","bandit","91","1111134","0.0-53.0-0.0","44315914","wem/bandit_party_1","AB66CTVQ90RCV","either","5","175","","","","","","","0","0","1","","0.4525069231","0.4","0.2","0.8","0.6","0.3504097904","0.4525069231","0.122317004","0.4029030639","","","","","","","","","","","","","","74","J","1","","","12","main_expt",""
"","bandit","92","1112674","0.0-54.0-0.0","44315914","wem/bandit_party_1","AB66CTVQ90RCV","either","5","33","","","","","","","0","0","1","","0.4198147105","0.4","0.2","0.8","0.6","0.2787441393","0.4485799753","0.1251711411","0.4198147105","","","","","","","","","","","","","","76","L","3","","","13","main_expt",""
"","bandit","93","1115112","0.0-55.0-0.0","44315914","wem/bandit_party_1","AB66CTVQ90RCV","either","5","932","","","","","","","0","0","1","","0.4504049656","0.4","0.2","0.8","0.6","0.2723245106","0.4504049656","0.1380641988","0.3761312174","","","","","","","","","","","","","","74","J","1","","","14","main_expt",""
"","bandit","94","1116676","0.0-56.0-0.0","44315914","wem/bandit_party_1","AB66CTVQ90RCV","either","5","58","","","","","","","0","0","1","","0.4281165459","0.4","0.2","0.8","0.6","0.3687644442","0.4281165459","0.2010812313","0.4017507227","","","","","","","","","","","","","","74","J","1","","","15","main_expt",""
"","bandit","95","1119041","0.0-57.0-0.0","44315914","wem/bandit_party_1","AB66CTVQ90RCV","either","5","860","","","","","","","0","0","1","","0.1747275657","0.4","0.2","0.8","0.6","0.3992289848","0.4035101098","0.1747275657","0.3859888637","","","","","","","","","","","","","","75","K","2","","","16","main_expt",""
"","bandit","96","1124769","0.0-58.0-0.0","44315914","wem/bandit_party_1","AB66CTVQ90RCV","either","5","4222","","","","","","","0","0","1","","0.3706978481","0.4","0.2","0.8","0.6","0.4067061876","0.4063691663","0.1816524112","0.3706978481","","","","","","","","","","","","","","76","L","3","","","17","main_expt",""
"","bandit","97","1127344","0.0-59.0-0.0","44315914","wem/bandit_party_1","AB66CTVQ90RCV","either","5","1068","","","","","","","0","0","1","","0.3969002131","0.4","0.2","0.8","0.6","0.3969002131","0.4201618032","0.1700798448","0.3323991027","","","","","","","","","","","","","","72","H","0","img/none_selected.jpg","","18","main_expt",""
"","bandit","98","1128851","0.0-60.0-0.0","44315914","wem/bandit_party_1","AB66CTVQ90RCV","either","5","0","","","","","","","0","1","0","","0.3868389751","0.4","0.2","0.8","0.6","0.3930099592","0.3868389751","0.1998500639","0.3301718366","","","","","","","","","","","","","","74","J","1","","","19","main_expt",""
"","bandit","99","1130693","0.0-61.0-0.0","44315914","wem/bandit_party_1","AB66CTVQ90RCV","either","5","336","","","","","","","0","1","0","","0.3868875991","0.4","0.2","0.8","0.6","0.3791602553","0.3868875991","0.2418808817","0.3714618997","","","","","","","","","","","","","","74","J","1","","","20","main_expt",""
"","bandit","100","1137328","0.0-62.0-0.0","44315914","wem/bandit_party_1","AB66CTVQ90RCV","either","5","5129","","","","","","","0","1","0","","0.4253770554","0.4","0.2","0.8","0.6","0.4127515201","0.4253770554","0.2293341009","0.3621694591","","","","","","","","","","","","","","74","J","1","","","21","main_expt",""
"","bandit","101","1140131","0.0-63.0-0.0","44315914","wem/bandit_party_1","AB66CTVQ90RCV","either","5","1296","","","","","","","0","0","1","0.4285762007","","0.4","0.2","0.8","0.6","","","","","0.4164833055","0.4285762007","0.2074184163","0.3648829928","","","","","","","","","","74","J","1","","","22","main_expt",""
"","bandit","102","1142822","0.0-64.0-0.0","44315914","wem/bandit_party_1","AB66CTVQ90RCV","either","5","1184","","","","","","","0","1","0","","0.4082522222","0.4","0.2","0.8","0.6","0.4143027846","0.4082522222","0.1832507358","0.2856994719","","","","","","","","","","","","","","74","J","1","","","23","main_expt",""
"","bandit","103","1145260","0.0-65.0-0.0","44315914","wem/bandit_party_1","AB66CTVQ90RCV","either","5","931","","","","","","","0","1","0","","0.4027270218","0.4","0.2","0.8","0.6","0.3649270698","0.4027270218","0.1469425149","0.3152516524","","","","","","","","","","","","","","74","J","1","","","24","main_expt",""
"","bandit","104","1147595","0.0-66.0-0.0","44315914","wem/bandit_party_1","AB66CTVQ90RCV","either","5","828","","","","","","","0","1","0","","0.4100212433","0.4","0.2","0.8","0.6","0.392676409","0.4100212433","0.102794739","0.2778145345","","","","","","","","","","","","","","74","J","1","","","25","main_expt",""
"","bandit","105","1149564","0.0-67.0-0.0","44315914","wem/bandit_party_1","AB66CTVQ90RCV","either","5","463","","","","","","","0","1","0","","0.4190791169","0.4","0.2","0.8","0.6","0.4031565401","0.4190791169","0.1173732637","0.3170506137","","","","","","","","","","","","","","74","J","1","","","26","main_expt",""
"","bandit","106","1151426","0.0-68.0-0.0","44315914","wem/bandit_party_1","AB66CTVQ90RCV","either","5","355","","","","","","","0","1","0","","0.4527212376","0.4","0.2","0.8","0.6","0.4245959001","0.4527212376","0.08835016803","0.3223143746","","","","","","","","","","","","","","74","J","1","","","27","main_expt",""
"","bandit","107","1153243","0.0-69.0-0.0","44315914","wem/bandit_party_1","AB66CTVQ90RCV","either","5","311","","","","","","","0","0","1","","0.4480998813","0.4","0.2","0.8","0.6","0.4232885055","0.4480998813","0.1134440288","0.3234472479","","","","","","","","","","","","","","74","J","1","","","28","main_expt",""
"","bandit","108","1155227","0.0-70.0-0.0","44315914","wem/bandit_party_1","AB66CTVQ90RCV","either","5","477","","","","","","","0","0","1","","0.4628669208","0.4","0.2","0.8","0.6","0.4495512981","0.4628669208","0.1982905849","0.2881425904","","","","","","","","","","","","","","74","J","1","","","29","main_expt",""
"","bandit","109","1156994","0.0-71.0-0.0","44315914","wem/bandit_party_1","AB66CTVQ90RCV","either","5","259","","","","","","","0","0","1","","0.2366655967","0.4","0.2","0.8","0.6","0.4485299892","0.4565655028","0.2366655967","0.2326555855","","","","","","","","","","","","","","75","K","2","","","30","main_expt",""
"","bandit","110","1159502","0.0-72.0-0.0","44315914","wem/bandit_party_1","AB66CTVQ90RCV","either","5","1000","","","","","","","0","0","1","","0.4599237238","0.4","0.2","0.8","0.6","0.4599237238","0.4686031056","0.1622470467","0.2364604256","","","","","","","","","","","","","","72","H","0","img/none_selected.jpg","","31","main_expt",""
"","bandit","111","1161285","0.0-73.0-0.0","44315914","wem/bandit_party_1","AB66CTVQ90RCV","either","5","275","","","","","","","0","1","0","","0.4659582456","0.4","0.2","0.8","0.6","0.4508116693","0.4659582456","0.1771911602","0.2451982598","","","","","","","","","","","","","","74","J","1","","","32","main_expt",""
"","bandit","112","1163203","0.0-74.0-0.0","44315914","wem/bandit_party_1","AB66CTVQ90RCV","either","5","412","","","","","","","0","0","1","","0.2360369815","0.4","0.2","0.8","0.6","0.45101727","0.4810757035","0.1622836308","0.2360369815","","","","","","","","","","","","","","76","L","3","","","33","main_expt",""
"","bandit","113","1165548","0.0-75.0-0.0","44315914","wem/bandit_party_1","AB66CTVQ90RCV","either","5","838","","","","","","","0","0","1","0.4842727378","","0.4","0.2","0.8","0.6","","","","","0.4340174653","0.4842727378","0.1655985557","0.2317763892","","","","","","","","","","74","J","1","","","34","main_expt",""
"","bandit","114","1167564","0.0-76.0-0.0","44315914","wem/bandit_party_1","AB66CTVQ90RCV","either","5","507","","","","","","","0","0","1","","0.4745470136","0.4","0.2","0.8","0.6","0.4040147441","0.4745470136","0.1492797185","0.2527891731","","","","","","","","","","","","","","74","J","1","","","35","main_expt",""
"","bandit","115","1169562","0.0-77.0-0.0","44315914","wem/bandit_party_1","AB66CTVQ90RCV","either","5","490","","","","","","","0","0","1","","0.2641283143","0.4","0.2","0.8","0.6","0.4268829696","0.4440965139","0.1504543003","0.2641283143","","","","","","","","","","","","","","76","L","3","","","36","main_expt",""
"","bandit","116","1171119","0.0-78.0-0.0","44315914","wem/bandit_party_1","AB66CTVQ90RCV","either","5","51","","","","","","","0","0","1","0.1064249526","","0.4","0.2","0.8","0.6","","","","","0.4562327564","0.4544425755","0.1064249526","0.2309310423","","","","","","","","","","75","K","2","","","37","main_expt",""
"","bandit","117","1172777","0.0-79.0-0.0","44315914","wem/bandit_party_1","AB66CTVQ90RCV","either","5","152","","","","","","","0","1","0","","0.4700138218","0.4","0.2","0.8","0.6","0.4481627861","0.4700138218","0.1346530267","0.2093170459","","","","","","","","","","","","","","74","J","1","","","38","main_expt",""
"","bandit","118","1174654","0.0-80.0-0.0","44315914","wem/bandit_party_1","AB66CTVQ90RCV","either","5","370","","","","","","","0","0","1","","0.4475890948","0.4","0.2","0.8","0.6","0.4475890948","0.466948448","0.1303494481","0.1398625959","","","","","","","","","","","","","","72","H","0","img/none_selected.jpg","","39","main_expt",""
"","bandit","119","1176544","0.0-81.0-0.0","44315914","wem/bandit_party_1","AB66CTVQ90RCV","either","5","380","","","","","","","0","0","1","","0.4679256248","0.4","0.2","0.8","0.6","0.4501575696","0.4679256248","0.1492074344","0.09690087606","","","","","","","","","","","","","","74","J","1","","","40","main_expt",""
"","bandit","120","1180410","0.0-82.0-0.0","44315914","wem/bandit_party_1","AB66CTVQ90RCV","either","5","2360","","","","","","","0","0","1","0.445537573","","0.4","0.2","0.8","0.6","","","","","0.4121884666","0.445537573","0.1370672299","0.1129569356","","","","","","","","","","74","J","1","","","41","main_expt",""
"","bandit","121","1181985","0.0-83.0-0.0","44315914","wem/bandit_party_1","AB66CTVQ90RCV","either","5","67","","","","","","","0","1","0","","0.4521531226","0.4","0.2","0.8","0.6","0.4379939247","0.4521531226","0.08144147181","0.1227033228","","","","","","","","","","","","","","74","J","1","","","42","main_expt",""
"","bandit","122","1188880","0.0-84.0-0.0","44315914","wem/bandit_party_1","AB66CTVQ90RCV","either","5","5388","","","","","","","0","0","1","","0.4695072217","0.4","0.2","0.8","0.6","0.4271747655","0.4695072217","0.06793865388","0.08393287497","","","","","","","","","","","","","","74","J","1","","","43","main_expt",""
"","bandit","123","1190646","0.0-85.0-0.0","44315914","wem/bandit_party_1","AB66CTVQ90RCV","either","5","259","","","","","","","0","1","0","","0.4480494518","0.4","0.2","0.8","0.6","0.4480494518","0.4807409838","0.05295344446","0.06260074275","","","","","","","","","","","","","","72","H","0","img/none_selected.jpg","","44","main_expt",""
"","bandit","124","1192492","0.0-86.0-0.0","44315914","wem/bandit_party_1","AB66CTVQ90RCV","either","5","340","","","","","","","0","1","0","","0.4269729589","0.4","0.2","0.8","0.6","0.4269729589","0.4507048108","0.02744239742","0.08062123592","","","","","","","","","","","","","","72","H","0","img/none_selected.jpg","","45","main_expt",""
"","bandit","125","1194300","0.0-87.0-0.0","44315914","wem/bandit_party_1","AB66CTVQ90RCV","either","5","301","","","","","","","0","1","0","","0.4475746277","0.4","0.2","0.8","0.6","0.4475746277","0.4382321206","0.02347437243","0.1110847749","","","","","","","","","","","","","","72","H","0","img/none_selected.jpg","","46","main_expt",""
"","bandit","126","1196127","0.0-88.0-0.0","44315914","wem/bandit_party_1","AB66CTVQ90RCV","either","5","321","","","","","","","0","1","0","","0.4295618238","0.4","0.2","0.8","0.6","0.4295618238","0.4393937913","0.02418160198","0.05346849493","","","","","","","","","","","","","","72","H","0","img/none_selected.jpg","","47","main_expt",""
"","bandit","127","1197951","0.0-89.0-0.0","44315914","wem/bandit_party_1","AB66CTVQ90RCV","either","5","317","","","","","","","0","0","1","","0.4431907244","0.4","0.2","0.8","0.6","0.4431907244","0.440318131","0.01182676654","0.04499733497","","","","","","","","","","","","","","72","H","0","img/none_selected.jpg","","48","main_expt",""
"","bandit","128","1199792","0.0-90.0-0.0","44315914","wem/bandit_party_1","AB66CTVQ90RCV","either","5","332","","","","","","","0","0","1","0.4187732916","","0.4","0.2","0.8","0.6","","","","","0.4187732916","0.4362102412","0.0186287842","0.07378534534","","","","","","","","","","72","H","0","img/none_selected.jpg","","49","main_expt",""
"","bandit","129","1201535","0.0-91.0-0.0","44315914","wem/bandit_party_1","AB66CTVQ90RCV","either","5","235","","","","","","","0","0","1","0.02550629551","","0.4","0.2","0.8","0.6","","","","","0.356579213","0.44488671","0.02550629551","0.06168845619","","","","","","","","","","75","K","2","","","50","main_expt",""
"","bandit","130","1203299","0.0-92.0-0.0","44315914","wem/bandit_party_1","AB66CTVQ90RCV","either","5","256","","","","","","","0","1","0","","0.2629404955","0.4","0.2","0.8","0.6","0.2629404955","0.4633405548","0.04366809707","0.1062028567","","","","","","","","","","","","","","72","H","0","img/none_selected.jpg","","51","main_expt",""
"","bandit","131","1205277","0.0-93.0-0.0","44315914","wem/bandit_party_1","AB66CTVQ90RCV","either","5","471","","","","","","","0","0","1","","0.2919747068","0.4","0.2","0.8","0.6","0.2919747068","0.4528043762","0.04357168116","0.1379608546","","","","","","","","","","","","","","72","H","0","img/none_selected.jpg","","52","main_expt",""
"","bandit","132","1206993","0.0-94.0-0.0","44315914","wem/bandit_party_1","AB66CTVQ90RCV","either","5","209","","","","","","","0","0","1","","0.3809901122","0.4","0.2","0.8","0.6","0.3809901122","0.4390431751","0.03899227154","0.1356826849","","","","","","","","","","","","","","72","H","0","img/none_selected.jpg","","53","main_expt",""
"","bandit","133","1208849","0.0-95.0-0.0","44315914","wem/bandit_party_1","AB66CTVQ90RCV","either","5","349","","","","","","","0","1","0","","0.1038772241","0.4","0.2","0.8","0.6","0.3452518694","0.4549270822","0.04009146386","0.1038772241","","","","","","","","","","","","","","76","L","3","","","54","main_expt",""
"","bandit","134","1210766","0.0-96.0-0.0","44315914","wem/bandit_party_1","AB66CTVQ90RCV","either","5","409","","","","","","","0","0","1","","0.1689791829","0.4","0.2","0.8","0.6","0.3263112327","0.4710341864","0.0155768565","0.1689791829","","","","","","","","","","","","","","76","L","3","","","55","main_expt",""
"","bandit","135","1212586","0.0-97.0-0.0","44315914","wem/bandit_party_1","AB66CTVQ90RCV","either","5","313","","","","","","","0","0","1","","0.3308963945","0.4","0.2","0.8","0.6","0.3308963945","0.4745834276","0.02112461672","0.1108888145","","","","","","","","","","","","","","72","H","0","img/none_selected.jpg","","56","main_expt",""
"","bandit","136","1214413","0.0-98.0-0.0","44315914","wem/bandit_party_1","AB66CTVQ90RCV","either","5","318","","","","","","","0","0","1","0.1206542402","","0.4","0.2","0.8","0.6","","","","","0.3150326571","0.489318572","0.0126553198","0.1206542402","","","","","","","","","","76","L","3","","","57","main_expt",""
"","bandit","137","1216064","0.0-99.0-0.0","44315914","wem/bandit_party_1","AB66CTVQ90RCV","either","5","144","","","","","","","0","0","1","0.3049116772","","0.4","0.2","0.8","0.6","","","","","0.3049116772","0.480037986","0.01131359515","0.09707343937","","","","","","","","","","72","H","0","img/none_selected.jpg","","58","main_expt",""
"","bandit","138","1217797","0.0-100.0-0.0","44315914","wem/bandit_party_1","AB66CTVQ90RCV","either","5","225","","","","","","","0","0","1","0.1044384952","","0.4","0.2","0.8","0.6","","","","","0.3050987947","0.4593461039","0.01030075821","0.1044384952","","","","","","","","","","76","L","3","","","59","main_expt",""
"","bandit","139","1219596","0.0-101.0-0.0","44315914","wem/bandit_party_1","AB66CTVQ90RCV","either","5","290","","","","","","","0","0","1","0.005868957973","","0.4","0.2","0.8","0.6","","","","","0.3274009355","0.446051488","0.005868957973","0.08890369623","","","","","","","","","","75","K","2","","","60","main_expt",""
"","bandit","140","1221311","0.0-102.0-0.0","44315914","wem/bandit_party_1","AB66CTVQ90RCV","either","5","209","","","","","","","0","0","1","","0.4391285327","0.4","0.2","0.8","0.6","0.3428943983","0.4391285327","0.004361943215","0.08921221942","","","","","","","","","","","","","","74","J","1","","","61","main_expt",""
"","bandit","141","1223036","0.0-103.0-0.0","44315914","wem/bandit_party_1","AB66CTVQ90RCV","either","5","218","","","","","","","0","0","1","0.09812025034","","0.4","0.2","0.8","0.6","","","","","0.3549763931","0.4063883723","0.005208412743","0.09812025034","","","","","","","","","","76","L","3","","","62","main_expt",""
"","bandit","142","1224694","0.0-104.0-0.0","44315914","wem/bandit_party_1","AB66CTVQ90RCV","either","5","149","","","","","","","0","0","1","0.09006279409","","0.4","0.2","0.8","0.6","","","","","0.3496678451","0.4330387396","0.006461011255","0.09006279409","","","","","","","","","","76","L","3","","","63","main_expt",""
"","bandit","143","1226444","0.0-105.0-0.0","44315914","wem/bandit_party_1","AB66CTVQ90RCV","either","5","243","","","","","","","1","0","0","0.3188537263","","0.4","0.2","0.8","0.6","","","","","0.3188537263","0.4207902426","0.01267926231","0.1118976224","","","","","","","","","","72","H","0","img/none_selected.jpg","","64","main_expt",""
"","bandit","144","1228229","0.0-106.0-0.0","44315914","wem/bandit_party_1","AB66CTVQ90RCV","either","5","277","","","","","","","0","0","1","","0.3191795336","0.4","0.2","0.8","0.6","0.3191795336","0.3719582347","0.009732787917","0.1053817613","","","","","","","","","","","","","","72","H","0","img/none_selected.jpg","","65","main_expt",""
"","bandit","145","1229995","0.0-107.0-0.0","44315914","wem/bandit_party_1","AB66CTVQ90RCV","either","5","257","","","","","","","0","0","1","","0.268616347","0.4","0.2","0.8","0.6","0.268616347","0.3748569955","0.01092542651","0.1307356695","","","","","","","","","","","","","","72","H","0","img/none_selected.jpg","","66","main_expt",""
"","bandit","146","1231728","0.0-108.0-0.0","44315914","wem/bandit_party_1","AB66CTVQ90RCV","either","5","225","","","","","","","0","0","1","0.1418436428","","0.4","0.2","0.8","0.6","","","","","0.259194563","0.335252031","0.02125534741","0.1418436428","","","","","","","","","","76","L","3","","","67","main_expt",""
"","bandit","147","1233467","0.0-109.0-0.0","44315914","wem/bandit_party_1","AB66CTVQ90RCV","either","5","231","","","","","","","0","1","0","","0.2281204868","0.4","0.2","0.8","0.6","0.2281204868","0.3199157278","0.02360283027","0.1459089566","","","","","","","","","","","","","","72","H","0","img/none_selected.jpg","","68","main_expt",""
"","bandit","148","1235209","0.0-110.0-0.0","44315914","wem/bandit_party_1","AB66CTVQ90RCV","either","5","235","","","","","","","0","0","1","","0.2195844169","0.4","0.2","0.8","0.6","0.2195844169","0.3068525281","0.02539305756","0.1809721424","","","","","","","","","","","","","","72","H","0","img/none_selected.jpg","","69","main_expt",""
"","bandit","149","1236961","0.0-111.0-0.0","44315914","wem/bandit_party_1","AB66CTVQ90RCV","either","5","245","","","","","","","0","0","1","","0.1883338509","0.4","0.2","0.8","0.6","0.1883338509","0.3181076016","0.05014388586","0.1784068974","","","","","","","","","","","","","","72","H","0","img/none_selected.jpg","","70","main_expt",""
"","bandit","150","1238662","0.0-112.0-0.0","44315914","wem/bandit_party_1","AB66CTVQ90RCV","either","5","195","","","","","","","0","0","1","","0.1639708178","0.4","0.2","0.8","0.6","0.1639708178","0.2926426422","0.04209054697","0.1973023396","","","","","","","","","","","","","","72","H","0","img/none_selected.jpg","","71","main_expt",""
"","bandit","151","1240409","0.0-113.0-0.0","44315914","wem/bandit_party_1","AB66CTVQ90RCV","either","5","239","","","","","","","0","0","1","","0.1312842785","0.4","0.2","0.8","0.6","0.1312842785","0.2380263643","0.05611199342","0.2436342847","","","","","","","","","","","","","","72","H","0","img/none_selected.jpg","","72","main_expt",""
"","bandit","152","1242047","0.0-114.0-0.0","44315914","wem/bandit_party_1","AB66CTVQ90RCV","either","5","132","","","","","","","0","1","0","","0.2407197948","0.4","0.2","0.8","0.6","0.1805041857","0.2407197948","0.05293238473","0.1992173182","","","","","","","","","","","","","","74","J","1","","","73","main_expt",""
"","bandit","153","1243822","0.0-115.0-0.0","44315914","wem/bandit_party_1","AB66CTVQ90RCV","either","5","266","","","","","","","1","0","0","0.2317468449","","0.4","0.2","0.8","0.6","","","","","0.1739557812","0.2317468449","0.0318456884","0.2347098304","","","","","","","","","","74","J","1","","","74","main_expt",""
"","bandit","154","1245594","0.0-116.0-0.0","44315914","wem/bandit_party_1","AB66CTVQ90RCV","either","5","264","","","","","","","0","1","0","","0.2545997551","0.4","0.2","0.8","0.6","0.2434916027","0.2545997551","0.03873230677","0.2641442137","","","","","","","","","","","","","","74","J","1","","","75","main_expt",""
"","bandit","155","1247329","0.0-117.0-0.0","44315914","wem/bandit_party_1","AB66CTVQ90RCV","either","5","227","","","","","","","0","0","1","","0.2890845388","0.4","0.2","0.8","0.6","0.2438468568","0.2890845388","0.03304947682","0.3192644053","","","","","","","","","","","","","","74","J","1","","","76","main_expt",""
"","bandit","156","1249366","0.0-118.0-0.0","44315914","wem/bandit_party_1","AB66CTVQ90RCV","either","5","530","","","","","","","0","0","1","","0.2386362654","0.4","0.2","0.8","0.6","0.2425324642","0.2386362654","0.02607887458","0.3351132613","","","","","","","","","","","","","","74","J","1","","","77","main_expt",""
"","bandit","157","1251140","0.0-119.0-0.0","44315914","wem/bandit_party_1","AB66CTVQ90RCV","either","5","267","","","","","","","0","0","1","","0.2673679704","0.4","0.2","0.8","0.6","0.205588479","0.2673679704","0.02492981692","0.3086784207","","","","","","","","","","","","","","74","J","1","","","78","main_expt",""
"","bandit","158","1252680","0.0-120.0-0.0","44315914","wem/bandit_party_1","AB66CTVQ90RCV","either","5","30","","","","","","","0","0","1","0.01824110002","","0.4","0.2","0.8","0.6","","","","","0.213062191","0.2813811921","0.01824110002","0.3076482073","","","","","","","","","","75","K","2","","","79","main_expt",""
"","bandit","159","1254619","0.0-121.0-0.0","44315914","wem/bandit_party_1","AB66CTVQ90RCV","either","5","431","","","","","","","0","0","1","0.2419447949","","0.4","0.2","0.8","0.6","","","","","0.1852926048","0.2419447949","0.0202176162","0.3605025214","","","","","","","","","","74","J","1","","","80","main_expt",""
"","bandit","160","1256415","0.0-122.0-0.0","44315914","wem/bandit_party_1","AB66CTVQ90RCV","either","5","290","","","","","","","0","0","1","0.3286166321","","0.4","0.2","0.8","0.6","","","","","0.2332942271","0.323481111","0.0252752587","0.3286166321","","","","","","","","","","76","L","3","","","81","main_expt",""
"","bandit","161","1258243","0.0-123.0-0.0","44315914","wem/bandit_party_1","AB66CTVQ90RCV","either","5","320","","","","","","","0","0","1","0.05668457717","","0.4","0.2","0.8","0.6","","","","","0.2087797338","0.3097244961","0.05668457717","0.3459677762","","","","","","","","","","75","K","2","","","82","main_expt",""
"","bandit","162","1260036","0.0-124.0-0.0","44315914","wem/bandit_party_1","AB66CTVQ90RCV","either","5","283","","","","","","","0","0","1","","0.3092751195","0.4","0.2","0.8","0.6","0.2049979043","0.2787498647","0.07760530004","0.3092751195","","","","","","","","","","","","","","76","L","3","","","83","main_expt",""
"","bandit","163","1262926","0.0-125.0-0.0","44315914","wem/bandit_party_1","AB66CTVQ90RCV","either","5","1380","","","","","","","0","1","0","","0.2589524449","0.4","0.2","0.8","0.6","0.2151780091","0.2589524449","0.03696005566","0.3044630387","","","","","","","","","","","","","","74","J","1","","","84","main_expt",""
"","bandit","164","1265806","0.0-126.0-0.0","44315914","wem/bandit_party_1","AB66CTVQ90RCV","either","5","1373","","","","","","","0","0","1","","0.2769318636","0.4","0.2","0.8","0.6","0.1497615914","0.2769318636","0.04177257934","0.2812480587","","","","","","","","","","","","","","74","J","1","","","85","main_expt",""
"","bandit","165","1267672","0.0-127.0-0.0","44315914","wem/bandit_party_1","AB66CTVQ90RCV","either","5","360","","","","","","","0","0","1","","0.2849222391","0.4","0.2","0.8","0.6","0.1223687677","0.2849222391","0.0385770192","0.2506532223","","","","","","","","","","","","","","74","J","1","","","86","main_expt",""
"","bandit","166","1269322","0.0-128.0-0.0","44315914","wem/bandit_party_1","AB66CTVQ90RCV","either","5","145","","","","","","","0","0","1","","0.1472857413","0.4","0.2","0.8","0.6","0.1472857413","0.3131087309","0.03720252147","0.2269900387","","","","","","","","","","","","","","72","H","0","img/none_selected.jpg","","87","main_expt",""
"","bandit","167","1271139","0.0-129.0-0.0","44315914","wem/bandit_party_1","AB66CTVQ90RCV","either","5","310","","","","","","","0","0","1","","0.3038587512","0.4","0.2","0.8","0.6","0.1252586248","0.3038587512","0.06746059371","0.1504729919","","","","","","","","","","","","","","74","J","1","","","88","main_expt",""
"","bandit","168","1273110","0.0-130.0-0.0","44315914","wem/bandit_party_1","AB66CTVQ90RCV","either","5","465","","","","","","","0","1","0","","0.3308022157","0.4","0.2","0.8","0.6","0.1194927994","0.3308022157","0.04069757945","0.1382070302","","","","","","","","","","","","","","74","J","1","","","89","main_expt",""
"","bandit","169","1275191","0.0-131.0-0.0","44315914","wem/bandit_party_1","AB66CTVQ90RCV","either","5","574","","","","","","","0","0","1","","0.3574922351","0.4","0.2","0.8","0.6","0.1589750007","0.3574922351","0.07325379503","0.1364765349","","","","","","","","","","","","","","74","J","1","","","90","main_expt",""
"","bandit","170","1277142","0.0-132.0-0.0","44315914","wem/bandit_party_1","AB66CTVQ90RCV","either","5","441","","","","","","","0","0","1","","0.3729517688","0.4","0.2","0.8","0.6","0.1859960426","0.3729517688","0.06877471811","0.09318196272","","","","","","","","","","","","","","74","J","1","","","91","main_expt",""
"","bandit","171","1278938","0.0-133.0-0.0","44315914","wem/bandit_party_1","AB66CTVQ90RCV","either","5","291","","","","","","","0","0","1","","0.398352994","0.4","0.2","0.8","0.6","0.192419488","0.398352994","0.04115987362","0.06946097624","","","","","","","","","","","","","","74","J","1","","","92","main_expt",""
"","bandit","172","1280680","0.0-134.0-0.0","44315914","wem/bandit_party_1","AB66CTVQ90RCV","either","5","234","","","","","","","0","0","1","0.07078892783","","0.4","0.2","0.8","0.6","","","","","0.1716033463","0.4135860398","0.07078892783","0.08102832817","","","","","","","","","","75","K","2","","","93","main_expt",""
"","bandit","173","1283130","0.0-135.0-0.0","44315914","wem/bandit_party_1","AB66CTVQ90RCV","either","5","943","","","","","","","0","0","1","","0.1935897604","0.4","0.2","0.8","0.6","0.1935897604","0.3786880174","0.05572868433","0.1271360848","","","","","","","","","","","","","","72","H","0","img/none_selected.jpg","","94","main_expt",""
"","bandit","174","1284909","0.0-136.0-0.0","44315914","wem/bandit_party_1","AB66CTVQ90RCV","either","5","273","","","","","","","0","0","1","","0.1097592989","0.4","0.2","0.8","0.6","0.2193228015","0.3823424718","0.05056929995","0.1097592989","","","","","","","","","","","","","","76","L","3","","","95","main_expt",""
"","bandit","175","1286672","0.0-137.0-0.0","44315914","wem/bandit_party_1","AB66CTVQ90RCV","either","5","257","","","","","","","0","0","1","","0.3642725552","0.4","0.2","0.8","0.6","0.3262643469","0.3642725552","0.04159874267","0.1085490834","","","","","","","","","","","","","","74","J","1","","","96","main_expt",""
"","bandit","176","1288520","0.0-138.0-0.0","44315914","wem/bandit_party_1","AB66CTVQ90RCV","either","5","341","","","","","","","0","0","1","","0.03654451862","0.4","0.2","0.8","0.6","0.3207405496","0.3197717944","0.03654451862","0.1049812554","","","","","","","","","","","","","","75","K","2","","","97","main_expt",""
"","bandit","177","1290096","0.0-139.0-0.0","44315914","wem/bandit_party_1","AB66CTVQ90RCV","either","5","69","","","","","","","0","0","1","","0.2514424369","0.4","0.2","0.8","0.6","0.3712856991","0.2514424369","0.04190300095","0.08177978443","","","","","","","","","","","","","","74","J","1","","","98","main_expt",""
"","bandit","178","1291883","0.0-140.0-0.0","44315914","wem/bandit_party_1","AB66CTVQ90RCV","either","5","276","","","","","","","0","0","1","","0.2926772137","0.4","0.2","0.8","0.6","0.3740145378","0.2926772137","0.08742990617","0.07574087804","","","","","","","","","","","","","","74","J","1","","","99","main_expt",""
"","bandit","179","1293655","0.0-141.0-0.0","44315914","wem/bandit_party_1","AB66CTVQ90RCV","either","5","267","","","","","","","0","0","1","0.3776295542","","0.4","0.2","0.8","0.6","","","","","0.3776295542","0.234485335","0.08966523481","0.07829319678","","","","","","","","","","72","H","0","img/none_selected.jpg","","100","main_expt",""
"","bandit","180","1295372","0.0-142.0-0.0","44315914","wem/bandit_party_1","AB66CTVQ90RCV","either","5","212","","","","","","","0","0","1","0.07919243683","","0.4","0.2","0.8","0.6","","","","","0.3592666398","0.250352175","0.07849065771","0.07919243683","","","","","","","","","","76","L","3","","","101","main_expt",""
"","bandit","181","1297041","0.0-143.0-0.0","44315914","wem/bandit_party_1","AB66CTVQ90RCV","either","5","164","","","","","","","0","0","1","0.1054267613","","0.4","0.2","0.8","0.6","","","","","0.3412191773","0.2139972863","0.1054267613","0.1052753188","","","","","","","","","","75","K","2","","","102","main_expt",""
"","bandit","182","1298872","0.0-144.0-0.0","44315914","wem/bandit_party_1","AB66CTVQ90RCV","either","5","325","","","","","","","1","0","0","0.20092706","","0.4","0.2","0.8","0.6","","","","","0.3133100433","0.20092706","0.1120981937","0.1248526142","","","","","","","","","","74","J","1","","","103","main_expt",""
"","bandit","183","1300668","0.0-145.0-0.0","44315914","wem/bandit_party_1","AB66CTVQ90RCV","either","5","289","","","","","","","0","1","0","","0.2305366804","0.4","0.2","0.8","0.6","0.3219148419","0.2305366804","0.1034740879","0.142969925","","","","","","","","","","","","","","74","J","1","","","104","main_expt",""
"","bandit","184","1302541","0.0-146.0-0.0","44315914","wem/bandit_party_1","AB66CTVQ90RCV","either","5","366","","","","","","","0","1","0","","0.2102135581","0.4","0.2","0.8","0.6","0.3300892518","0.2102135581","0.07597240327","0.13947254","","","","","","","","","","","","","","74","J","1","","","105","main_expt",""
"","bandit","185","1304673","0.0-147.0-0.0","44315914","wem/bandit_party_1","AB66CTVQ90RCV","either","5","626","","","","","","","0","0","1","","0.2219457329","0.4","0.2","0.8","0.6","0.3401839058","0.2219457329","0.1124257427","0.1329526997","","","","","","","","","","","","","","74","J","1","","","106","main_expt",""
"","bandit","186","1306715","0.0-148.0-0.0","44315914","wem/bandit_party_1","AB66CTVQ90RCV","either","5","535","","","","","","","0","1","0","","0.3048423019","0.4","0.2","0.8","0.6","0.3784706915","0.3048423019","0.1133168519","0.1727290233","","","","","","","","","","","","","","74","J","1","","","107","main_expt",""
"","bandit","187","1309091","0.0-149.0-0.0","44315914","wem/bandit_party_1","AB66CTVQ90RCV","either","5","869","","","","","","","0","0","1","","0.258150515","0.4","0.2","0.8","0.6","0.3945753887","0.258150515","0.1752395656","0.1864487031","","","","","","","","","","","","","","74","J","1","","","108","main_expt",""
"","bandit","188","1310972","0.0-150.0-0.0","44315914","wem/bandit_party_1","AB66CTVQ90RCV","either","5","374","","","","","","","0","0","1","0.1859129148","","0.4","0.2","0.8","0.6","","","","","0.356827327","0.1859129148","0.1862973424","0.2463216238","","","","","","","","","","74","J","1","","","109","main_expt",""
"","bandit","189","1313069","0.0-151.0-0.0","44315914","wem/bandit_party_1","AB66CTVQ90RCV","either","5","592","","","","","","","0","0","1","","0.1371624404","0.4","0.2","0.8","0.6","0.2344179837","0.1371624404","0.2015845776","0.2431522628","","","","","","","","","","","","","","74","J","1","","","110","main_expt",""
"","bandit","190","1315292","0.0-152.0-0.0","44315914","wem/bandit_party_1","AB66CTVQ90RCV","either","5","714","","","","","","","0","0","1","0.1258232978","","0.4","0.2","0.8","0.6","","","","","0.2644823096","0.1258232978","0.2003651753","0.1757476643","","","","","","","","","","74","J","1","","","111","main_expt",""
"","bandit","191","1318259","0.0-153.0-0.0","44315914","wem/bandit_party_1","AB66CTVQ90RCV","either","5","1460","","","","","","","0","1","0","","0.1529967373","0.4","0.2","0.8","0.6","0.28311182","0.1529967373","0.21392293","0.2451518953","","","","","","","","","","","","","","74","J","1","","","112","main_expt",""
"","bandit","192","1320506","0.0-154.0-0.0","44315914","wem/bandit_party_1","AB66CTVQ90RCV","either","5","742","","","","","","","0","0","1","0.148248117","","0.4","0.2","0.8","0.6","","","","","0.2413269532","0.148248117","0.1606798039","0.2407836715","","","","","","","","","","74","J","1","","","113","main_expt",""
"","bandit","193","1322422","0.0-155.0-0.0","44315914","wem/bandit_party_1","AB66CTVQ90RCV","either","5","410","","","","","","","1","0","0","0.1562208239","","0.4","0.2","0.8","0.6","","","","","0.3100969134","0.1562208239","0.2095980235","0.3099317417","","","","","","","","","","74","J","1","","","114","main_expt",""
"","bandit","194","1324246","0.0-156.0-0.0","44315914","wem/bandit_party_1","AB66CTVQ90RCV","either","5","317","","","","","","","0","1","0","","0.2138032898","0.4","0.2","0.8","0.6","0.329842252","0.2138032898","0.2550279667","0.3180754701","","","","","","","","","","","","","","74","J","1","","","115","main_expt",""
"","bandit","195","1326446","0.0-157.0-0.0","44315914","wem/bandit_party_1","AB66CTVQ90RCV","either","5","693","","","","","","","0","0","1","0.2331260325","","0.4","0.2","0.8","0.6","","","","","0.3223706096","0.2331260325","0.2471764387","0.2919742107","","","","","","","","","","74","J","1","","","116","main_expt",""
"","bandit","196","1328266","0.0-158.0-0.0","44315914","wem/bandit_party_1","AB66CTVQ90RCV","either","5","315","","","","","","","0","0","1","","0.1826309729","0.4","0.2","0.8","0.6","0.3098408215","0.1826309729","0.2730878341","0.2799774295","","","","","","","","","","","","","","74","J","1","","","117","main_expt",""
"","bandit","197","1330082","0.0-159.0-0.0","44315914","wem/bandit_party_1","AB66CTVQ90RCV","either","5","311","","","","","","","0","1","0","","0.2071462199","0.4","0.2","0.8","0.6","0.2974554567","0.1511269107","0.2071462199","0.2646714695","","","","","","","","","","","","","","75","K","2","","","118","main_expt",""
"","bandit","198","1331873","0.0-160.0-0.0","44315914","wem/bandit_party_1","AB66CTVQ90RCV","either","5","285","","","","","","","0","0","1","0.2275232499","","0.4","0.2","0.8","0.6","","","","","0.3598468986","0.1559979654","0.2275232499","0.3179839519","","","","","","","","","","75","K","2","","","119","main_expt",""
"","bandit","199","1333659","0.0-161.0-0.0","44315914","wem/bandit_party_1","AB66CTVQ90RCV","either","5","280","","","","","","","1","0","0","0.2767559596","","0.4","0.2","0.8","0.6","","","","","0.2984373086","0.1463004055","0.2767559596","0.3302262658","","","","","","","","","","75","K","2","","","120","main_expt",""
"","bandit","200","1335414","0.0-162.0-0.0","44315914","wem/bandit_party_1","AB66CTVQ90RCV","either","5","250","","","","","","","1","0","0","0.3448590315","","0.4","0.2","0.8","0.6","","","","","0.2973090059","0.1418195479","0.3448590315","0.3500549905","","","","","","","","","","75","K","2","","","121","main_expt",""
"","bandit","201","1337163","0.0-163.0-0.0","44315914","wem/bandit_party_1","AB66CTVQ90RCV","either","5","242","","","","","","","1","0","0","0.3593301016","","0.4","0.2","0.8","0.6","","","","","0.3382791822","0.1270782113","0.3593301016","0.2686616284","","","","","","","","","","75","K","2","","","122","main_expt",""
"","bandit","202","1338966","0.0-164.0-0.0","44315914","wem/bandit_party_1","AB66CTVQ90RCV","either","5","297","","","","","","","1","0","0","0.3680529171","","0.4","0.2","0.8","0.6","","","","","0.3154347028","0.1207154071","0.3680529171","0.2277230314","","","","","","","","","","75","K","2","","","123","main_expt",""
"","bandit","203","1340731","0.0-165.0-0.0","44315914","wem/bandit_party_1","AB66CTVQ90RCV","either","5","259","","","","","","","0","0","1","0.3476523483","","0.4","0.2","0.8","0.6","","","","","0.2966737815","0.1229329119","0.3476523483","0.3287090939","","","","","","","","","","75","K","2","","","124","main_expt",""
"","bandit","204","1342521","0.0-166.0-0.0","44315914","wem/bandit_party_1","AB66CTVQ90RCV","either","5","283","","","","","","","0","0","1","0.3564603465","","0.4","0.2","0.8","0.6","","","","","0.3094831126","0.09241122996","0.3564603465","0.3687339586","","","","","","","","","","75","K","2","","","125","main_expt",""
"","bandit","205","1344367","0.0-167.0-0.0","44315914","wem/bandit_party_1","AB66CTVQ90RCV","either","5","340","","","","","","","0","0","1","0.3836195774","","0.4","0.2","0.8","0.6","","","","","0.2488993205","0.08418962236","0.3550684458","0.3836195774","","","","","","","","","","76","L","3","","","126","main_expt",""
"","bandit","206","1346162","0.0-168.0-0.0","44315914","wem/bandit_party_1","AB66CTVQ90RCV","either","5","287","","","","","","","1","0","0","0.3235559827","","0.4","0.2","0.8","0.6","","","","","0.1953487027","0.154715772","0.3235559827","0.3617365958","","","","","","","","","","75","K","2","","","127","main_expt",""
"","bandit","207","1347958","0.0-169.0-0.0","44315914","wem/bandit_party_1","AB66CTVQ90RCV","either","5","290","","","","","","","0","0","1","0.312087491","","0.4","0.2","0.8","0.6","","","","","0.2171889907","0.1556709078","0.312087491","0.3235283493","","","","","","","","","","75","K","2","","","128","main_expt",""
"","bandit","208","1349774","0.0-170.0-0.0","44315914","wem/bandit_party_1","AB66CTVQ90RCV","either","5","309","","","","","","","1","0","0","0.2843272188","","0.4","0.2","0.8","0.6","","","","","0.2467699801","0.1214200615","0.2843272188","0.3453830546","","","","","","","","","","75","K","2","","","129","main_expt",""
"","bandit","209","1351586","0.0-171.0-0.0","44315914","wem/bandit_party_1","AB66CTVQ90RCV","either","5","303","","","","","","","0","0","1","0.2128416856","","0.4","0.2","0.8","0.6","","","","","0.2814443482","0.1377283829","0.2128416856","0.3242747857","","","","","","","","","","75","K","2","","","130","main_expt",""
"","bandit","210","1353334","0.0-172.0-0.0","44315914","wem/bandit_party_1","AB66CTVQ90RCV","either","5","241","","","","","","","0","0","1","0.2403879813","","0.4","0.2","0.8","0.6","","","","","0.2834176508","0.1397421628","0.2403879813","0.3417201858","","","","","","","","","","75","K","2","","","131","main_expt",""
"","bandit","211","1355071","0.0-173.0-0.0","44315914","wem/bandit_party_1","AB66CTVQ90RCV","either","5","231","","","","","","","0","0","1","0.2811421594","","0.4","0.2","0.8","0.6","","","","","0.2429908031","0.1061875113","0.2811421594","0.3498614837","","","","","","","","","","75","K","2","","","132","main_expt",""
"","bandit","212","1356850","0.0-174.0-0.0","44315914","wem/bandit_party_1","AB66CTVQ90RCV","either","5","273","","","","","","","0","0","1","","0.07774811701","0.4","0.2","0.8","0.6","0.3053559495","0.07774811701","0.3002858371","0.3134828643","","","","","","","","","","","","","","74","J","1","","","133","main_expt",""
"","bandit","213","1358632","0.0-175.0-0.0","44315914","wem/bandit_party_1","AB66CTVQ90RCV","either","5","275","","","","","","","0","0","1","","0.2693478067","0.4","0.2","0.8","0.6","0.2693478067","0.08211281178","0.277406375","0.3554593188","","","","","","","","","","","","","","72","H","0","img/none_selected.jpg","","134","main_expt",""
"","bandit","214","1360139","0.0-176.0-0.0","44315914","wem/bandit_party_1","AB66CTVQ90RCV","either","5","1","","","","","","","0","0","1","","0.2897147582","0.4","0.2","0.8","0.6","0.3369166079","0.1123817552","0.2897147582","0.3150900126","","","","","","","","","","","","","","75","K","2","","","135","main_expt",""
"","bandit","215","1361906","0.0-177.0-0.0","44315914","wem/bandit_party_1","AB66CTVQ90RCV","either","5","260","","","","","","","0","0","1","0.3199395785","","0.4","0.2","0.8","0.6","","","","","0.268603144","0.1478339482","0.3590576628","0.3199395785","","","","","","","","","","76","L","3","","","136","main_expt",""
"","bandit","216","1363664","0.0-178.0-0.0","44315914","wem/bandit_party_1","AB66CTVQ90RCV","either","5","252","","","","","","","0","0","1","0.3822427384","","0.4","0.2","0.8","0.6","","","","","0.2373427956","0.1374936615","0.3822427384","0.33362357","","","","","","","","","","75","K","2","","","137","main_expt",""
"","bandit","217","1365430","0.0-179.0-0.0","44315914","wem/bandit_party_1","AB66CTVQ90RCV","either","5","259","","","","","","","0","0","1","","0.159761955","0.4","0.2","0.8","0.6","0.2206869265","0.159761955","0.3410071165","0.3611324022","","","","","","","","","","","","","","74","J","1","","","138","main_expt",""
"","bandit","218","1366947","0.0-180.0-0.0","44315914","wem/bandit_party_1","AB66CTVQ90RCV","either","5","12","","","","","","","0","0","1","","0.2177966349","0.4","0.2","0.8","0.6","0.2177966349","0.1363721132","0.3738014659","0.3504145086","","","","","","","","","","","","","","72","H","0","img/none_selected.jpg","","139","main_expt",""
"","bandit","219","1368740","0.0-181.0-0.0","44315914","wem/bandit_party_1","AB66CTVQ90RCV","either","5","287","","","","","","","0","1","0","","0.1031445192","0.4","0.2","0.8","0.6","0.2387685432","0.1031445192","0.422575493","0.309774603","","","","","","","","","","","","","","74","J","1","","","140","main_expt",""
"","bandit","220","1370537","0.0-182.0-0.0","44315914","wem/bandit_party_1","AB66CTVQ90RCV","either","5","290","","","","","","","0","0","1","","0.09805286369","0.4","0.2","0.8","0.6","0.2575087366","0.09805286369","0.4439129864","0.3506531288","","","","","","","","","","","","","","74","J","1","","","141","main_expt",""
"","bandit","221","1372298","0.0-183.0-0.0","44315914","wem/bandit_party_1","AB66CTVQ90RCV","either","5","254","","","","","","","0","0","1","","0.1149002948","0.4","0.2","0.8","0.6","0.2392038972","0.1149002948","0.4323802182","0.2965027242","","","","","","","","","","","","","","74","J","1","","","142","main_expt",""
"","bandit","222","1374029","0.0-184.0-0.0","44315914","wem/bandit_party_1","AB66CTVQ90RCV","either","5","227","","","","","","","0","1","0","","0.1209542099","0.4","0.2","0.8","0.6","0.2216470548","0.1209542099","0.4358412593","0.2087517366","","","","","","","","","","","","","","74","J","1","","","143","main_expt",""
"","bandit","223","1375778","0.0-185.0-0.0","44315914","wem/bandit_party_1","AB66CTVQ90RCV","either","5","243","","","","","","","0","0","1","","0.1202521083","0.4","0.2","0.8","0.6","0.2224896139","0.1202521083","0.4407373256","0.2313605626","","","","","","","","","","","","","","74","J","1","","","144","main_expt",""
"","bandit","224","1377443","0.0-186.0-0.0","44315914","wem/bandit_party_1","AB66CTVQ90RCV","either","5","160","","","","","","","0","0","1","","0.1619743669","0.4","0.2","0.8","0.6","0.1925605464","0.1619743669","0.4661091035","0.1785565547","","","","","","","","","","","","","","74","J","1","","","145","main_expt",""
"","bandit","225","1378977","0.0-187.0-0.0","44315914","wem/bandit_party_1","AB66CTVQ90RCV","either","5","28","","","","","","","0","0","1","","0.1770660648","0.4","0.2","0.8","0.6","0.2069800611","0.1664631043","0.4637097668","0.1770660648","","","","","","","","","","","","","","76","L","3","","","146","main_expt",""
"","bandit","226","1380724","0.0-188.0-0.0","44315914","wem/bandit_party_1","AB66CTVQ90RCV","either","5","240","","","","","","","0","0","1","","0.1669241763","0.4","0.2","0.8","0.6","0.2489662189","0.1669241763","0.4700491642","0.1063371611","","","","","","","","","","","","","","74","J","1","","","147","main_expt",""
"","bandit","227","1382466","0.0-189.0-0.0","44315914","wem/bandit_party_1","AB66CTVQ90RCV","either","5","235","","","","","","","0","0","1","0.1946464158","","0.4","0.2","0.8","0.6","","","","","0.1946464158","0.1581456949","0.4648109734","0.1216370817","","","","","","","","","","72","H","0","img/none_selected.jpg","","148","main_expt",""
"","bandit","228","1384248","0.0-190.0-0.0","44315914","wem/bandit_party_1","AB66CTVQ90RCV","either","5","278","","","","","","","0","0","1","0.4635511513","","0.4","0.2","0.8","0.6","","","","","0.1826562491","0.1698392466","0.4635511513","0.1024256959","","","","","","","","","","75","K","2","","","149","main_expt",""
"","bandit","229","1386067","0.0-191.0-0.0","44315914","wem/bandit_party_1","AB66CTVQ90RCV","either","5","312","","","","","","","0","0","1","","0.2140114634","0.4","0.2","0.8","0.6","0.1750473563","0.2140114634","0.4445017148","0.1371094633","","","","","","","","","","","","","","74","J","1","","","150","main_expt",""
"","bandit","230","1387833","0.0-192.0-0.0","44315914","wem/bandit_party_1","AB66CTVQ90RCV","either","5","260","","","","","","","0","0","1","","0.2392960001","0.4","0.2","0.8","0.6","0.1109536645","0.2392960001","0.4434799742","0.1702433702","","","","","","","","","","","","","","74","J","1","","","151","main_expt",""
"","bandit","231","1389594","0.0-193.0-0.0","44315914","wem/bandit_party_1","AB66CTVQ90RCV","either","5","251","","","","","","","0","0","1","0.1860489046","","0.4","0.2","0.8","0.6","","","","","0.1143086707","0.2095863317","0.4451665291","0.1860489046","","","","","","","","","","76","L","3","","","152","main_expt",""
"","bandit","232","1391373","0.0-194.0-0.0","44315914","wem/bandit_party_1","AB66CTVQ90RCV","either","5","271","","","","","","","0","0","1","0.2543258611","","0.4","0.2","0.8","0.6","","","","","0.1236290712","0.2543258611","0.4401532833","0.2117094388","","","","","","","","","","74","J","1","","","153","main_expt",""
"","bandit","233","1393243","0.0-195.0-0.0","44315914","wem/bandit_party_1","AB66CTVQ90RCV","either","5","362","","","","","","","0","0","1","","0.1600695342","0.4","0.2","0.8","0.6","0.1600695342","0.2602259906","0.4516855879","0.2072389033","","","","","","","","","","","","","","72","H","0","img/none_selected.jpg","","154","main_expt",""
"","bandit","234","1395027","0.0-196.0-0.0","44315914","wem/bandit_party_1","AB66CTVQ90RCV","either","5","275","","","","","","","0","0","1","0.4480264808","","0.4","0.2","0.8","0.6","","","","","0.1770288166","0.2750581274","0.4480264808","0.1986333914","","","","","","","","","","75","K","2","","","155","main_expt",""
"","bandit","235","1396753","0.0-197.0-0.0","44315914","wem/bandit_party_1","AB66CTVQ90RCV","either","5","214","","","","","","","0","0","1","","0.1761817894","0.4","0.2","0.8","0.6","0.1761817894","0.2438045727","0.4260414265","0.2054640346","","","","","","","","","","","","","","72","H","0","img/none_selected.jpg","","156","main_expt",""
"","bandit","236","1398373","0.0-198.0-0.0","44315914","wem/bandit_party_1","AB66CTVQ90RCV","either","5","111","","","","","","","0","0","1","0.2857025143","","0.4","0.2","0.8","0.6","","","","","0.1998830888","0.2857025143","0.4365201507","0.1810715383","","","","","","","","","","74","J","1","","","157","main_expt",""
"","bandit","237","1400021","0.0-199.0-0.0","44315914","wem/bandit_party_1","AB66CTVQ90RCV","either","5","137","","","","","","","0","0","1","","0.2118906364","0.4","0.2","0.8","0.6","0.2150354531","0.2887719476","0.4076244479","0.2118906364","","","","","","","","","","","","","","76","L","3","","","158","main_expt",""
"","bandit","238","1401796","0.0-200.0-0.0","44315914","wem/bandit_party_1","AB66CTVQ90RCV","either","5","267","","","","","","","1","0","0","0.403953851","","0.4","0.2","0.8","0.6","","","","","0.2221069796","0.2859462397","0.403953851","0.2293976715","","","","","","","","","","75","K","2","","","159","main_expt",""
"","bandit","239","1403582","0.0-201.0-0.0","44315914","wem/bandit_party_1","AB66CTVQ90RCV","either","5","277","","","","","","","0","1","0","","0.4282135537","0.4","0.2","0.8","0.6","0.2627335039","0.207432816","0.4282135537","0.2186051381","","","","","","","","","","","","","","75","K","2","","","160","main_expt",""
"","bandit","240","1405378","0.0-202.0-0.0","44315914","wem/bandit_party_1","AB66CTVQ90RCV","either","5","287","","","","","","","1","0","0","0.4479073124","","0.4","0.2","0.8","0.6","","","","","0.2922457848","0.1611694724","0.4479073124","0.2175927206","","","","","","","","","","75","K","2","","","161","main_expt",""
"","bandit","241","1407145","0.0-203.0-0.0","44315914","wem/bandit_party_1","AB66CTVQ90RCV","either","5","259","","","","","","","1","0","0","0.4456201243","","0.4","0.2","0.8","0.6","","","","","0.3040212123","0.14378348","0.4456201243","0.2370404117","","","","","","","","","","75","K","2","","","162","main_expt",""
"","bandit","242","1408855","0.0-204.0-0.0","44315914","wem/bandit_party_1","AB66CTVQ90RCV","either","5","202","","","","","","","0","0","1","0.4384930657","","0.4","0.2","0.8","0.6","","","","","0.2933359027","0.1707099899","0.4384930657","0.2778780432","","","","","","","","","","75","K","2","","","163","main_expt",""
"","bandit","243","1410625","0.0-205.0-0.0","44315914","wem/bandit_party_1","AB66CTVQ90RCV","either","5","263","","","","","","","0","0","1","","0.2643388611","0.4","0.2","0.8","0.6","0.2388203062","0.1933693166","0.4231568034","0.2643388611","","","","","","","","","","","","","","76","L","3","","","164","main_expt",""
"","bandit","244","1412657","0.0-206.0-0.0","44315914","wem/bandit_party_1","AB66CTVQ90RCV","either","5","525","","","","","","","1","0","0","0.4412535734","","0.4","0.2","0.8","0.6","","","","","0.2646204916","0.2406324952","0.4412535734","0.1967204453","","","","","","","","","","75","K","2","","","165","main_expt",""
"","bandit","245","1414433","0.0-207.0-0.0","44315914","wem/bandit_party_1","AB66CTVQ90RCV","either","5","264","","","","","","","1","0","0","0.438364003","","0.4","0.2","0.8","0.6","","","","","0.2591758032","0.2650462377","0.438364003","0.1567937345","","","","","","","","","","75","K","2","","","166","main_expt",""
"","bandit","246","1416210","0.0-208.0-0.0","44315914","wem/bandit_party_1","AB66CTVQ90RCV","either","5","266","","","","","","","1","0","0","0.4290991351","","0.4","0.2","0.8","0.6","","","","","0.1955934818","0.245875583","0.4290991351","0.1201482918","","","","","","","","","","75","K","2","","","167","main_expt",""
"","bandit","247","1417982","0.0-209.0-0.0","44315914","wem/bandit_party_1","AB66CTVQ90RCV","either","5","263","","","","","","","0","0","1","","0.4510860662","0.4","0.2","0.8","0.6","0.2090603634","0.257303599","0.4510860662","0.0936051119","","","","","","","","","","","","","","75","K","2","","","168","main_expt",""
"","bandit","248","1419714","0.0-210.0-0.0","44315914","wem/bandit_party_1","AB66CTVQ90RCV","either","5","224","","","","","","","0","0","1","0.4491424364","","0.4","0.2","0.8","0.6","","","","","0.2678479696","0.2993732043","0.4491424364","0.08775096918","","","","","","","","","","75","K","2","","","169","main_expt",""
"","bandit","249","1421497","0.0-211.0-0.0","44315914","wem/bandit_party_1","AB66CTVQ90RCV","either","5","273","","","","","","","0","0","1","","0.3388977639","0.4","0.2","0.8","0.6","0.2532125956","0.3388977639","0.4332244901","0.06743429675","","","","","","","","","","","","","","74","J","1","","","170","main_expt",""
"","bandit","250","1423298","0.0-212.0-0.0","44315914","wem/bandit_party_1","AB66CTVQ90RCV","either","5","291","","","","","","","0","0","1","0.4405036994","","0.4","0.2","0.8","0.6","","","","","0.2568627054","0.2947926635","0.4405036994","0.05979118822","","","","","","","","","","75","K","2","","","171","main_expt",""
"","bandit","251","1425037","0.0-213.0-0.0","44315914","wem/bandit_party_1","AB66CTVQ90RCV","either","5","229","","","","","","","0","0","1","0.2451563353","","0.4","0.2","0.8","0.6","","","","","0.2451563353","0.2892529657","0.4358521759","0.03200499914","","","","","","","","","","72","H","0","img/none_selected.jpg","","172","main_expt",""
"","bandit","252","1426655","0.0-214.0-0.0","44315914","wem/bandit_party_1","AB66CTVQ90RCV","either","5","107","","","","","","","1","0","0","0.4471617722","","0.4","0.2","0.8","0.6","","","","","0.3003395367","0.2571917514","0.4471617722","0.04613358223","","","","","","","","","","75","K","2","","","173","main_expt",""
"","bandit","253","1428455","0.0-215.0-0.0","44315914","wem/bandit_party_1","AB66CTVQ90RCV","either","5","292","","","","","","","1","0","0","0.4560251174","","0.4","0.2","0.8","0.6","","","","","0.2545998681","0.244173221","0.4560251174","0.05969677181","","","","","","","","","","75","K","2","","","174","main_expt",""
"","bandit","254","1430432","0.0-216.0-0.0","44315914","wem/bandit_party_1","AB66CTVQ90RCV","either","5","468","","","","","","","1","0","0","0.4379349024","","0.4","0.2","0.8","0.6","","","","","0.3383135611","0.2038098688","0.4379349024","0.05930066603","","","","","","","","","","75","K","2","","","175","main_expt",""
"","bandit","255","1432454","0.0-217.0-0.0","44315914","wem/bandit_party_1","AB66CTVQ90RCV","either","5","512","","","","","","","0","0","1","0.4328841116","","0.4","0.2","0.8","0.6","","","","","0.3880627729","0.2053823003","0.4328841116","0.08110879181","","","","","","","","","","75","K","2","","","176","main_expt",""
"","bandit","256","1434318","0.0-218.0-0.0","44315914","wem/bandit_party_1","AB66CTVQ90RCV","either","5","352","","","","","","","1","0","0","0.3965365967","","0.4","0.2","0.8","0.6","","","","","0.3920994557","0.2193083282","0.3965365967","0.07611568943","","","","","","","","","","75","K","2","","","177","main_expt",""
"","bandit","257","1436248","0.0-219.0-0.0","44315914","wem/bandit_party_1","AB66CTVQ90RCV","either","5","417","","","","","","","1","0","0","0.3899234309","","0.4","0.2","0.8","0.6","","","","","0.3882277994","0.1904263594","0.3899234309","0.1220467165","","","","","","","","","","75","K","2","","","178","main_expt",""
"","bandit","258","1438447","0.0-220.0-0.0","44315914","wem/bandit_party_1","AB66CTVQ90RCV","either","5","689","","","","","","","0","0","1","0.4238443777","","0.4","0.2","0.8","0.6","","","","","0.3939691408","0.2212788648","0.4238443777","0.1698853315","","","","","","","","","","75","K","2","","","179","main_expt",""
"","bandit","259","1440403","0.0-221.0-0.0","44315914","wem/bandit_party_1","AB66CTVQ90RCV","either","5","445","","","","","","","0","1","0","","0.4487400994","0.4","0.2","0.8","0.6","0.4074656662","0.2640717145","0.4487400994","0.1374762061","","","","","","","","","","","","","","75","K","2","","","180","main_expt",""
"","bandit","260","1442364","0.0-222.0-0.0","44315914","wem/bandit_party_1","AB66CTVQ90RCV","either","5","452","","","","","","","0","0","1","0.4314573438","","0.4","0.2","0.8","0.6","","","","","0.3724421945","0.2426483564","0.4314573438","0.09961924189","","","","","","","","","","75","K","2","","","181","main_expt",""
"","bandit","261","1444670","0.0-223.0-0.0","44315914","wem/bandit_party_1","AB66CTVQ90RCV","either","5","795","","","","","","","1","0","0","0.4458059303","","0.4","0.2","0.8","0.6","","","","","0.2998177931","0.2001563476","0.4458059303","0.1391043194","","","","","","","","","","75","K","2","","","182","main_expt",""
"","bandit","262","1446490","0.0-224.0-0.0","44315914","wem/bandit_party_1","AB66CTVQ90RCV","either","5","312","","","","","","","0","1","0","","0.4485460149","0.4","0.2","0.8","0.6","0.3629728763","0.2167094124","0.4485460149","0.1336424596","","","","","","","","","","","","","","75","K","2","","","183","main_expt",""
"","bandit","263","1448298","0.0-225.0-0.0","44315914","wem/bandit_party_1","AB66CTVQ90RCV","either","5","291","","","","","","","1","0","0","0.4078350507","","0.4","0.2","0.8","0.6","","","","","0.3763603645","0.2402813617","0.4078350507","0.115911235","","","","","","","","","","75","K","2","","","184","main_expt",""
"","bandit","264","1456274","0.0-226.0-0.0","44315914","wem/bandit_party_1","AB66CTVQ90RCV","either","5","6467","","","","","","","1","0","0","0.3805788675","","0.4","0.2","0.8","0.6","","","","","0.3472982705","0.2745112141","0.3805788675","0.1394203739","","","","","","","","","","75","K","2","","","185","main_expt",""
"","bandit","265","1458611","0.0-227.0-0.0","44315914","wem/bandit_party_1","AB66CTVQ90RCV","either","5","826","","","","","","","0","0","1","0.4236809331","","0.4","0.2","0.8","0.6","","","","","0.3095995051","0.2774566956","0.4236809331","0.1557479742","","","","","","","","","","75","K","2","","","186","main_expt",""
"","bandit","266","1460824","0.0-228.0-0.0","44315914","wem/bandit_party_1","AB66CTVQ90RCV","either","5","704","","","","","","","1","0","0","0.4058627081","","0.4","0.2","0.8","0.6","","","","","0.2567332284","0.2876011691","0.4058627081","0.1823611596","","","","","","","","","","75","K","2","","","187","main_expt",""
"","bandit","267","1463470","0.0-229.0-0.0","44315914","wem/bandit_party_1","AB66CTVQ90RCV","either","5","1137","","","","","","","0","0","1","","0.3913346521","0.4","0.2","0.8","0.6","0.2555256861","0.2947112378","0.3913346521","0.1854179297","","","","","","","","","","","","","","75","K","2","","","188","main_expt",""
"","bandit","268","1465848","0.0-230.0-0.0","44315914","wem/bandit_party_1","AB66CTVQ90RCV","either","5","867","","","","","","","0","0","1","0.3760164219","","0.4","0.2","0.8","0.6","","","","","0.2009875262","0.2581494","0.3760164219","0.1875645599","","","","","","","","","","75","K","2","","","189","main_expt",""
"","bandit","269","1467520","0.0-231.0-0.0","44315914","wem/bandit_party_1","AB66CTVQ90RCV","either","5","161","","","","","","","0","0","1","","0.2055488595","0.4","0.2","0.8","0.6","0.2055488595","0.1756323468","0.3327352817","0.2018323604","","","","","","","","","","","","","","72","H","0","img/none_selected.jpg","","190","main_expt",""
"","bandit","270","1469159","0.0-232.0-0.0","44315914","wem/bandit_party_1","AB66CTVQ90RCV","either","5","123","","","","","","","0","0","1","0.3015177445","","0.4","0.2","0.8","0.6","","","","","0.1506387864","0.2521570866","0.3015177445","0.221094727","","","","","","","","","","75","K","2","","","191","main_expt",""
"","bandit","271","1471074","0.0-233.0-0.0","44315914","wem/bandit_party_1","AB66CTVQ90RCV","either","5","406","","","","","","","0","0","1","","0.2964739449","0.4","0.2","0.8","0.6","0.2027442266","0.2964739449","0.2773298268","0.2320570195","","","","","","","","","","","","","","74","J","1","","","192","main_expt",""
"","bandit","272","1472634","0.0-234.0-0.0","44315914","wem/bandit_party_1","AB66CTVQ90RCV","either","5","50","","","","","","","0","0","1","0.2948950962","","0.4","0.2","0.8","0.6","","","","","0.1969137872","0.2612966838","0.2836613797","0.2948950962","","","","","","","","","","76","L","3","","","193","main_expt",""
"","bandit","273","1474526","0.0-235.0-0.0","44315914","wem/bandit_party_1","AB66CTVQ90RCV","either","5","384","","","","","","","0","0","1","0.2799350415","","0.4","0.2","0.8","0.6","","","","","0.2114994946","0.3292914436","0.2799350415","0.2602906927","","","","","","","","","","75","K","2","","","194","main_expt",""
"","bandit","274","1476260","0.0-236.0-0.0","44315914","wem/bandit_party_1","AB66CTVQ90RCV","either","5","223","","","","","","","0","0","1","","0.1771499101","0.4","0.2","0.8","0.6","0.2467939011","0.4070308407","0.2068597772","0.1771499101","","","","","","","","","","","","","","76","L","3","","","195","main_expt",""
"","bandit","275","1477771","0.0-237.0-0.0","44315914","wem/bandit_party_1","AB66CTVQ90RCV","either","5","1","","","","","","","0","0","1","0.2731811988","","0.4","0.2","0.8","0.6","","","","","0.2731811988","0.3494820729","0.2679469531","0.1746274925","","","","","","","","","","72","H","0","img/none_selected.jpg","","196","main_expt",""
"","bandit","276","1479334","0.0-238.0-0.0","44315914","wem/bandit_party_1","AB66CTVQ90RCV","either","5","53","","","","","","","0","1","0","","0.3571939809","0.4","0.2","0.8","0.6","0.2512114903","0.3571939809","0.2448078588","0.193224684","","","","","","","","","","","","","","74","J","1","","","197","main_expt",""
"","bandit","277","1481113","0.0-239.0-0.0","44315914","wem/bandit_party_1","AB66CTVQ90RCV","either","5","268","","","","","","","0","0","1","0.382430028","","0.4","0.2","0.8","0.6","","","","","0.190651112","0.382430028","0.2433987968","0.1771509929","","","","","","","","","","74","J","1","","","198","main_expt",""
"","bandit","278","1482889","0.0-240.0-0.0","44315914","wem/bandit_party_1","AB66CTVQ90RCV","either","5","266","","","","","","","1","0","0","0.3353474301","","0.4","0.2","0.8","0.6","","","","","0.1701189695","0.3353474301","0.2653624242","0.2466668772","","","","","","","","","","74","J","1","","","199","main_expt",""
"","bandit","279","1484726","0.0-241.0-0.0","44315914","wem/bandit_party_1","AB66CTVQ90RCV","either","5","328","","","","","","","0","1","0","","0.3321976498","0.4","0.2","0.8","0.6","0.1656975488","0.3321976498","0.2551376492","0.2477816141","","","","","","","","","","","","","","74","J","1","","","200","main_expt",""
"","bandit","280","1486564","0.0-242.0-0.0","44315914","wem/bandit_party_1","AB66CTVQ90RCV","either","5","328","","","","","","","0","0","1","","0.3218117355","0.4","0.2","0.8","0.6","0.1647298582","0.3218117355","0.2660639347","0.2744817861","","","","","","","","","","","","","","74","J","1","","","201","main_expt",""
"","bandit","281","1488350","0.0-243.0-0.0","44315914","wem/bandit_party_1","AB66CTVQ90RCV","either","5","272","","","","","","","0","1","0","","0.2949214693","0.4","0.2","0.8","0.6","0.1242041815","0.2949214693","0.2220900594","0.3043062986","","","","","","","","","","","","","","74","J","1","","","202","main_expt",""
"","bandit","282","1490173","0.0-244.0-0.0","44315914","wem/bandit_party_1","AB66CTVQ90RCV","either","5","312","","","","","","","0","0","1","","0.300077299","0.4","0.2","0.8","0.6","0.1684487429","0.300077299","0.1543353204","0.272185569","","","","","","","","","","","","","","74","J","1","","","203","main_expt",""
"","bandit","283","1492003","0.0-245.0-0.0","44315914","wem/bandit_party_1","AB66CTVQ90RCV","either","5","320","","","","","","","0","0","1","","0.2610767704","0.4","0.2","0.8","0.6","0.1666409686","0.2866085977","0.1605482003","0.2610767704","","","","","","","","","","","","","","76","L","3","","","204","main_expt",""
"","bandit","284","1493862","0.0-246.0-0.0","44315914","wem/bandit_party_1","AB66CTVQ90RCV","either","5","350","","","","","","","0","0","1","","0.2695546272","0.4","0.2","0.8","0.6","0.2197286508","0.2695546272","0.1406914754","0.2832615928","","","","","","","","","","","","","","74","J","1","","","205","main_expt",""
"","bandit","285","1495528","0.0-247.0-0.0","44315914","wem/bandit_party_1","AB66CTVQ90RCV","either","5","156","","","","","","","0","0","1","","0.2622178416","0.4","0.2","0.8","0.6","0.2754509052","0.2622178416","0.1138947463","0.300913322","","","","","","","","","","","","","","74","J","1","","","206","main_expt",""
"","bandit","286","1497081","0.0-248.0-0.0","44315914","wem/bandit_party_1","AB66CTVQ90RCV","either","5","44","","","","","","","1","0","0","0.1096702189","","0.4","0.2","0.8","0.6","","","","","0.2664869377","0.2498186578","0.1096702189","0.3260258847","","","","","","","","","","75","K","2","","","207","main_expt",""
"","bandit","287","1498874","0.0-249.0-0.0","44315914","wem/bandit_party_1","AB66CTVQ90RCV","either","5","283","","","","","","","0","0","1","","0.09922356593","0.4","0.2","0.8","0.6","0.2686565688","0.2335358635","0.09922356593","0.3173829003","","","","","","","","","","","","","","75","K","2","","","208","main_expt",""
"","bandit","288","1500551","0.0-250.0-0.0","44315914","wem/bandit_party_1","AB66CTVQ90RCV","either","5","167","","","","","","","0","0","1","0.101567507","","0.4","0.2","0.8","0.6","","","","","0.2380255957","0.2638942681","0.101567507","0.3153846937","","","","","","","","","","75","K","2","","","209","main_expt",""
"","bandit","289","1502286","0.0-251.0-0.0","44315914","wem/bandit_party_1","AB66CTVQ90RCV","either","5","223","","","","","","","0","0","1","0.08675379402","","0.4","0.2","0.8","0.6","","","","","0.2507768727","0.2526926237","0.08675379402","0.3010876552","","","","","","","","","","75","K","2","","","210","main_expt",""
"","bandit","290","1503971","0.0-252.0-0.0","44315914","wem/bandit_party_1","AB66CTVQ90RCV","either","5","171","","","","","","","0","0","1","","0.2685142319","0.4","0.2","0.8","0.6","0.2685142319","0.2740367769","0.07512021269","0.2864900033","","","","","","","","","","","","","","72","H","0","img/none_selected.jpg","","211","main_expt",""
"","bandit","291","1505989","0.0-253.0-0.0","44315914","wem/bandit_party_1","AB66CTVQ90RCV","either","5","508","","","","","","","0","0","1","","0.2440836191","0.4","0.2","0.8","0.6","0.260511483","0.2440836191","0.08144254236","0.3163372434","","","","","","","","","","","","","","74","J","1","","","212","main_expt",""
"","bandit","292","1507762","0.0-254.0-0.0","44315914","wem/bandit_party_1","AB66CTVQ90RCV","either","5","261","","","","","","","1","0","0","0.06585574052","","0.4","0.2","0.8","0.6","","","","","0.2579605047","0.2341903104","0.06585574052","0.2701305136","","","","","","","","","","75","K","2","","","213","main_expt",""
"","bandit","293","1509543","0.0-255.0-0.0","44315914","wem/bandit_party_1","AB66CTVQ90RCV","either","5","270","","","","","","","0","0","1","0.08686614453","","0.4","0.2","0.8","0.6","","","","","0.2470456849","0.2097526345","0.08686614453","0.302599165","","","","","","","","","","75","K","2","","","214","main_expt",""
"","bandit","294","1511237","0.0-256.0-0.0","44315914","wem/bandit_party_1","AB66CTVQ90RCV","either","5","181","","","","","","","0","0","1","0.1068548489","","0.4","0.2","0.8","0.6","","","","","0.3285383036","0.1796882487","0.1068548489","0.2968005471","","","","","","","","","","75","K","2","","","215","main_expt",""
"","bandit","295","1513044","0.0-257.0-0.0","44315914","wem/bandit_party_1","AB66CTVQ90RCV","either","5","297","","","","","","","0","0","1","0.1211736082","","0.4","0.2","0.8","0.6","","","","","0.3780044773","0.2237900511","0.1211736082","0.2835536598","","","","","","","","","","75","K","2","","","216","main_expt",""
"","bandit","296","1514828","0.0-258.0-0.0","44315914","wem/bandit_party_1","AB66CTVQ90RCV","either","5","275","","","","","","","0","0","1","","0.2520762718","0.4","0.2","0.8","0.6","0.3939228946","0.2265358539","0.09343701815","0.2520762718","","","","","","","","","","","","","","76","L","3","","","217","main_expt",""
"","bandit","297","1516478","0.0-259.0-0.0","44315914","wem/bandit_party_1","AB66CTVQ90RCV","either","5","137","","","","","","","0","1","0","","0.1001055386","0.4","0.2","0.8","0.6","0.3198270803","0.2364013437","0.1001055386","0.2562699476","","","","","","","","","","","","","","75","K","2","","","218","main_expt",""
"","bandit","298","1518313","0.0-260.0-0.0","44315914","wem/bandit_party_1","AB66CTVQ90RCV","either","5","326","","","","","","","1","0","0","0.09524874014","","0.4","0.2","0.8","0.6","","","","","0.3502502288","0.2810560361","0.09524874014","0.3002431464","","","","","","","","","","75","K","2","","","219","main_expt",""
"","bandit","299","1520090","0.0-261.0-0.0","44315914","wem/bandit_party_1","AB66CTVQ90RCV","either","5","265","","","","","","","0","0","1","0.1304899995","","0.4","0.2","0.8","0.6","","","","","0.3402456168","0.3027429446","0.1304899995","0.3365413303","","","","","","","","","","75","K","2","","","220","main_expt",""
"","bandit","300","1521908","0.0-262.0-0.0","44315914","wem/bandit_party_1","AB66CTVQ90RCV","either","5","306","","","","","","","0","0","1","0.1272814923","","0.4","0.2","0.8","0.6","","","","","0.3770059732","0.3132134988","0.1272814923","0.2946103072","","","","","","","","","","75","K","2","","","221","main_expt",""
"","bandit","301","1523806","0.0-263.0-0.0","44315914","wem/bandit_party_1","AB66CTVQ90RCV","either","5","386","","","","","","","1","0","0","0.2424821827","","0.4","0.2","0.8","0.6","","","","","0.3864421123","0.2424821827","0.1654407056","0.3267284332","","","","","","","","","","74","J","1","","","222","main_expt",""
"","bandit","302","1525635","0.0-264.0-0.0","44315914","wem/bandit_party_1","AB66CTVQ90RCV","either","5","318","","","","","","","0","0","1","","0.2595367495","0.4","0.2","0.8","0.6","0.4205211408","0.2595367495","0.1788325852","0.3175152631","","","","","","","","","","","","","","74","J","1","","","223","main_expt",""
"","bandit","303","1527417","0.0-265.0-0.0","44315914","wem/bandit_party_1","AB66CTVQ90RCV","either","5","272","","","","","","","1","0","0","0.328819141","","0.4","0.2","0.8","0.6","","","","","0.4131889957","0.328819141","0.1736623033","0.3192400935","","","","","","","","","","74","J","1","","","224","main_expt",""
"","bandit","304","1529237","0.0-266.0-0.0","44315914","wem/bandit_party_1","AB66CTVQ90RCV","either","5","310","","","","","","","0","0","1","","0.356121412","0.4","0.2","0.8","0.6","0.4001513574","0.356121412","0.1721911447","0.3096750449","","","","","","","","","","","","","","74","J","1","","","225","main_expt",""
"","bandit","305","1530991","0.0-267.0-0.0","44315914","wem/bandit_party_1","AB66CTVQ90RCV","either","5","244","","","","","","","0","0","1","0.3394019192","","0.4","0.2","0.8","0.6","","","","","0.3963688582","0.3394019192","0.2133818582","0.3142833063","","","","","","","","","","74","J","1","","","226","main_expt",""
"","bandit","306","1532768","0.0-268.0-0.0","44315914","wem/bandit_party_1","AB66CTVQ90RCV","either","5","266","","","","","","","0","0","1","","0.2860553004","0.4","0.2","0.8","0.6","0.3979714495","0.2860553004","0.2620007467","0.3096885674","","","","","","","","","","","","","","74","J","1","","","227","main_expt",""
"","bandit","307","1534582","0.0-269.0-0.0","44315914","wem/bandit_party_1","AB66CTVQ90RCV","either","5","301","","","","","","","0","0","1","0.3811043637","","0.4","0.2","0.8","0.6","","","","","0.3811043637","0.2967856672","0.2961930455","0.3048295172","","","","","","","","","","72","H","0","img/none_selected.jpg","","228","main_expt",""
"","bandit","308","1536361","0.0-270.0-0.0","44315914","wem/bandit_party_1","AB66CTVQ90RCV","either","5","267","","","","","","","0","1","0","","0.2857745529","0.4","0.2","0.8","0.6","0.3488149186","0.2857745529","0.3081123415","0.2553920021","","","","","","","","","","","","","","74","J","1","","","229","main_expt",""
"","bandit","309","1538168","0.0-271.0-0.0","44315914","wem/bandit_party_1","AB66CTVQ90RCV","either","5","296","","","","","","","0","1","0","","0.2589404948","0.4","0.2","0.8","0.6","0.2883621188","0.2589404948","0.3027177586","0.2783794412","","","","","","","","","","","","","","74","J","1","","","230","main_expt",""
"","bandit","310","1539972","0.0-272.0-0.0","44315914","wem/bandit_party_1","AB66CTVQ90RCV","either","5","294","","","","","","","0","1","0","","0.2628441024","0.4","0.2","0.8","0.6","0.2444465504","0.2628441024","0.2495346478","0.2735536708","","","","","","","","","","","","","","74","J","1","","","231","main_expt",""
"","bandit","311","1541792","0.0-273.0-0.0","44315914","wem/bandit_party_1","AB66CTVQ90RCV","either","5","309","","","","","","","0","0","1","0.276537748","","0.4","0.2","0.8","0.6","","","","","0.2996930955","0.276537748","0.2185872191","0.2262440502","","","","","","","","","","74","J","1","","","232","main_expt",""
"","bandit","312","1543805","0.0-274.0-0.0","44315914","wem/bandit_party_1","AB66CTVQ90RCV","either","5","502","","","","","","","0","0","1","0.2171974885","","0.4","0.2","0.8","0.6","","","","","0.3103031796","0.2485723575","0.1874863907","0.2171974885","","","","","","","","","","76","L","3","","","233","main_expt",""
"","bandit","313","1545540","0.0-275.0-0.0","44315914","wem/bandit_party_1","AB66CTVQ90RCV","either","5","224","","","","","","","0","0","1","","0.2172766866","0.4","0.2","0.8","0.6","0.2971988612","0.2172766866","0.2165838284","0.2951485073","","","","","","","","","","","","","","74","J","1","","","234","main_expt",""
"","bandit","314","1547323","0.0-276.0-0.0","44315914","wem/bandit_party_1","AB66CTVQ90RCV","either","5","272","","","","","","","0","0","1","","0.221542824","0.4","0.2","0.8","0.6","0.3266576642","0.221542824","0.1791302586","0.3135740045","","","","","","","","","","","","","","74","J","1","","","235","main_expt",""
"","bandit","315","1549131","0.0-277.0-0.0","44315914","wem/bandit_party_1","AB66CTVQ90RCV","either","5","297","","","","","","","0","0","1","0.2463713802","","0.4","0.2","0.8","0.6","","","","","0.3596878827","0.2200573756","0.2463713802","0.2945285262","","","","","","","","","","75","K","2","","","236","main_expt",""
"","bandit","316","1550882","0.0-278.0-0.0","44315914","wem/bandit_party_1","AB66CTVQ90RCV","either","5","239","","","","","","","0","0","1","0.2146478317","","0.4","0.2","0.8","0.6","","","","","0.3951370387","0.2146478317","0.2204623923","0.2797454337","","","","","","","","","","74","J","1","","","237","main_expt",""
"","bandit","317","1552557","0.0-279.0-0.0","44315914","wem/bandit_party_1","AB66CTVQ90RCV","either","5","164","","","","","","","0","0","1","","0.3863552979","0.4","0.2","0.8","0.6","0.3863552979","0.2237656472","0.2316256556","0.266453507","","","","","","","","","","","","","","72","H","0","img/none_selected.jpg","","238","main_expt",""
