"consent","trial_type","trial_index","time_elapsed","internal_node_id","subjID","study","MID","cond","drift","rt","responses","button_pressed","key_press","like","value","connected","gems","bombs","no_reward","GemPrChosen","BombPrChosen","GainOverPainPr_0","GainOverPainPr_1","GainOverPainPr_2","GainOverPainPr_3","LosePr_0","LosePr_1","LosePr_2","LosePr_3","WinPr_0","WinPr_1","WinPr_2","WinPr_3","Q0","Q1","Q2","gender","age","ethnicity","label","expt_phase","target","respCharCode","respKey","respChoiceNum","respChoice","practice","trial_counter","trial_label","Q0_index"
"GDM/GDM_behavioral_consent_30min_online.html","consent","0","8705","0.0-0.0","45389014","wem/bandit_party_1","AEO8NL8D28NQG","either","7","","","","","","","","","","","","","","","","","","","","","","","","","","","","","","","","","","","","","","","","",""
"","survey-text","1","13132","0.0-1.0","45389014","wem/bandit_party_1","AEO8NL8D28NQG","either","7","3415","{""Q0"":""AEO8NL8D28NQG""}","","","","","","","","","","","","","","","","","","","","","","","","","","","","","","","","","","","","","","",""
"","button-response","2","15634","0.0-2.0","45389014","wem/bandit_party_1","AEO8NL8D28NQG","either","7","1491","","1","","","","","","","","","","","","","","","","","","","","","","","","","","","","","","","","","","","","","",""
"","text-replacement","3","23729","0.0-3.0","45389014","wem/bandit_party_1","AEO8NL8D28NQG","either","7","7087","","","32","","","","","","","","","","","","","","","","","","","","","","","","","","","","","","","","","","","","",""
"","text-replacement","4","30123","0.0-4.0","45389014","wem/bandit_party_1","AEO8NL8D28NQG","either","7","6391","","","32","","","","","","","","","","","","","","","","","","","","","","","","","","","","","","","","","","","","",""
"","identification","5","37346","0.0-6.0-0.0","45389014","wem/bandit_party_1","AEO8NL8D28NQG","either","7","7200","","","","4","4","3","","","","","","","","","","","","","","","","","","","","","","","","pre","identification_pre","the Democratic Party","","","","","","","",""
"","identification","6","46989","0.0-6.0-1.0","45389014","wem/bandit_party_1","AEO8NL8D28NQG","either","7","8621","","","","1","1","1","","","","","","","","","","","","","","","","","","","","","","","","pre","identification_pre","the Republican party","","","","","","","",""
"","text-replacement","7","52362","0.0-7.0","45389014","wem/bandit_party_1","AEO8NL8D28NQG","either","7","4371","","","32","","","","","","","","","","","","","","","","","","","","","","","","","","","","","","","","","","","","",""
"","text-replacement","8","57788","0.0-8.0","45389014","wem/bandit_party_1","AEO8NL8D28NQG","either","7","5420","","","32","","","","","","","","","","","","","","","","","","","","","","","","","","","","","","","","","","","","",""
"","text-replacement","9","65967","0.0-9.0","45389014","wem/bandit_party_1","AEO8NL8D28NQG","either","7","8175","","","32","","","","","","","","","","","","","","","","","","","","","","","","","","","","","","","","","","","","",""
"","text-replacement","10","68100","0.0-10.0","45389014","wem/bandit_party_1","AEO8NL8D28NQG","either","7","2131","","","32","","","","","","","","","","","","","","","","","","","","","","","","","","","","","","","","","","","","",""
"","text-replacement","11","70435","0.0-11.0","45389014","wem/bandit_party_1","AEO8NL8D28NQG","either","7","2332","","","32","","","","","","","","","","","","","","","","","","","","","","","","","","","","","","","","","","","","",""
"","bandit","12","75348","0.0-12.0-0.0","45389014","wem/bandit_party_1","AEO8NL8D28NQG","either","7","3401","","","","","","","0","0","1","0","0","","","","","0","","","","0","","","","","","","","","","","","","74","J","0","img/none_selected_demo.jpg","true","0","",""
"","bandit","13","77788","0.0-13.0-0.0","45389014","wem/bandit_party_1","AEO8NL8D28NQG","either","7","931","","","","","","","0","0","1","0","0","","","","","0","","","","0","","","","","","","","","","","","","75","K","0","img/none_selected_demo.jpg","true","0","",""
"","text-replacement","14","83838","0.0-14.0","45389014","wem/bandit_party_1","AEO8NL8D28NQG","either","7","6045","","","32","","","","","","","","","","","","","","","","","","","","","","","","","","","","","","","","","","","","",""
"","text-replacement","15","87845","0.0-15.0","45389014","wem/bandit_party_1","AEO8NL8D28NQG","either","7","4005","","","32","","","","","","","","","","","","","","","","","","","","","","","","","","","","","","","","","","","","",""
"","text-replacement","16","92806","0.0-16.0","45389014","wem/bandit_party_1","AEO8NL8D28NQG","either","7","4957","","","32","","","","","","","","","","","","","","","","","","","","","","","","","","","","","","","","","","","","",""
"","text-replacement","17","95051","0.0-17.0","45389014","wem/bandit_party_1","AEO8NL8D28NQG","either","7","2242","","","32","","","","","","","","","","","","","","","","","","","","","","","","","","","","","","","","","","","","",""
"","bandit","18","97381","0.0-18.0-0.0","45389014","wem/bandit_party_1","AEO8NL8D28NQG","either","7","824","","","","","","","1","0","0","0.8","","0.5","0.5","","","","","","","0.8","0.2","","","","","","","","","","","","74","J","0","img/none_selected_demo.jpg","true","0","80_20_practice",""
"","bandit","19","99345","0.0-18.0-1.0","45389014","wem/bandit_party_1","AEO8NL8D28NQG","either","7","455","","","","","","","0","0","1","","0.8","0.5","0.5","","","0.8","0.2","","","","","","","","","","","","","","","","74","J","0","img/none_selected_demo.jpg","true","0","80_20_practice",""
"","bandit","20","117217","0.0-18.0-2.0","45389014","wem/bandit_party_1","AEO8NL8D28NQG","either","7","16363","","","","","","","0","0","1","","0.8","0.5","0.5","","","0.8","0.2","","","","","","","","","","","","","","","","74","J","0","img/none_selected_demo.jpg","true","0","80_20_practice",""
"","bandit","21","119734","0.0-18.0-3.0","45389014","wem/bandit_party_1","AEO8NL8D28NQG","either","7","1008","","","","","","","0","1","0","","0.8","0.5","0.5","","","0.8","0.2","","","","","","","","","","","","","","","","74","J","0","img/none_selected_demo.jpg","true","0","80_20_practice",""
"","bandit","22","124778","0.0-18.0-4.0","45389014","wem/bandit_party_1","AEO8NL8D28NQG","either","7","3533","","","","","","","1","0","0","0.8","","0.5","0.5","","","","","","","0.8","0.2","","","","","","","","","","","","74","J","0","img/none_selected_demo.jpg","true","0","80_20_practice",""
"","bandit","23","129001","0.0-18.0-5.0","45389014","wem/bandit_party_1","AEO8NL8D28NQG","either","7","2716","","","","","","","0","1","0","","0.8","0.5","0.5","","","0.8","0.2","","","","","","","","","","","","","","","","74","J","0","img/none_selected_demo.jpg","true","0","80_20_practice",""
"","bandit","24","132993","0.0-18.0-6.0","45389014","wem/bandit_party_1","AEO8NL8D28NQG","either","7","2484","","","","","","","0","1","0","","0.8","0.5","0.5","","","0.8","0.2","","","","","","","","","","","","","","","","74","J","0","img/none_selected_demo.jpg","true","0","80_20_practice",""
"","bandit","25","135119","0.0-18.0-7.0","45389014","wem/bandit_party_1","AEO8NL8D28NQG","either","7","618","","","","","","","0","1","0","","0.8","0.5","0.5","","","0.8","0.2","","","","","","","","","","","","","","","","74","J","0","img/none_selected_demo.jpg","true","0","80_20_practice",""
"","bandit","26","137578","0.0-18.0-8.0","45389014","wem/bandit_party_1","AEO8NL8D28NQG","either","7","951","","","","","","","1","0","0","0.8","","0.5","0.5","","","","","","","0.8","0.2","","","","","","","","","","","","74","J","0","img/none_selected_demo.jpg","true","0","80_20_practice",""
"","bandit","27","142281","0.0-18.0-9.0","45389014","wem/bandit_party_1","AEO8NL8D28NQG","either","7","3193","","","","","","","0","1","0","","0.8","0.5","0.5","","","0.8","0.2","","","","","","","","","","","","","","","","74","J","0","img/none_selected_demo.jpg","true","0","80_20_practice",""
"","bandit","28","144197","0.0-18.0-10.0","45389014","wem/bandit_party_1","AEO8NL8D28NQG","either","7","405","","","","","","","0","1","0","","0.8","0.5","0.5","","","0.8","0.2","","","","","","","","","","","","","","","","74","J","0","img/none_selected_demo.jpg","true","0","80_20_practice",""
"","bandit","29","146210","0.0-18.0-11.0","45389014","wem/bandit_party_1","AEO8NL8D28NQG","either","7","506","","","","","","","0","1","0","","0.8","0.5","0.5","","","0.8","0.2","","","","","","","","","","","","","","","","74","J","0","img/none_selected_demo.jpg","true","0","80_20_practice",""
"","bandit","30","147720","0.0-18.0-12.0","45389014","wem/bandit_party_1","AEO8NL8D28NQG","either","7","1","","","","","","","0","1","0","","0.8","0.5","0.5","","","0.8","0.2","","","","","","","","","","","","","","","","74","J","0","img/none_selected_demo.jpg","true","0","80_20_practice",""
"","bandit","31","150632","0.0-18.0-13.0","45389014","wem/bandit_party_1","AEO8NL8D28NQG","either","7","1406","","","","","","","1","0","0","0.8","","0.5","0.5","","","","","","","0.8","0.2","","","","","","","","","","","","74","J","0","img/none_selected_demo.jpg","true","0","80_20_practice",""
"","bandit","32","171685","0.0-18.0-14.0","45389014","wem/bandit_party_1","AEO8NL8D28NQG","either","7","19546","","","","","","","0","0","1","0.2","","0.5","0.5","","","","","","","0.8","0.2","","","","","","","","","","","","75","K","1","","true","0","80_20_practice",""
"","bandit","33","173516","0.0-18.0-15.0","45389014","wem/bandit_party_1","AEO8NL8D28NQG","either","7","322","","","","","","","0","0","1","0.2","","0.5","0.5","","","","","","","0.8","0.2","","","","","","","","","","","","75","K","1","","true","0","80_20_practice",""
"","bandit","34","175311","0.0-18.0-16.0","45389014","wem/bandit_party_1","AEO8NL8D28NQG","either","7","287","","","","","","","0","0","1","","0.2","0.5","0.5","","","0.8","0.2","","","","","","","","","","","","","","","","75","K","1","","true","0","80_20_practice",""
"","bandit","35","177116","0.0-18.0-17.0","45389014","wem/bandit_party_1","AEO8NL8D28NQG","either","7","297","","","","","","","1","0","0","0.2","","0.5","0.5","","","","","","","0.8","0.2","","","","","","","","","","","","75","K","1","","true","0","80_20_practice",""
"","bandit","36","184559","0.0-18.0-18.0","45389014","wem/bandit_party_1","AEO8NL8D28NQG","either","7","5936","","","","","","","0","0","1","","0.2","0.5","0.5","","","0.8","0.2","","","","","","","","","","","","","","","","75","K","1","","true","0","80_20_practice",""
"","bandit","37","186346","0.0-18.0-19.0","45389014","wem/bandit_party_1","AEO8NL8D28NQG","either","7","277","","","","","","","1","0","0","0.2","","0.5","0.5","","","","","","","0.8","0.2","","","","","","","","","","","","75","K","1","","true","0","80_20_practice",""
"","text-replacement","38","192669","0.0-19.0","45389014","wem/bandit_party_1","AEO8NL8D28NQG","either","7","6318","","","32","","","","","","","","","","","","","","","","","","","","","","","","","","","","","","","","","","","","",""
"","bandit","39","196073","0.0-20.0-0.0","45389014","wem/bandit_party_1","AEO8NL8D28NQG","either","7","1895","","","","","","","1","0","0","1","0","","","","","0","1","","","1","0","","","","","","","","","","","","74","J","0","img/none_selected_demo.jpg","true","0","",""
"","text-replacement","40","199127","0.0-21.0","45389014","wem/bandit_party_1","AEO8NL8D28NQG","either","7","3049","","","32","","","","","","","","","","","","","","","","","","","","","","","","","","","","","","","","","","","","",""
"","text-replacement","41","202936","0.0-22.0","45389014","wem/bandit_party_1","AEO8NL8D28NQG","either","7","3806","","","32","","","","","","","","","","","","","","","","","","","","","","","","","","","","","","","","","","","","",""
"","text-replacement","42","204351","0.0-23.0","45389014","wem/bandit_party_1","AEO8NL8D28NQG","either","7","1413","","","32","","","","","","","","","","","","","","","","","","","","","","","","","","","","","","","","","","","","",""
"","text-replacement","43","206394","0.0-24.0","45389014","wem/bandit_party_1","AEO8NL8D28NQG","either","7","2038","","","32","","","","","","","","","","","","","","","","","","","","","","","","","","","","","","","","","","","","",""
"","text-replacement","44","210737","0.0-25.0","45389014","wem/bandit_party_1","AEO8NL8D28NQG","either","7","4339","","","32","","","","","","","","","","","","","","","","","","","","","","","","","","","","","","","","","","","","",""
"","text-replacement","45","212266","0.0-26.0","45389014","wem/bandit_party_1","AEO8NL8D28NQG","either","7","1526","","","32","","","","","","","","","","","","","","","","","","","","","","","","","","","","","","","","","","","","",""
"","text-replacement","46","214827","0.0-27.0","45389014","wem/bandit_party_1","AEO8NL8D28NQG","either","7","2558","","","32","","","","","","","","","","","","","","","","","","","","","","","","","","","","","","","","","","","","",""
"","text-replacement","47","216647","0.0-28.0","45389014","wem/bandit_party_1","AEO8NL8D28NQG","either","7","1818","","","32","","","","","","","","","","","","","","","","","","","","","","","","","","","","","","","","","","","","",""
"","text-replacement","48","219955","0.0-29.0","45389014","wem/bandit_party_1","AEO8NL8D28NQG","either","7","3304","","","32","","","","","","","","","","","","","","","","","","","","","","","","","","","","","","","","","","","","",""
"","text-replacement","49","221014","0.0-30.0","45389014","wem/bandit_party_1","AEO8NL8D28NQG","either","7","1054","","","32","","","","","","","","","","","","","","","","","","","","","","","","","","","","","","","","","","","","",""
"","text-replacement","50","226054","0.0-31.0","45389014","wem/bandit_party_1","AEO8NL8D28NQG","either","7","5035","","","32","","","","","","","","","","","","","","","","","","","","","","","","","","","","","","","","","","","","",""
"","bandit","51","228371","0.0-32.0-0.0","45389014","wem/bandit_party_1","AEO8NL8D28NQG","either","7","809","","","","","","","1","0","0","0.8","","0.5","0.5","0.5","0.5","","","","","0.8","0.2","0.6","0.2","","","","","","","","","","72","H","0","img/none_selected.jpg","true","0","full_practice",""
"","bandit","52","230337","0.0-32.0-1.0","45389014","wem/bandit_party_1","AEO8NL8D28NQG","either","7","456","","","","","","","0","0","1","","0.2","0.5","0.5","0.5","0.5","0.8","0.2","0.6","0.2","","","","","","","","","","","","","","74","J","1","","true","0","full_practice",""
"","bandit","53","232256","0.0-32.0-2.0","45389014","wem/bandit_party_1","AEO8NL8D28NQG","either","7","409","","","","","","","0","0","1","0.6","","0.5","0.5","0.5","0.5","","","","","0.8","0.2","0.6","0.2","","","","","","","","","","75","K","2","","true","0","full_practice",""
"","bandit","54","234048","0.0-32.0-3.0","45389014","wem/bandit_party_1","AEO8NL8D28NQG","either","7","283","","","","","","","0","0","1","0.2","","0.5","0.5","0.5","0.5","","","","","0.8","0.2","0.6","0.2","","","","","","","","","","76","L","3","","true","0","full_practice",""
"","bandit","55","239515","0.0-32.0-4.0","45389014","wem/bandit_party_1","AEO8NL8D28NQG","either","7","3960","","","","","","","1","0","0","0.8","","0.5","0.5","0.5","0.5","","","","","0.8","0.2","0.6","0.2","","","","","","","","","","72","H","0","img/none_selected.jpg","true","0","full_practice",""
"","bandit","56","241503","0.0-32.0-5.0","45389014","wem/bandit_party_1","AEO8NL8D28NQG","either","7","477","","","","","","","1","0","0","0.8","","0.5","0.5","0.5","0.5","","","","","0.8","0.2","0.6","0.2","","","","","","","","","","72","H","0","img/none_selected.jpg","true","0","full_practice",""
"","bandit","57","243305","0.0-32.0-6.0","45389014","wem/bandit_party_1","AEO8NL8D28NQG","either","7","293","","","","","","","1","0","0","0.8","","0.5","0.5","0.5","0.5","","","","","0.8","0.2","0.6","0.2","","","","","","","","","","72","H","0","img/none_selected.jpg","true","0","full_practice",""
"","bandit","58","245042","0.0-32.0-7.0","45389014","wem/bandit_party_1","AEO8NL8D28NQG","either","7","227","","","","","","","0","1","0","","0.8","0.5","0.5","0.5","0.5","0.8","0.2","0.6","0.2","","","","","","","","","","","","","","72","H","0","img/none_selected.jpg","true","0","full_practice",""
"","bandit","59","246831","0.0-32.0-8.0","45389014","wem/bandit_party_1","AEO8NL8D28NQG","either","7","280","","","","","","","0","0","1","0.8","","0.5","0.5","0.5","0.5","","","","","0.8","0.2","0.6","0.2","","","","","","","","","","72","H","0","img/none_selected.jpg","true","0","full_practice",""
"","bandit","60","248568","0.0-32.0-9.0","45389014","wem/bandit_party_1","AEO8NL8D28NQG","either","7","226","","","","","","","0","0","1","0.8","","0.5","0.5","0.5","0.5","","","","","0.8","0.2","0.6","0.2","","","","","","","","","","72","H","0","img/none_selected.jpg","true","0","full_practice",""
"","bandit","61","250398","0.0-32.0-10.0","45389014","wem/bandit_party_1","AEO8NL8D28NQG","either","7","320","","","","","","","0","0","1","","0.8","0.5","0.5","0.5","0.5","0.8","0.2","0.6","0.2","","","","","","","","","","","","","","72","H","0","img/none_selected.jpg","true","0","full_practice",""
"","bandit","62","252118","0.0-32.0-11.0","45389014","wem/bandit_party_1","AEO8NL8D28NQG","either","7","208","","","","","","","0","1","0","","0.8","0.5","0.5","0.5","0.5","0.8","0.2","0.6","0.2","","","","","","","","","","","","","","72","H","0","img/none_selected.jpg","true","0","full_practice",""
"","bandit","63","253868","0.0-32.0-12.0","45389014","wem/bandit_party_1","AEO8NL8D28NQG","either","7","238","","","","","","","0","0","1","0.2","","0.5","0.5","0.5","0.5","","","","","0.8","0.2","0.6","0.2","","","","","","","","","","74","J","1","","true","0","full_practice",""
"","bandit","64","255691","0.0-32.0-13.0","45389014","wem/bandit_party_1","AEO8NL8D28NQG","either","7","314","","","","","","","0","0","1","0.6","","0.5","0.5","0.5","0.5","","","","","0.8","0.2","0.6","0.2","","","","","","","","","","75","K","2","","true","0","full_practice",""
"","bandit","65","257541","0.0-32.0-14.0","45389014","wem/bandit_party_1","AEO8NL8D28NQG","either","7","338","","","","","","","1","0","0","0.2","","0.5","0.5","0.5","0.5","","","","","0.8","0.2","0.6","0.2","","","","","","","","","","76","L","3","","true","0","full_practice",""
"","bandit","66","259372","0.0-32.0-15.0","45389014","wem/bandit_party_1","AEO8NL8D28NQG","either","7","321","","","","","","","0","0","1","0.2","","0.5","0.5","0.5","0.5","","","","","0.8","0.2","0.6","0.2","","","","","","","","","","76","L","3","","true","0","full_practice",""
"","bandit","67","261232","0.0-32.0-16.0","45389014","wem/bandit_party_1","AEO8NL8D28NQG","either","7","349","","","","","","","0","0","1","0.2","","0.5","0.5","0.5","0.5","","","","","0.8","0.2","0.6","0.2","","","","","","","","","","76","L","3","","true","0","full_practice",""
"","bandit","68","262919","0.0-32.0-17.0","45389014","wem/bandit_party_1","AEO8NL8D28NQG","either","7","177","","","","","","","0","0","1","0.2","","0.5","0.5","0.5","0.5","","","","","0.8","0.2","0.6","0.2","","","","","","","","","","76","L","3","","true","0","full_practice",""
"","bandit","69","264527","0.0-32.0-18.0","45389014","wem/bandit_party_1","AEO8NL8D28NQG","either","7","101","","","","","","","0","0","1","0.8","","0.5","0.5","0.5","0.5","","","","","0.8","0.2","0.6","0.2","","","","","","","","","","72","H","0","img/none_selected.jpg","true","0","full_practice",""
"","bandit","70","266222","0.0-32.0-19.0","45389014","wem/bandit_party_1","AEO8NL8D28NQG","either","7","180","","","","","","","1","0","0","0.8","","0.5","0.5","0.5","0.5","","","","","0.8","0.2","0.6","0.2","","","","","","","","","","72","H","0","img/none_selected.jpg","true","0","full_practice",""
"","text","71","269994","0.0-33.0","45389014","wem/bandit_party_1","AEO8NL8D28NQG","either","7","3760","","","32","","","","","","","","","","","","","","","","","","","","","","","","","","","","","","","","","","","","",""
"","text-replacement","72","279865","0.0-34.0","45389014","wem/bandit_party_1","AEO8NL8D28NQG","either","7","8866","","","32","","","","","","","","","","","","","","","","","","","","","","","","","","","","","","","","","","","","",""
"","text-replacement","73","286138","0.0-35.0","45389014","wem/bandit_party_1","AEO8NL8D28NQG","either","7","6267","","","32","","","","","","","","","","","","","","","","","","","","","","","","","","","","","","","","","","","","",""
"","text-replacement","74","289690","0.0-36.0","45389014","wem/bandit_party_1","AEO8NL8D28NQG","either","7","3550","","","32","","","","","","","","","","","","","","","","","","","","","","","","","","","","","","","","","","","","",""
"","text-replacement","75","294130","0.0-37.0","45389014","wem/bandit_party_1","AEO8NL8D28NQG","either","7","4435","","","32","","","","","","","","","","","","","","","","","","","","","","","","","","","","","","","","","","","","",""
"","text-replacement","76","296848","0.0-38.0","45389014","wem/bandit_party_1","AEO8NL8D28NQG","either","7","2713","","","32","","","","","","","","","","","","","","","","","","","","","","","","","","","","","","","","","","","","",""
"","survey-multi-choice-replacement","77","300865","0.0-39.0-0.0","45389014","wem/bandit_party_1","AEO8NL8D28NQG","either","7","4003","","","","","","","","","","","","","","","","","","","","","","","","Money will be added to the pool for <span style='color:blue;'>DEMOCRATS</span>","","","","","","","attn_check","","","","","","","","","0"
"","survey-multi-choice-replacement","78","305026","0.0-40.0-0.0","45389014","wem/bandit_party_1","AEO8NL8D28NQG","either","7","3144","","","","","","","","","","","","","","","","","","","","","","","","Equal amounts of money will be added to the pool for <span style='color:blue;'>DEMOCRATS</span> and subtracted from the pool for <span style='color:red;'>REPUBLICANS</span>","","","","","","","attn_check","","","","","","","","","2"
"","survey-multi-choice-replacement","79","308417","0.0-41.0-0.0","45389014","wem/bandit_party_1","AEO8NL8D28NQG","either","7","2376","","","","","","","","","","","","","","","","","","","","","","","","No money will be added to either pool","","","","","","","attn_check","","","","","","","","","3"
"","bandit","80","327666","0.0-42.0-0.0","45389014","wem/bandit_party_1","AEO8NL8D28NQG","either","7","16732","","","","","","","0","0","1","0.01738065524","","0.6","0.8","0.2","0.4","","","","","0.01738065524","0.1480066451","0.1952616071","0.06530018083","","","","","","","","","","72","H","0","img/none_selected.jpg","","1","main_expt",""
"","bandit","81","332666","0.0-43.0-0.0","45389014","wem/bandit_party_1","AEO8NL8D28NQG","either","7","3488","","","","","","","0","0","1","0.1053714073","","0.6","0.8","0.2","0.4","","","","","0.0196943787","0.1053714073","0.1652234336","0.1011701763","","","","","","","","","","74","J","1","","","2","main_expt",""
"","bandit","82","336725","0.0-44.0-0.0","45389014","wem/bandit_party_1","AEO8NL8D28NQG","either","7","2553","","","","","","","0","0","1","","0.1347382479","0.6","0.8","0.2","0.4","0.01678573497","0.1460078221","0.1347382479","0.09486719381","","","","","","","","","","","","","","75","K","2","","","3","main_expt",""
"","bandit","83","340188","0.0-45.0-0.0","45389014","wem/bandit_party_1","AEO8NL8D28NQG","either","7","1953","","","","","","","0","0","1","","0.06705802814","0.6","0.8","0.2","0.4","0.02981965743","0.1866138214","0.1684625442","0.06705802814","","","","","","","","","","","","","","76","L","3","","","4","main_expt",""
"","bandit","84","344141","0.0-46.0-0.0","45389014","wem/bandit_party_1","AEO8NL8D28NQG","either","7","2445","","","","","","","0","0","1","0.02600208211","","0.6","0.8","0.2","0.4","","","","","0.02600208211","0.2445348717","0.1792029032","0.0822298525","","","","","","","","","","72","H","0","img/none_selected.jpg","","5","main_expt",""
"","bandit","85","347813","0.0-47.0-0.0","45389014","wem/bandit_party_1","AEO8NL8D28NQG","either","7","2161","","","","","","","0","0","1","0.2546962146","","0.6","0.8","0.2","0.4","","","","","0.02332436933","0.2546962146","0.2153873139","0.09162209411","","","","","","","","","","74","J","1","","","6","main_expt",""
"","bandit","86","351259","0.0-48.0-0.0","45389014","wem/bandit_party_1","AEO8NL8D28NQG","either","7","1937","","","","","","","0","0","1","","0.1757762721","0.6","0.8","0.2","0.4","0.02864040813","0.2344841702","0.1757762721","0.1028820098","","","","","","","","","","","","","","75","K","2","","","7","main_expt",""
"","bandit","87","354397","0.0-49.0-0.0","45389014","wem/bandit_party_1","AEO8NL8D28NQG","either","7","1633","","","","","","","0","0","1","","0.1532270122","0.6","0.8","0.2","0.4","0.02951264166","0.2473344203","0.2241229746","0.1532270122","","","","","","","","","","","","","","76","L","3","","","8","main_expt",""
"","bandit","88","357533","0.0-50.0-0.0","45389014","wem/bandit_party_1","AEO8NL8D28NQG","either","7","1628","","","","","","","0","0","1","0.02997011939","","0.6","0.8","0.2","0.4","","","","","0.02997011939","0.2642160399","0.2199426203","0.2131450397","","","","","","","","","","72","H","0","img/none_selected.jpg","","9","main_expt",""
"","bandit","89","361632","0.0-51.0-0.0","45389014","wem/bandit_party_1","AEO8NL8D28NQG","either","7","2587","","","","","","","0","0","1","0.2104627424","","0.6","0.8","0.2","0.4","","","","","0.02489651457","0.2104627424","0.1520686932","0.2985754635","","","","","","","","","","74","J","1","","","10","main_expt",""
"","bandit","90","366075","0.0-52.0-0.0","45389014","wem/bandit_party_1","AEO8NL8D28NQG","either","7","2933","","","","","","","0","0","1","","0.2013349999","0.6","0.8","0.2","0.4","0.01651058827","0.219372878","0.2013349999","0.2924640086","","","","","","","","","","","","","","75","K","2","","","11","main_expt",""
"","bandit","91","369567","0.0-53.0-0.0","45389014","wem/bandit_party_1","AEO8NL8D28NQG","either","7","1980","","","","","","","0","0","1","","0.3264291113","0.6","0.8","0.2","0.4","0.02341729431","0.2105839871","0.2156800105","0.3264291113","","","","","","","","","","","","","","76","L","3","","","12","main_expt",""
"","bandit","92","372577","0.0-54.0-0.0","45389014","wem/bandit_party_1","AEO8NL8D28NQG","either","7","1503","","","","","","","0","0","1","","0.0257410372","0.6","0.8","0.2","0.4","0.0257410372","0.2511698571","0.1833947696","0.3254913314","","","","","","","","","","","","","","72","H","0","img/none_selected.jpg","","13","main_expt",""
"","bandit","93","376611","0.0-55.0-0.0","45389014","wem/bandit_party_1","AEO8NL8D28NQG","either","7","2520","","","","","","","0","0","1","0.2158977649","","0.6","0.8","0.2","0.4","","","","","0.02570014082","0.2158977649","0.243643366","0.3428504842","","","","","","","","","","74","J","1","","","14","main_expt",""
"","bandit","94","381084","0.0-56.0-0.0","45389014","wem/bandit_party_1","AEO8NL8D28NQG","either","7","2963","","","","","","","0","0","1","","0.2265365198","0.6","0.8","0.2","0.4","0.04268316416","0.2762480727","0.2265365198","0.3244047679","","","","","","","","","","","","","","75","K","2","","","15","main_expt",""
"","bandit","95","384526","0.0-57.0-0.0","45389014","wem/bandit_party_1","AEO8NL8D28NQG","either","7","1937","","","","","","","0","0","1","0.3025313629","","0.6","0.8","0.2","0.4","","","","","0.04667408308","0.3202890724","0.2484951132","0.3025313629","","","","","","","","","","76","L","3","","","16","main_expt",""
"","bandit","96","387123","0.0-58.0-0.0","45389014","wem/bandit_party_1","AEO8NL8D28NQG","either","7","1084","","","","","","","0","0","1","","0.0506688767","0.6","0.8","0.2","0.4","0.0506688767","0.3680552247","0.2570267238","0.3291216938","","","","","","","","","","","","","","72","H","0","img/none_selected.jpg","","17","main_expt",""
"","bandit","97","388910","0.0-59.0-0.0","45389014","wem/bandit_party_1","AEO8NL8D28NQG","either","7","275","","","","","","","0","0","1","0.3968593921","","0.6","0.8","0.2","0.4","","","","","0.02988526167","0.3968593921","0.287418789","0.2987881532","","","","","","","","","","74","J","1","","","18","main_expt",""
"","bandit","98","390723","0.0-60.0-0.0","45389014","wem/bandit_party_1","AEO8NL8D28NQG","either","7","300","","","","","","","0","1","0","","0.2338710899","0.6","0.8","0.2","0.4","0.03476350355","0.4192996399","0.2338710899","0.281207523","","","","","","","","","","","","","","75","K","2","","","19","main_expt",""
"","bandit","99","414967","0.0-61.0-0.0","45389014","wem/bandit_party_1","AEO8NL8D28NQG","either","7","22734","","","","","","","0","0","1","0.291129981","","0.6","0.8","0.2","0.4","","","","","0.0233687216","0.4362768361","0.2335293464","0.291129981","","","","","","","","","","76","L","3","","","20","main_expt",""
"","bandit","100","417899","0.0-62.0-0.0","45389014","wem/bandit_party_1","AEO8NL8D28NQG","either","7","1426","","","","","","","0","0","1","","0.2434826965","0.6","0.8","0.2","0.4","0.01272547494","0.4599691003","0.2434826965","0.2729578326","","","","","","","","","","","","","","75","K","2","","","21","main_expt",""
"","bandit","101","421373","0.0-63.0-0.0","45389014","wem/bandit_party_1","AEO8NL8D28NQG","either","7","1961","","","","","","","0","1","0","","0.2702300591","0.6","0.8","0.2","0.4","0.01739491555","0.44353765","0.2702300591","0.2805141014","","","","","","","","","","","","","","75","K","2","","","22","main_expt",""
"","bandit","102","424308","0.0-64.0-0.0","45389014","wem/bandit_party_1","AEO8NL8D28NQG","either","7","1425","","","","","","","1","0","0","0.2424740502","","0.6","0.8","0.2","0.4","","","","","0.006692102231","0.4105594395","0.2424740502","0.3016389313","","","","","","","","","","75","K","2","","","23","main_expt",""
"","bandit","103","427084","0.0-65.0-0.0","45389014","wem/bandit_party_1","AEO8NL8D28NQG","either","7","1262","","","","","","","0","0","1","","0.1754503809","0.6","0.8","0.2","0.4","0.01209419849","0.4243351486","0.1754503809","0.2475621169","","","","","","","","","","","","","","75","K","2","","","24","main_expt",""
"","bandit","104","429843","0.0-66.0-0.0","45389014","wem/bandit_party_1","AEO8NL8D28NQG","either","7","1250","","","","","","","0","1","0","","0.2023019753","0.6","0.8","0.2","0.4","0.009734580702","0.4172780312","0.2023019753","0.2607476102","","","","","","","","","","","","","","75","K","2","","","25","main_expt",""
"","bandit","105","432369","0.0-67.0-0.0","45389014","wem/bandit_party_1","AEO8NL8D28NQG","either","7","1018","","","","","","","0","0","1","","0.1887270612","0.6","0.8","0.2","0.4","0.008596148908","0.3981062588","0.1887270612","0.292589008","","","","","","","","","","","","","","75","K","2","","","26","main_expt",""
"","bandit","106","435040","0.0-68.0-0.0","45389014","wem/bandit_party_1","AEO8NL8D28NQG","either","7","1166","","","","","","","0","1","0","","0.2526986378","0.6","0.8","0.2","0.4","0.01380650739","0.3889188119","0.2526986378","0.2978950393","","","","","","","","","","","","","","75","K","2","","","27","main_expt",""
"","bandit","107","437493","0.0-69.0-0.0","45389014","wem/bandit_party_1","AEO8NL8D28NQG","either","7","945","","","","","","","0","0","1","","0.2536033627","0.6","0.8","0.2","0.4","0.01160852189","0.3699095679","0.2536033627","0.337392419","","","","","","","","","","","","","","75","K","2","","","28","main_expt",""
"","bandit","108","440703","0.0-70.0-0.0","45389014","wem/bandit_party_1","AEO8NL8D28NQG","either","7","1703","","","","","","","0","0","1","0.258258936","","0.6","0.8","0.2","0.4","","","","","0.02858314752","0.4087832773","0.258258936","0.3830759015","","","","","","","","","","75","K","2","","","29","main_expt",""
"","bandit","109","443318","0.0-71.0-0.0","45389014","wem/bandit_party_1","AEO8NL8D28NQG","either","7","1105","","","","","","","0","1","0","","0.3152574144","0.6","0.8","0.2","0.4","0.0265596094","0.4162513677","0.3152574144","0.3778881599","","","","","","","","","","","","","","75","K","2","","","30","main_expt",""
"","bandit","110","445869","0.0-72.0-0.0","45389014","wem/bandit_party_1","AEO8NL8D28NQG","either","7","1042","","","","","","","0","0","1","","0.3508579725","0.6","0.8","0.2","0.4","0.02828816112","0.43337534","0.3508579725","0.3585458117","","","","","","","","","","","","","","75","K","2","","","31","main_expt",""
"","bandit","111","448485","0.0-73.0-0.0","45389014","wem/bandit_party_1","AEO8NL8D28NQG","either","7","1105","","","","","","","0","1","0","","0.3902021543","0.6","0.8","0.2","0.4","0.03857304495","0.4399105216","0.3902021543","0.3511664436","","","","","","","","","","","","","","75","K","2","","","32","main_expt",""
"","bandit","112","451266","0.0-74.0-0.0","45389014","wem/bandit_party_1","AEO8NL8D28NQG","either","7","1274","","","","","","","0","1","0","","0.4112626521","0.6","0.8","0.2","0.4","0.02642959278","0.3859623535","0.4112626521","0.3924960189","","","","","","","","","","","","","","75","K","2","","","33","main_expt",""
"","bandit","113","454109","0.0-75.0-0.0","45389014","wem/bandit_party_1","AEO8NL8D28NQG","either","7","1335","","","","","","","0","1","0","","0.3912589523","0.6","0.8","0.2","0.4","0.06800028167","0.4231921331","0.3912589523","0.3713907517","","","","","","","","","","","","","","75","K","2","","","34","main_expt",""
"","bandit","114","456653","0.0-76.0-0.0","45389014","wem/bandit_party_1","AEO8NL8D28NQG","either","7","1037","","","","","","","0","0","1","","0.3663646496","0.6","0.8","0.2","0.4","0.05710280771","0.3950458867","0.3663646496","0.3929004689","","","","","","","","","","","","","","75","K","2","","","35","main_expt",""
"","bandit","115","459056","0.0-77.0-0.0","45389014","wem/bandit_party_1","AEO8NL8D28NQG","either","7","891","","","","","","","0","0","1","","0.3045225128","0.6","0.8","0.2","0.4","0.07756943076","0.4005306787","0.3045225128","0.3820467604","","","","","","","","","","","","","","75","K","2","","","36","main_expt",""
"","bandit","116","461370","0.0-78.0-0.0","45389014","wem/bandit_party_1","AEO8NL8D28NQG","either","7","806","","","","","","","0","0","1","0.2806474599","","0.6","0.8","0.2","0.4","","","","","0.06074629621","0.3972735937","0.2806474599","0.3948022939","","","","","","","","","","75","K","2","","","37","main_expt",""
"","bandit","117","464416","0.0-79.0-0.0","45389014","wem/bandit_party_1","AEO8NL8D28NQG","either","7","1534","","","","","","","0","1","0","","0.3558759705","0.6","0.8","0.2","0.4","0.07063042774","0.38339591","0.3558759705","0.3769579019","","","","","","","","","","","","","","75","K","2","","","38","main_expt",""
"","bandit","118","466884","0.0-80.0-0.0","45389014","wem/bandit_party_1","AEO8NL8D28NQG","either","7","956","","","","","","","0","1","0","","0.3194138052","0.6","0.8","0.2","0.4","0.06209293178","0.3906354184","0.3194138052","0.4030344636","","","","","","","","","","","","","","75","K","2","","","39","main_expt",""
"","bandit","119","469233","0.0-81.0-0.0","45389014","wem/bandit_party_1","AEO8NL8D28NQG","either","7","838","","","","","","","0","1","0","","0.3549086085","0.6","0.8","0.2","0.4","0.06952578958","0.3623676206","0.3549086085","0.3622335218","","","","","","","","","","","","","","75","K","2","","","40","main_expt",""
"","bandit","120","472068","0.0-82.0-0.0","45389014","wem/bandit_party_1","AEO8NL8D28NQG","either","7","1324","","","","","","","0","1","0","","0.3452113815","0.6","0.8","0.2","0.4","0.1291245709","0.3873704927","0.3452113815","0.3911596719","","","","","","","","","","","","","","75","K","2","","","41","main_expt",""
"","bandit","121","474480","0.0-83.0-0.0","45389014","wem/bandit_party_1","AEO8NL8D28NQG","either","7","904","","","","","","","0","0","1","","0.3522960267","0.6","0.8","0.2","0.4","0.1174523948","0.359823116","0.3522960267","0.3921858285","","","","","","","","","","","","","","75","K","2","","","42","main_expt",""
"","bandit","122","477037","0.0-84.0-0.0","45389014","wem/bandit_party_1","AEO8NL8D28NQG","either","7","1045","","","","","","","0","0","1","","0.3093122096","0.6","0.8","0.2","0.4","0.1201484523","0.3710191411","0.3093122096","0.3831213528","","","","","","","","","","","","","","75","K","2","","","43","main_expt",""
"","bandit","123","479372","0.0-85.0-0.0","45389014","wem/bandit_party_1","AEO8NL8D28NQG","either","7","824","","","","","","","0","0","1","","0.3026159556","0.6","0.8","0.2","0.4","0.09958360536","0.3874065465","0.3026159556","0.3518708159","","","","","","","","","","","","","","75","K","2","","","44","main_expt",""
"","bandit","124","482038","0.0-86.0-0.0","45389014","wem/bandit_party_1","AEO8NL8D28NQG","either","7","1152","","","","","","","0","0","1","0.3336294247","","0.6","0.8","0.2","0.4","","","","","0.05173655998","0.3851533971","0.3336294247","0.3122870636","","","","","","","","","","75","K","2","","","45","main_expt",""
"","bandit","125","484470","0.0-87.0-0.0","45389014","wem/bandit_party_1","AEO8NL8D28NQG","either","7","920","","","","","","","0","0","1","0.05945041096","","0.6","0.8","0.2","0.4","","","","","0.05945041096","0.4055883719","0.3400222736","0.2635721956","","","","","","","","","","72","H","0","img/none_selected.jpg","","46","main_expt",""
"","bandit","126","486287","0.0-88.0-0.0","45389014","wem/bandit_party_1","AEO8NL8D28NQG","either","7","303","","","","","","","0","0","1","0.3671593179","","0.6","0.8","0.2","0.4","","","","","0.04375763727","0.3671593179","0.328707825","0.2856785865","","","","","","","","","","74","J","1","","","47","main_expt",""
"","bandit","127","488075","0.0-89.0-0.0","45389014","wem/bandit_party_1","AEO8NL8D28NQG","either","7","276","","","","","","","0","0","1","0.2649087478","","0.6","0.8","0.2","0.4","","","","","0.0666370861","0.3198203038","0.3307690822","0.2649087478","","","","","","","","","","76","L","3","","","48","main_expt",""
"","bandit","128","492542","0.0-90.0-0.0","45389014","wem/bandit_party_1","AEO8NL8D28NQG","either","7","2960","","","","","","","0","0","1","0.08266213623","","0.6","0.8","0.2","0.4","","","","","0.08266213623","0.3111357295","0.3438067684","0.2462979357","","","","","","","","","","72","H","0","img/none_selected.jpg","","49","main_expt",""
"","bandit","129","494284","0.0-91.0-0.0","45389014","wem/bandit_party_1","AEO8NL8D28NQG","either","7","235","","","","","","","0","1","0","","0.3196682981","0.6","0.8","0.2","0.4","0.08795051988","0.3196682981","0.4037002216","0.2490076798","","","","","","","","","","","","","","74","J","1","","","50","main_expt",""
"","bandit","130","499166","0.0-92.0-0.0","45389014","wem/bandit_party_1","AEO8NL8D28NQG","either","7","3373","","","","","","","0","0","1","0.305209751","","0.6","0.8","0.2","0.4","","","","","0.07533366945","0.3088596379","0.3557518394","0.305209751","","","","","","","","","","76","L","3","","","51","main_expt",""
"","bandit","131","501843","0.0-93.0-0.0","45389014","wem/bandit_party_1","AEO8NL8D28NQG","either","7","1170","","","","","","","0","0","1","","0.3060924957","0.6","0.8","0.2","0.4","0.06506638851","0.3060924957","0.3254324358","0.3087204988","","","","","","","","","","","","","","74","J","1","","","52","main_expt",""
"","bandit","132","503949","0.0-94.0-0.0","45389014","wem/bandit_party_1","AEO8NL8D28NQG","either","7","595","","","","","","","0","0","1","0.3229319808","","0.6","0.8","0.2","0.4","","","","","0.06562792832","0.3229319808","0.2952150256","0.2984188648","","","","","","","","","","74","J","1","","","53","main_expt",""
"","bandit","133","505747","0.0-95.0-0.0","45389014","wem/bandit_party_1","AEO8NL8D28NQG","either","7","284","","","","","","","0","1","0","","0.3280138586","0.6","0.8","0.2","0.4","0.04630081711","0.3280138586","0.300320608","0.3353917468","","","","","","","","","","","","","","74","J","1","","","54","main_expt",""
"","bandit","134","509946","0.0-96.0-0.0","45389014","wem/bandit_party_1","AEO8NL8D28NQG","either","7","2688","","","","","","","1","0","0","0.2777260571","","0.6","0.8","0.2","0.4","","","","","0.03868373719","0.2777260571","0.2985084879","0.3259144651","","","","","","","","","","74","J","1","","","55","main_expt",""
"","bandit","135","513125","0.0-97.0-0.0","45389014","wem/bandit_party_1","AEO8NL8D28NQG","either","7","1665","","","","","","","0","0","1","0.1791004868","","0.6","0.8","0.2","0.4","","","","","0.06235362297","0.1791004868","0.2607009345","0.3259049121","","","","","","","","","","74","J","1","","","56","main_expt",""
"","bandit","136","514882","0.0-98.0-0.0","45389014","wem/bandit_party_1","AEO8NL8D28NQG","either","7","243","","","","","","","0","0","1","0.2182265394","","0.6","0.8","0.2","0.4","","","","","0.04639461243","0.2182265394","0.2565854794","0.3687904078","","","","","","","","","","74","J","1","","","57","main_expt",""
"","bandit","137","517023","0.0-99.0-0.0","45389014","wem/bandit_party_1","AEO8NL8D28NQG","either","7","630","","","","","","","0","0","1","","0.2970860181","0.6","0.8","0.2","0.4","0.08954448139","0.2970860181","0.319121847","0.3422038875","","","","","","","","","","","","","","74","J","1","","","58","main_expt",""
"","bandit","138","519035","0.0-100.0-0.0","45389014","wem/bandit_party_1","AEO8NL8D28NQG","either","7","502","","","","","","","1","0","0","0.3249685468","","0.6","0.8","0.2","0.4","","","","","0.07390342289","0.3249685468","0.3269923399","0.3771421139","","","","","","","","","","74","J","1","","","59","main_expt",""
"","bandit","139","523125","0.0-101.0-0.0","45389014","wem/bandit_party_1","AEO8NL8D28NQG","either","7","2582","","","","","","","0","0","1","0.2931470039","","0.6","0.8","0.2","0.4","","","","","0.05801548519","0.2931470039","0.3150968823","0.3620124399","","","","","","","","","","74","J","1","","","60","main_expt",""
"","bandit","140","525203","0.0-102.0-0.0","45389014","wem/bandit_party_1","AEO8NL8D28NQG","either","7","569","","","","","","","0","0","1","0.2646536279","","0.6","0.8","0.2","0.4","","","","","0.07333263924","0.2646536279","0.324539239","0.3958116198","","","","","","","","","","74","J","1","","","61","main_expt",""
"","bandit","141","527385","0.0-103.0-0.0","45389014","wem/bandit_party_1","AEO8NL8D28NQG","either","7","668","","","","","","","0","0","1","0.242461968","","0.6","0.8","0.2","0.4","","","","","0.07563430262","0.242461968","0.3066306166","0.3615218546","","","","","","","","","","74","J","1","","","62","main_expt",""
"","bandit","142","529335","0.0-104.0-0.0","45389014","wem/bandit_party_1","AEO8NL8D28NQG","either","7","443","","","","","","","0","0","1","0.2206683029","","0.6","0.8","0.2","0.4","","","","","0.06826526778","0.2206683029","0.3068900116","0.3574266064","","","","","","","","","","74","J","1","","","63","main_expt",""
"","bandit","143","533451","0.0-105.0-0.0","45389014","wem/bandit_party_1","AEO8NL8D28NQG","either","7","2606","","","","","","","0","0","1","","0.1175271989","0.6","0.8","0.2","0.4","0.1175271989","0.2288959862","0.2936494982","0.3541915859","","","","","","","","","","","","","","72","H","0","img/none_selected.jpg","","64","main_expt",""
"","bandit","144","535324","0.0-106.0-0.0","45389014","wem/bandit_party_1","AEO8NL8D28NQG","either","7","360","","","","","","","0","1","0","","0.290236101","0.6","0.8","0.2","0.4","0.1273865191","0.2346523549","0.290236101","0.3339820985","","","","","","","","","","","","","","75","K","2","","","65","main_expt",""
"","bandit","145","539458","0.0-107.0-0.0","45389014","wem/bandit_party_1","AEO8NL8D28NQG","either","7","2622","","","","","","","0","0","1","0.3195467083","","0.6","0.8","0.2","0.4","","","","","0.09075088943","0.1881688105","0.2512036594","0.3195467083","","","","","","","","","","76","L","3","","","66","main_expt",""
"","bandit","146","541961","0.0-108.0-0.0","45389014","wem/bandit_party_1","AEO8NL8D28NQG","either","7","989","","","","","","","0","0","1","0.263747572","","0.6","0.8","0.2","0.4","","","","","0.08077075725","0.231043846","0.263747572","0.3477383846","","","","","","","","","","75","K","2","","","67","main_expt",""
"","bandit","147","543811","0.0-109.0-0.0","45389014","wem/bandit_party_1","AEO8NL8D28NQG","either","7","336","","","","","","","0","0","1","","0.2892519303","0.6","0.8","0.2","0.4","0.08810311296","0.2576664243","0.2892519303","0.3365352069","","","","","","","","","","","","","","75","K","2","","","68","main_expt",""
"","bandit","148","545587","0.0-110.0-0.0","45389014","wem/bandit_party_1","AEO8NL8D28NQG","either","7","266","","","","","","","0","0","1","0.2383664846","","0.6","0.8","0.2","0.4","","","","","0.1260156682","0.2183283259","0.2383664846","0.3148812039","","","","","","","","","","75","K","2","","","69","main_expt",""
"","bandit","149","547432","0.0-111.0-0.0","45389014","wem/bandit_party_1","AEO8NL8D28NQG","either","7","332","","","","","","","0","0","1","0.2497111545","","0.6","0.8","0.2","0.4","","","","","0.08773951932","0.2260484764","0.2497111545","0.3154014692","","","","","","","","","","75","K","2","","","70","main_expt",""
"","bandit","150","551924","0.0-112.0-0.0","45389014","wem/bandit_party_1","AEO8NL8D28NQG","either","7","2982","","","","","","","0","0","1","0.1154304285","","0.6","0.8","0.2","0.4","","","","","0.1154304285","0.3196469567","0.2095843002","0.219815459","","","","","","","","","","72","H","0","img/none_selected.jpg","","71","main_expt",""
"","bandit","151","554106","0.0-113.0-0.0","45389014","wem/bandit_party_1","AEO8NL8D28NQG","either","7","668","","","","","","","1","0","0","0.3644141189","","0.6","0.8","0.2","0.4","","","","","0.10097247","0.3644141189","0.1972488467","0.2623730272","","","","","","","","","","74","J","1","","","72","main_expt",""
"","bandit","152","560570","0.0-114.0-0.0","45389014","wem/bandit_party_1","AEO8NL8D28NQG","either","7","4953","","","","","","","0","0","1","0.2639805735","","0.6","0.8","0.2","0.4","","","","","0.0746930591","0.4081842109","0.15494396","0.2639805735","","","","","","","","","","76","L","3","","","73","main_expt",""
"","bandit","153","563231","0.0-115.0-0.0","45389014","wem/bandit_party_1","AEO8NL8D28NQG","either","7","1149","","","","","","","0","0","1","0.4506698749","","0.6","0.8","0.2","0.4","","","","","0.1124392477","0.4506698749","0.1324790415","0.2770925356","","","","","","","","","","74","J","1","","","74","main_expt",""
"","bandit","154","565066","0.0-116.0-0.0","45389014","wem/bandit_party_1","AEO8NL8D28NQG","either","7","329","","","","","","","0","0","1","0.454520075","","0.6","0.8","0.2","0.4","","","","","0.113494578","0.454520075","0.179195356","0.2796652475","","","","","","","","","","74","J","1","","","75","main_expt",""
"","bandit","155","566905","0.0-117.0-0.0","45389014","wem/bandit_party_1","AEO8NL8D28NQG","either","7","325","","","","","","","0","0","1","0.466199952","","0.6","0.8","0.2","0.4","","","","","0.1469344428","0.466199952","0.215808919","0.3153427244","","","","","","","","","","74","J","1","","","76","main_expt",""
"","bandit","156","568832","0.0-118.0-0.0","45389014","wem/bandit_party_1","AEO8NL8D28NQG","either","7","412","","","","","","","0","0","1","0.4402141775","","0.6","0.8","0.2","0.4","","","","","0.2152215887","0.4402141775","0.2312347408","0.3676911864","","","","","","","","","","74","J","1","","","77","main_expt",""
"","bandit","157","575090","0.0-119.0-0.0","45389014","wem/bandit_party_1","AEO8NL8D28NQG","either","7","4749","","","","","","","0","0","1","","0.2055177618","0.6","0.8","0.2","0.4","0.2055177618","0.4525957793","0.2197025874","0.3434277392","","","","","","","","","","","","","","72","H","0","img/none_selected.jpg","","78","main_expt",""
"","bandit","158","578328","0.0-120.0-0.0","45389014","wem/bandit_party_1","AEO8NL8D28NQG","either","7","1727","","","","","","","0","0","1","0.2227420924","","0.6","0.8","0.2","0.4","","","","","0.222262525","0.4630799716","0.2227420924","0.3758616161","","","","","","","","","","75","K","2","","","79","main_expt",""
"","bandit","159","580119","0.0-121.0-0.0","45389014","wem/bandit_party_1","AEO8NL8D28NQG","either","7","276","","","","","","","0","0","1","0.3862393514","","0.6","0.8","0.2","0.4","","","","","0.2700860438","0.423693353","0.2283057493","0.3862393514","","","","","","","","","","76","L","3","","","80","main_expt",""
"","bandit","160","584686","0.0-122.0-0.0","45389014","wem/bandit_party_1","AEO8NL8D28NQG","either","7","3057","","","","","","","1","0","0","0.2642688004","","0.6","0.8","0.2","0.4","","","","","0.2642688004","0.4319112677","0.2721525977","0.3593770893","","","","","","","","","","72","H","0","img/none_selected.jpg","","81","main_expt",""
"","bandit","161","588225","0.0-123.0-0.0","45389014","wem/bandit_party_1","AEO8NL8D28NQG","either","7","2025","","","","","","","0","0","1","0.4035110645","","0.6","0.8","0.2","0.4","","","","","0.2824164754","0.441827487","0.2850237184","0.4035110645","","","","","","","","","","76","L","3","","","82","main_expt",""
"","bandit","162","591409","0.0-124.0-0.0","45389014","wem/bandit_party_1","AEO8NL8D28NQG","either","7","1673","","","","","","","0","0","1","","0.2819095575","0.6","0.8","0.2","0.4","0.2819095575","0.4288861504","0.3236436683","0.3719627038","","","","","","","","","","","","","","72","H","0","img/none_selected.jpg","","83","main_expt",""
"","bandit","163","593396","0.0-125.0-0.0","45389014","wem/bandit_party_1","AEO8NL8D28NQG","either","7","474","","","","","","","1","0","0","0.2589745902","","0.6","0.8","0.2","0.4","","","","","0.2589745902","0.4350385517","0.3339638593","0.3349288927","","","","","","","","","","72","H","0","img/none_selected.jpg","","84","main_expt",""
"","bandit","164","597958","0.0-126.0-0.0","45389014","wem/bandit_party_1","AEO8NL8D28NQG","either","7","3048","","","","","","","0","1","0","","0.3626504113","0.6","0.8","0.2","0.4","0.3626504113","0.4255505645","0.3795022601","0.3247899262","","","","","","","","","","","","","","72","H","0","img/none_selected.jpg","","85","main_expt",""
"","bandit","165","599797","0.0-127.0-0.0","45389014","wem/bandit_party_1","AEO8NL8D28NQG","either","7","326","","","","","","","0","0","1","0.3598915268","","0.6","0.8","0.2","0.4","","","","","0.3598915268","0.4330938692","0.3835523064","0.3443557019","","","","","","","","","","72","H","0","img/none_selected.jpg","","86","main_expt",""
"","bandit","166","604663","0.0-128.0-0.0","45389014","wem/bandit_party_1","AEO8NL8D28NQG","either","7","3352","","","","","","","0","0","1","","0.3433052933","0.6","0.8","0.2","0.4","0.3433052933","0.4548398529","0.3772514457","0.3648776167","","","","","","","","","","","","","","72","H","0","img/none_selected.jpg","","87","main_expt",""
"","bandit","167","606477","0.0-129.0-0.0","45389014","wem/bandit_party_1","AEO8NL8D28NQG","either","7","303","","","","","","","1","0","0","0.4022938878","","0.6","0.8","0.2","0.4","","","","","0.4022938878","0.4493124031","0.3766830519","0.3609631839","","","","","","","","","","72","H","0","img/none_selected.jpg","","88","main_expt",""
"","bandit","168","610759","0.0-130.0-0.0","45389014","wem/bandit_party_1","AEO8NL8D28NQG","either","7","2771","","","","","","","0","0","1","","0.4141493151","0.6","0.8","0.2","0.4","0.4141493151","0.4161110063","0.3537755119","0.3636167192","","","","","","","","","","","","","","72","H","0","img/none_selected.jpg","","89","main_expt",""
"","bandit","169","612593","0.0-131.0-0.0","45389014","wem/bandit_party_1","AEO8NL8D28NQG","either","7","315","","","","","","","1","0","0","0.4136124289","","0.6","0.8","0.2","0.4","","","","","0.4136124289","0.405260856","0.3014761449","0.3563441379","","","","","","","","","","72","H","0","img/none_selected.jpg","","90","main_expt",""
"","bandit","170","614437","0.0-132.0-0.0","45389014","wem/bandit_party_1","AEO8NL8D28NQG","either","7","331","","","","","","","0","0","1","0.4184852842","","0.6","0.8","0.2","0.4","","","","","0.4184852842","0.3827048226","0.2694038268","0.3389138503","","","","","","","","","","72","H","0","img/none_selected.jpg","","91","main_expt",""
"","bandit","171","619247","0.0-133.0-0.0","45389014","wem/bandit_party_1","AEO8NL8D28NQG","either","7","3298","","","","","","","0","0","1","0.4456808576","","0.6","0.8","0.2","0.4","","","","","0.4456808576","0.3552182969","0.2651536323","0.3263360165","","","","","","","","","","72","H","0","img/none_selected.jpg","","92","main_expt",""
"","bandit","172","621082","0.0-134.0-0.0","45389014","wem/bandit_party_1","AEO8NL8D28NQG","either","7","321","","","","","","","0","0","1","0.4355219805","","0.6","0.8","0.2","0.4","","","","","0.4355219805","0.3286897504","0.1997208586","0.2844131911","","","","","","","","","","72","H","0","img/none_selected.jpg","","93","main_expt",""
"","bandit","173","622937","0.0-135.0-0.0","45389014","wem/bandit_party_1","AEO8NL8D28NQG","either","7","346","","","","","","","0","0","1","","0.4609821192","0.6","0.8","0.2","0.4","0.4609821192","0.3422490236","0.2442555344","0.2978465223","","","","","","","","","","","","","","72","H","0","img/none_selected.jpg","","94","main_expt",""
"","bandit","174","626822","0.0-136.0-0.0","45389014","wem/bandit_party_1","AEO8NL8D28NQG","either","7","2371","","","","","","","0","0","1","0.3160161054","","0.6","0.8","0.2","0.4","","","","","0.4419374505","0.3160161054","0.2638839348","0.2638723705","","","","","","","","","","74","J","1","","","95","main_expt",""
"","bandit","175","628721","0.0-137.0-0.0","45389014","wem/bandit_party_1","AEO8NL8D28NQG","either","7","385","","","","","","","0","0","1","","0.2265245807","0.6","0.8","0.2","0.4","0.39438674","0.2945538732","0.2265245807","0.2276010735","","","","","","","","","","","","","","75","K","2","","","96","main_expt",""
"","bandit","176","630507","0.0-138.0-0.0","45389014","wem/bandit_party_1","AEO8NL8D28NQG","either","7","273","","","","","","","1","0","0","0.2045446072","","0.6","0.8","0.2","0.4","","","","","0.3617668419","0.393563827","0.1969189177","0.2045446072","","","","","","","","","","76","L","3","","","97","main_expt",""
"","bandit","177","635530","0.0-139.0-0.0","45389014","wem/bandit_party_1","AEO8NL8D28NQG","either","7","3514","","","","","","","0","0","1","","0.2436418828","0.6","0.8","0.2","0.4","0.3737913853","0.4046254927","0.1761144245","0.2436418828","","","","","","","","","","","","","","76","L","3","","","98","main_expt",""
"","bandit","178","637345","0.0-140.0-0.0","45389014","wem/bandit_party_1","AEO8NL8D28NQG","either","7","303","","","","","","","0","0","1","0.2473144087","","0.6","0.8","0.2","0.4","","","","","0.4221129479","0.3659012549","0.1211630765","0.2473144087","","","","","","","","","","76","L","3","","","99","main_expt",""
"","bandit","179","639005","0.0-141.0-0.0","45389014","wem/bandit_party_1","AEO8NL8D28NQG","either","7","143","","","","","","","0","1","0","","0.2707360286","0.6","0.8","0.2","0.4","0.3857893684","0.400368336","0.1257326749","0.2707360286","","","","","","","","","","","","","","76","L","3","","","100","main_expt",""
"","bandit","180","643172","0.0-142.0-0.0","45389014","wem/bandit_party_1","AEO8NL8D28NQG","either","7","2654","","","","","","","0","1","0","","0.3250409822","0.6","0.8","0.2","0.4","0.3635527264","0.4367931528","0.09975532208","0.3250409822","","","","","","","","","","","","","","76","L","3","","","101","main_expt",""
"","bandit","181","644959","0.0-143.0-0.0","45389014","wem/bandit_party_1","AEO8NL8D28NQG","either","7","275","","","","","","","1","0","0","0.3088580598","","0.6","0.8","0.2","0.4","","","","","0.3738375489","0.4371155326","0.1127414424","0.3088580598","","","","","","","","","","76","L","3","","","102","main_expt",""
"","bandit","182","648328","0.0-144.0-0.0","45389014","wem/bandit_party_1","AEO8NL8D28NQG","either","7","1857","","","","","","","0","0","1","","0.2901001995","0.6","0.8","0.2","0.4","0.3860163181","0.388648264","0.1232600734","0.2901001995","","","","","","","","","","","","","","76","L","3","","","103","main_expt",""
"","bandit","183","649837","0.0-145.0-0.0","45389014","wem/bandit_party_1","AEO8NL8D28NQG","either","7","1","","","","","","","0","0","1","","0.309645936","0.6","0.8","0.2","0.4","0.390692362","0.3718469433","0.08156843846","0.309645936","","","","","","","","","","","","","","76","L","3","","","104","main_expt",""
"","bandit","184","651630","0.0-146.0-0.0","45389014","wem/bandit_party_1","AEO8NL8D28NQG","either","7","282","","","","","","","0","0","1","","0.3386062745","0.6","0.8","0.2","0.4","0.4139082553","0.3920304628","0.08245659199","0.3386062745","","","","","","","","","","","","","","76","L","3","","","105","main_expt",""
"","bandit","185","653440","0.0-147.0-0.0","45389014","wem/bandit_party_1","AEO8NL8D28NQG","either","7","298","","","","","","","1","0","0","0.3827539061","","0.6","0.8","0.2","0.4","","","","","0.3295275825","0.3733497125","0.1276639339","0.3827539061","","","","","","","","","","76","L","3","","","106","main_expt",""
"","bandit","186","657467","0.0-148.0-0.0","45389014","wem/bandit_party_1","AEO8NL8D28NQG","either","7","2512","","","","","","","0","1","0","","0.3401355396","0.6","0.8","0.2","0.4","0.3499712774","0.3878439861","0.1812689745","0.3401355396","","","","","","","","","","","","","","76","L","3","","","107","main_expt",""
"","bandit","187","659322","0.0-149.0-0.0","45389014","wem/bandit_party_1","AEO8NL8D28NQG","either","7","343","","","","","","","1","0","0","0.3258039352","","0.6","0.8","0.2","0.4","","","","","0.2666891207","0.3529013302","0.2187982558","0.3258039352","","","","","","","","","","76","L","3","","","108","main_expt",""
"","bandit","188","662489","0.0-150.0-0.0","45389014","wem/bandit_party_1","AEO8NL8D28NQG","either","7","1652","","","","","","","0","0","1","","0.374919859","0.6","0.8","0.2","0.4","0.2575067634","0.3457683734","0.2201216928","0.374919859","","","","","","","","","","","","","","76","L","3","","","109","main_expt",""
"","bandit","189","664203","0.0-151.0-0.0","45389014","wem/bandit_party_1","AEO8NL8D28NQG","either","7","199","","","","","","","1","0","0","0.3656186065","","0.6","0.8","0.2","0.4","","","","","0.2664913793","0.3316873257","0.1789817232","0.3656186065","","","","","","","","","","76","L","3","","","110","main_expt",""
"","bandit","190","665990","0.0-152.0-0.0","45389014","wem/bandit_party_1","AEO8NL8D28NQG","either","7","279","","","","","","","0","0","1","","0.3649701027","0.6","0.8","0.2","0.4","0.2233446911","0.3434945318","0.2404947452","0.3649701027","","","","","","","","","","","","","","76","L","3","","","111","main_expt",""
"","bandit","191","669367","0.0-153.0-0.0","45389014","wem/bandit_party_1","AEO8NL8D28NQG","either","7","1860","","","","","","","1","0","0","0.3371716456","","0.6","0.8","0.2","0.4","","","","","0.2170082082","0.2729480053","0.2959558532","0.3371716456","","","","","","","","","","76","L","3","","","112","main_expt",""
"","bandit","192","671206","0.0-154.0-0.0","45389014","wem/bandit_party_1","AEO8NL8D28NQG","either","7","325","","","","","","","0","0","1","0.2587224119","","0.6","0.8","0.2","0.4","","","","","0.1912277411","0.2579672073","0.2966985553","0.2587224119","","","","","","","","","","76","L","3","","","113","main_expt",""
"","bandit","193","673075","0.0-155.0-0.0","45389014","wem/bandit_party_1","AEO8NL8D28NQG","either","7","357","","","","","","","0","0","1","0.2384324947","","0.6","0.8","0.2","0.4","","","","","0.1691995451","0.24654084","0.3289730608","0.2384324947","","","","","","","","","","76","L","3","","","114","main_expt",""
"","bandit","194","676710","0.0-156.0-0.0","45389014","wem/bandit_party_1","AEO8NL8D28NQG","either","7","2119","","","","","","","0","1","0","","0.2705755989","0.6","0.8","0.2","0.4","0.1263730162","0.246649757","0.2783705844","0.2705755989","","","","","","","","","","","","","","76","L","3","","","115","main_expt",""
"","bandit","195","678360","0.0-157.0-0.0","45389014","wem/bandit_party_1","AEO8NL8D28NQG","either","7","139","","","","","","","0","0","1","","0.2666822","0.6","0.8","0.2","0.4","0.1130092975","0.2190482835","0.2990421824","0.2666822","","","","","","","","","","","","","","76","L","3","","","116","main_expt",""
"","bandit","196","681735","0.0-158.0-0.0","45389014","wem/bandit_party_1","AEO8NL8D28NQG","either","7","1859","","","","","","","0","0","1","","0.2664749026","0.6","0.8","0.2","0.4","0.1317362661","0.1860086181","0.3214730448","0.2664749026","","","","","","","","","","","","","","76","L","3","","","117","main_expt",""
"","bandit","197","683579","0.0-159.0-0.0","45389014","wem/bandit_party_1","AEO8NL8D28NQG","either","7","332","","","","","","","0","0","1","0.285497096","","0.6","0.8","0.2","0.4","","","","","0.08460291254","0.1765749983","0.3996160597","0.285497096","","","","","","","","","","76","L","3","","","118","main_expt",""
"","bandit","198","685219","0.0-160.0-0.0","45389014","wem/bandit_party_1","AEO8NL8D28NQG","either","7","125","","","","","","","0","0","1","","0.3004427434","0.6","0.8","0.2","0.4","0.09168363065","0.1840588368","0.4143362638","0.3004427434","","","","","","","","","","","","","","76","L","3","","","119","main_expt",""
"","bandit","199","690077","0.0-161.0-0.0","45389014","wem/bandit_party_1","AEO8NL8D28NQG","either","7","3347","","","","","","","1","0","0","0.06729372802","","0.6","0.8","0.2","0.4","","","","","0.06729372802","0.1988357929","0.372340151","0.2419855731","","","","","","","","","","72","H","0","img/none_selected.jpg","","120","main_expt",""
"","bandit","200","693547","0.0-162.0-0.0","45389014","wem/bandit_party_1","AEO8NL8D28NQG","either","7","1955","","","","","","","0","0","1","","0.2315674","0.6","0.8","0.2","0.4","0.08346408207","0.2315674","0.3910424524","0.3054132847","","","","","","","","","","","","","","74","J","1","","","121","main_expt",""
"","bandit","201","695398","0.0-163.0-0.0","45389014","wem/bandit_party_1","AEO8NL8D28NQG","either","7","341","","","","","","","0","1","0","","0.3813410711","0.6","0.8","0.2","0.4","0.05632743158","0.2041322171","0.3813410711","0.2473202095","","","","","","","","","","","","","","75","K","2","","","122","main_expt",""
"","bandit","202","699563","0.0-164.0-0.0","45389014","wem/bandit_party_1","AEO8NL8D28NQG","either","7","2656","","","","","","","0","0","1","","0.05516745574","0.6","0.8","0.2","0.4","0.05516745574","0.1945268209","0.4247291795","0.2909195989","","","","","","","","","","","","","","72","H","0","img/none_selected.jpg","","123","main_expt",""
"","bandit","203","702007","0.0-165.0-0.0","45389014","wem/bandit_party_1","AEO8NL8D28NQG","either","7","928","","","","","","","0","0","1","","0.05528311039","0.6","0.8","0.2","0.4","0.05528311039","0.2206749142","0.4311179713","0.3493750294","","","","","","","","","","","","","","72","H","0","img/none_selected.jpg","","124","main_expt",""
"","bandit","204","704036","0.0-166.0-0.0","45389014","wem/bandit_party_1","AEO8NL8D28NQG","either","7","521","","","","","","","0","0","1","0.07149807259","","0.6","0.8","0.2","0.4","","","","","0.07149807259","0.212012295","0.4085782939","0.3883668019","","","","","","","","","","72","H","0","img/none_selected.jpg","","125","main_expt",""
"","bandit","205","705783","0.0-167.0-0.0","45389014","wem/bandit_party_1","AEO8NL8D28NQG","either","7","232","","","","","","","0","0","1","0.1137803622","","0.6","0.8","0.2","0.4","","","","","0.1137803622","0.1656684785","0.4110861309","0.3888129637","","","","","","","","","","72","H","0","img/none_selected.jpg","","126","main_expt",""
"","bandit","206","712229","0.0-168.0-0.0","45389014","wem/bandit_party_1","AEO8NL8D28NQG","either","7","4937","","","","","","","0","0","1","","0.4214671818","0.6","0.8","0.2","0.4","0.1003054442","0.1685301808","0.4214671818","0.3659195129","","","","","","","","","","","","","","75","K","2","","","127","main_expt",""
"","bandit","207","714103","0.0-169.0-0.0","45389014","wem/bandit_party_1","AEO8NL8D28NQG","either","7","366","","","","","","","0","0","1","","0.36889317","0.6","0.8","0.2","0.4","0.1378169536","0.1703551811","0.36889317","0.3689954399","","","","","","","","","","","","","","75","K","2","","","128","main_expt",""
"","bandit","208","716034","0.0-170.0-0.0","45389014","wem/bandit_party_1","AEO8NL8D28NQG","either","7","418","","","","","","","0","0","1","","0.3840267129","0.6","0.8","0.2","0.4","0.1333081235","0.1624753709","0.3840267129","0.3600340942","","","","","","","","","","","","","","75","K","2","","","129","main_expt",""
"","bandit","209","717847","0.0-171.0-0.0","45389014","wem/bandit_party_1","AEO8NL8D28NQG","either","7","302","","","","","","","0","1","0","","0.3809677701","0.6","0.8","0.2","0.4","0.1682212827","0.2335662737","0.3809677701","0.3580797835","","","","","","","","","","","","","","75","K","2","","","130","main_expt",""
"","bandit","210","723088","0.0-172.0-0.0","45389014","wem/bandit_party_1","AEO8NL8D28NQG","either","7","3733","","","","","","","0","1","0","","0.3681933818","0.6","0.8","0.2","0.4","0.2193829955","0.240441026","0.3681933818","0.3785893338","","","","","","","","","","","","","","75","K","2","","","131","main_expt",""
"","bandit","211","726071","0.0-173.0-0.0","45389014","wem/bandit_party_1","AEO8NL8D28NQG","either","7","1474","","","","","","","0","0","1","","0.3664045944","0.6","0.8","0.2","0.4","0.2693349046","0.2266699971","0.3664045944","0.3764735404","","","","","","","","","","","","","","75","K","2","","","132","main_expt",""
"","bandit","212","727871","0.0-174.0-0.0","45389014","wem/bandit_party_1","AEO8NL8D28NQG","either","7","287","","","","","","","0","0","1","","0.4046437197","0.6","0.8","0.2","0.4","0.2576546077","0.1994193025","0.4046437197","0.3433534211","","","","","","","","","","","","","","75","K","2","","","133","main_expt",""
"","bandit","213","729671","0.0-175.0-0.0","45389014","wem/bandit_party_1","AEO8NL8D28NQG","either","7","293","","","","","","","0","1","0","","0.364490756","0.6","0.8","0.2","0.4","0.2412372273","0.1891464922","0.364490756","0.3606247271","","","","","","","","","","","","","","75","K","2","","","134","main_expt",""
"","bandit","214","733150","0.0-176.0-0.0","45389014","wem/bandit_party_1","AEO8NL8D28NQG","either","7","1967","","","","","","","0","0","1","","0.311914316","0.6","0.8","0.2","0.4","0.2198641054","0.1614798668","0.311914316","0.3268624306","","","","","","","","","","","","","","75","K","2","","","135","main_expt",""
"","bandit","215","735071","0.0-177.0-0.0","45389014","wem/bandit_party_1","AEO8NL8D28NQG","either","7","408","","","","","","","0","0","1","","0.2653901568","0.6","0.8","0.2","0.4","0.2504132697","0.1880386222","0.2653901568","0.2854606769","","","","","","","","","","","","","","75","K","2","","","136","main_expt",""
"","bandit","216","736670","0.0-178.0-0.0","45389014","wem/bandit_party_1","AEO8NL8D28NQG","either","7","88","","","","","","","0","0","1","0.2413295316","","0.6","0.8","0.2","0.4","","","","","0.1912230989","0.1961818793","0.2413295316","0.3311747399","","","","","","","","","","75","K","2","","","137","main_expt",""
"","bandit","217","738258","0.0-179.0-0.0","45389014","wem/bandit_party_1","AEO8NL8D28NQG","either","7","72","","","","","","","0","0","1","","0.2060295423","0.6","0.8","0.2","0.4","0.1576256809","0.2857678963","0.2060295423","0.2570785188","","","","","","","","","","","","","","75","K","2","","","138","main_expt",""
"","bandit","218","743058","0.0-180.0-0.0","45389014","wem/bandit_party_1","AEO8NL8D28NQG","either","7","3288","","","","","","","0","0","1","0.1019788138","","0.6","0.8","0.2","0.4","","","","","0.1019788138","0.3449131854","0.1809645164","0.2858060749","","","","","","","","","","72","H","0","img/none_selected.jpg","","139","main_expt",""
"","bandit","219","744851","0.0-181.0-0.0","45389014","wem/bandit_party_1","AEO8NL8D28NQG","either","7","280","","","","","","","0","0","1","0.2537716732","","0.6","0.8","0.2","0.4","","","","","0.07754087054","0.2537716732","0.1843216893","0.2975559752","","","","","","","","","","74","J","1","","","140","main_expt",""
"","bandit","220","746445","0.0-182.0-0.0","45389014","wem/bandit_party_1","AEO8NL8D28NQG","either","7","85","","","","","","","0","0","1","","0.2802168405","0.6","0.8","0.2","0.4","0.09489610577","0.2858111263","0.1651876155","0.2802168405","","","","","","","","","","","","","","76","L","3","","","141","main_expt",""
"","bandit","221","750979","0.0-183.0-0.0","45389014","wem/bandit_party_1","AEO8NL8D28NQG","either","7","3019","","","","","","","0","0","1","0.09601428546","","0.6","0.8","0.2","0.4","","","","","0.09601428546","0.303049367","0.1536427928","0.2231986748","","","","","","","","","","72","H","0","img/none_selected.jpg","","142","main_expt",""
"","bandit","222","752778","0.0-184.0-0.0","45389014","wem/bandit_party_1","AEO8NL8D28NQG","either","7","287","","","","","","","0","0","1","0.2969419413","","0.6","0.8","0.2","0.4","","","","","0.08301142993","0.2969419413","0.1546140226","0.2032880393","","","","","","","","","","74","J","1","","","143","main_expt",""
"","bandit","223","754287","0.0-185.0-0.0","45389014","wem/bandit_party_1","AEO8NL8D28NQG","either","7","1","","","","","","","0","1","0","","0.1967741464","0.6","0.8","0.2","0.4","0.09599686985","0.3128690494","0.1746031107","0.1967741464","","","","","","","","","","","","","","76","L","3","","","144","main_expt",""
"","bandit","224","759059","0.0-186.0-0.0","45389014","wem/bandit_party_1","AEO8NL8D28NQG","either","7","3258","","","","","","","0","0","1","","0.2283154954","0.6","0.8","0.2","0.4","0.07499383622","0.2991796355","0.2021387556","0.2283154954","","","","","","","","","","","","","","76","L","3","","","145","main_expt",""
"","bandit","225","760884","0.0-187.0-0.0","45389014","wem/bandit_party_1","AEO8NL8D28NQG","either","7","312","","","","","","","0","0","1","0.2118700154","","0.6","0.8","0.2","0.4","","","","","0.09566861","0.3163763193","0.2504344391","0.2118700154","","","","","","","","","","76","L","3","","","146","main_expt",""
"","bandit","226","762633","0.0-188.0-0.0","45389014","wem/bandit_party_1","AEO8NL8D28NQG","either","7","235","","","","","","","0","0","1","0.210437557","","0.6","0.8","0.2","0.4","","","","","0.08578591382","0.3198025905","0.2437718569","0.210437557","","","","","","","","","","76","L","3","","","147","main_expt",""
"","bandit","227","764618","0.0-189.0-0.0","45389014","wem/bandit_party_1","AEO8NL8D28NQG","either","7","471","","","","","","","0","1","0","","0.2370661354","0.6","0.8","0.2","0.4","0.1147887709","0.2588245921","0.2446677265","0.2370661354","","","","","","","","","","","","","","76","L","3","","","148","main_expt",""
"","bandit","228","768118","0.0-190.0-0.0","45389014","wem/bandit_party_1","AEO8NL8D28NQG","either","7","1985","","","","","","","0","0","1","0.2430363771","","0.6","0.8","0.2","0.4","","","","","0.1378203382","0.248712437","0.2911002833","0.2430363771","","","","","","","","","","76","L","3","","","149","main_expt",""
"","bandit","229","771106","0.0-191.0-0.0","45389014","wem/bandit_party_1","AEO8NL8D28NQG","either","7","1474","","","","","","","0","0","1","0.2242182381","","0.6","0.8","0.2","0.4","","","","","0.1414499273","0.179144869","0.3529655025","0.2242182381","","","","","","","","","","76","L","3","","","150","main_expt",""
"","bandit","230","772930","0.0-192.0-0.0","45389014","wem/bandit_party_1","AEO8NL8D28NQG","either","7","316","","","","","","","0","0","1","0.1997145133","","0.6","0.8","0.2","0.4","","","","","0.07852348772","0.1545669956","0.3885741111","0.1997145133","","","","","","","","","","76","L","3","","","151","main_expt",""
"","bandit","231","774875","0.0-193.0-0.0","45389014","wem/bandit_party_1","AEO8NL8D28NQG","either","7","432","","","","","","","0","0","1","0.2195927633","","0.6","0.8","0.2","0.4","","","","","0.08485793113","0.1651714415","0.3690499696","0.2195927633","","","","","","","","","","76","L","3","","","152","main_expt",""
"","bandit","232","779501","0.0-194.0-0.0","45389014","wem/bandit_party_1","AEO8NL8D28NQG","either","7","3114","","","","","","","0","1","0","","0.1083789561","0.6","0.8","0.2","0.4","0.1083789561","0.2396245514","0.3710492515","0.2121816628","","","","","","","","","","","","","","72","H","0","img/none_selected.jpg","","153","main_expt",""
"","bandit","233","783777","0.0-195.0-0.0","45389014","wem/bandit_party_1","AEO8NL8D28NQG","either","7","2760","","","","","","","0","0","1","","0.109098481","0.6","0.8","0.2","0.4","0.109098481","0.2085838567","0.3483335413","0.1830588608","","","","","","","","","","","","","","72","H","0","img/none_selected.jpg","","154","main_expt",""
"","bandit","234","785601","0.0-196.0-0.0","45389014","wem/bandit_party_1","AEO8NL8D28NQG","either","7","314","","","","","","","1","0","0","0.1758262092","","0.6","0.8","0.2","0.4","","","","","0.1758262092","0.1864274254","0.3343760247","0.2031423662","","","","","","","","","","72","H","0","img/none_selected.jpg","","155","main_expt",""
"","bandit","235","787460","0.0-197.0-0.0","45389014","wem/bandit_party_1","AEO8NL8D28NQG","either","7","348","","","","","","","0","0","1","0.2046597001","","0.6","0.8","0.2","0.4","","","","","0.2046597001","0.1750870897","0.3742013553","0.2022731065","","","","","","","","","","72","H","0","img/none_selected.jpg","","156","main_expt",""
"","bandit","236","790766","0.0-198.0-0.0","45389014","wem/bandit_party_1","AEO8NL8D28NQG","either","7","1796","","","","","","","1","0","0","0.1774751899","","0.6","0.8","0.2","0.4","","","","","0.1774751899","0.1321985386","0.3620366094","0.1826661219","","","","","","","","","","72","H","0","img/none_selected.jpg","","157","main_expt",""
"","bandit","237","792562","0.0-199.0-0.0","45389014","wem/bandit_party_1","AEO8NL8D28NQG","either","7","287","","","","","","","0","0","1","0.1612033886","","0.6","0.8","0.2","0.4","","","","","0.1612033886","0.1341899746","0.3671714071","0.1658993888","","","","","","","","","","72","H","0","img/none_selected.jpg","","158","main_expt",""
"","bandit","238","795822","0.0-200.0-0.0","45389014","wem/bandit_party_1","AEO8NL8D28NQG","either","7","1746","","","","","","","0","0","1","0.1586838935","","0.6","0.8","0.2","0.4","","","","","0.1586838935","0.1567784951","0.4015988616","0.1620079643","","","","","","","","","","72","H","0","img/none_selected.jpg","","159","main_expt",""
"","bandit","239","797482","0.0-201.0-0.0","45389014","wem/bandit_party_1","AEO8NL8D28NQG","either","7","151","","","","","","","0","0","1","","0.2159944071","0.6","0.8","0.2","0.4","0.2159944071","0.1615549635","0.4004877553","0.2453635642","","","","","","","","","","","","","","72","H","0","img/none_selected.jpg","","160","main_expt",""
"","bandit","240","799295","0.0-202.0-0.0","45389014","wem/bandit_party_1","AEO8NL8D28NQG","either","7","300","","","","","","","0","1","0","","0.2105769377","0.6","0.8","0.2","0.4","0.2105769377","0.1854631015","0.4095849454","0.2456373749","","","","","","","","","","","","","","72","H","0","img/none_selected.jpg","","161","main_expt",""
"","bandit","241","806401","0.0-203.0-0.0","45389014","wem/bandit_party_1","AEO8NL8D28NQG","either","7","5595","","","","","","","0","0","1","0.2006925765","","0.6","0.8","0.2","0.4","","","","","0.2006925765","0.21229469","0.3978002783","0.2460125232","","","","","","","","","","72","H","0","img/none_selected.jpg","","162","main_expt",""
"","bandit","242","808174","0.0-204.0-0.0","45389014","wem/bandit_party_1","AEO8NL8D28NQG","either","7","258","","","","","","","1","0","0","0.2365124807","","0.6","0.8","0.2","0.4","","","","","0.2365124807","0.162194177","0.4180552148","0.2013568893","","","","","","","","","","72","H","0","img/none_selected.jpg","","163","main_expt",""
"","bandit","243","812519","0.0-205.0-0.0","45389014","wem/bandit_party_1","AEO8NL8D28NQG","either","7","2834","","","","","","","0","0","1","0.2157370886","","0.6","0.8","0.2","0.4","","","","","0.2157370886","0.1535707797","0.4407560021","0.1933595846","","","","","","","","","","72","H","0","img/none_selected.jpg","","164","main_expt",""
"","bandit","244","814355","0.0-206.0-0.0","45389014","wem/bandit_party_1","AEO8NL8D28NQG","either","7","320","","","","","","","0","1","0","","0.2166787898","0.6","0.8","0.2","0.4","0.2166787898","0.2315934193","0.4582960521","0.167552211","","","","","","","","","","","","","","72","H","0","img/none_selected.jpg","","165","main_expt",""
"","bandit","245","817635","0.0-207.0-0.0","45389014","wem/bandit_party_1","AEO8NL8D28NQG","either","7","1765","","","","","","","0","0","1","0.1846262972","","0.6","0.8","0.2","0.4","","","","","0.1846262972","0.2579087381","0.4337500892","0.1311237951","","","","","","","","","","72","H","0","img/none_selected.jpg","","166","main_expt",""
"","bandit","246","819419","0.0-208.0-0.0","45389014","wem/bandit_party_1","AEO8NL8D28NQG","either","7","270","","","","","","","0","0","1","0.1888750078","","0.6","0.8","0.2","0.4","","","","","0.1888750078","0.2496457694","0.4537582576","0.1714029316","","","","","","","","","","72","H","0","img/none_selected.jpg","","167","main_expt",""
"","bandit","247","821157","0.0-209.0-0.0","45389014","wem/bandit_party_1","AEO8NL8D28NQG","either","7","228","","","","","","","0","1","0","","0.2315683769","0.6","0.8","0.2","0.4","0.2315683769","0.234558796","0.4473485534","0.1494402723","","","","","","","","","","","","","","72","H","0","img/none_selected.jpg","","168","main_expt",""
"","bandit","248","825059","0.0-210.0-0.0","45389014","wem/bandit_party_1","AEO8NL8D28NQG","either","7","2388","","","","","","","0","0","1","0.2018123945","","0.6","0.8","0.2","0.4","","","","","0.2018123945","0.2458600006","0.4471591033","0.1819888556","","","","","","","","","","72","H","0","img/none_selected.jpg","","169","main_expt",""
"","bandit","249","826947","0.0-211.0-0.0","45389014","wem/bandit_party_1","AEO8NL8D28NQG","either","7","371","","","","","","","0","0","1","0.139238222","","0.6","0.8","0.2","0.4","","","","","0.139238222","0.2214583157","0.4581839475","0.2329206984","","","","","","","","","","72","H","0","img/none_selected.jpg","","170","main_expt",""
"","bandit","250","828749","0.0-212.0-0.0","45389014","wem/bandit_party_1","AEO8NL8D28NQG","either","7","288","","","","","","","0","1","0","","0.1466511374","0.6","0.8","0.2","0.4","0.1466511374","0.296208115","0.4674995421","0.2000607923","","","","","","","","","","","","","","72","H","0","img/none_selected.jpg","","171","main_expt",""
"","bandit","251","833520","0.0-213.0-0.0","45389014","wem/bandit_party_1","AEO8NL8D28NQG","either","7","3256","","","","","","","1","0","0","0.1348290388","","0.6","0.8","0.2","0.4","","","","","0.1348290388","0.3062379281","0.4455620345","0.2342957318","","","","","","","","","","72","H","0","img/none_selected.jpg","","172","main_expt",""
"","bandit","252","838312","0.0-214.0-0.0","45389014","wem/bandit_party_1","AEO8NL8D28NQG","either","7","3281","","","","","","","0","0","1","0.1521691919","","0.6","0.8","0.2","0.4","","","","","0.1521691919","0.2498067723","0.4471610379","0.2189308077","","","","","","","","","","72","H","0","img/none_selected.jpg","","173","main_expt",""
"","bandit","253","840269","0.0-215.0-0.0","45389014","wem/bandit_party_1","AEO8NL8D28NQG","either","7","446","","","","","","","0","0","1","","0.2191935525","0.6","0.8","0.2","0.4","0.2191935525","0.1803522277","0.4496576915","0.2373932689","","","","","","","","","","","","","","72","H","0","img/none_selected.jpg","","174","main_expt",""
"","bandit","254","842038","0.0-216.0-0.0","45389014","wem/bandit_party_1","AEO8NL8D28NQG","either","7","256","","","","","","","0","1","0","","0.219961305","0.6","0.8","0.2","0.4","0.219961305","0.2014319342","0.4715297358","0.2160264752","","","","","","","","","","","","","","72","H","0","img/none_selected.jpg","","175","main_expt",""
"","bandit","255","845906","0.0-217.0-0.0","45389014","wem/bandit_party_1","AEO8NL8D28NQG","either","7","2356","","","","","","","0","0","1","0.1882485239","","0.6","0.8","0.2","0.4","","","","","0.1882485239","0.2122003168","0.477956151","0.1990604306","","","","","","","","","","72","H","0","img/none_selected.jpg","","176","main_expt",""
"","bandit","256","847652","0.0-218.0-0.0","45389014","wem/bandit_party_1","AEO8NL8D28NQG","either","7","230","","","","","","","0","0","1","","0.1644902553","0.6","0.8","0.2","0.4","0.1644902553","0.2629069455","0.4563721206","0.1729978196","","","","","","","","","","","","","","72","H","0","img/none_selected.jpg","","177","main_expt",""
"","bandit","257","849424","0.0-219.0-0.0","45389014","wem/bandit_party_1","AEO8NL8D28NQG","either","7","259","","","","","","","0","0","1","","0.1713669852","0.6","0.8","0.2","0.4","0.1713669852","0.2336104206","0.4409869931","0.1633080779","","","","","","","","","","","","","","72","H","0","img/none_selected.jpg","","178","main_expt",""
"","bandit","258","851277","0.0-220.0-0.0","45389014","wem/bandit_party_1","AEO8NL8D28NQG","either","7","335","","","","","","","0","0","1","0.2263400462","","0.6","0.8","0.2","0.4","","","","","0.2263400462","0.1887504226","0.4243126063","0.1243251356","","","","","","","","","","72","H","0","img/none_selected.jpg","","179","main_expt",""
"","bandit","259","856437","0.0-221.0-0.0","45389014","wem/bandit_party_1","AEO8NL8D28NQG","either","7","3643","","","","","","","0","0","1","0.138376641","","0.6","0.8","0.2","0.4","","","","","0.2036870175","0.138376641","0.4312830743","0.1150149055","","","","","","","","","","74","J","1","","","180","main_expt",""
"","bandit","260","858256","0.0-222.0-0.0","45389014","wem/bandit_party_1","AEO8NL8D28NQG","either","7","305","","","","","","","0","1","0","","0.4433127893","0.6","0.8","0.2","0.4","0.1934599198","0.1883992559","0.4433127893","0.1407924877","","","","","","","","","","","","","","75","K","2","","","181","main_expt",""
"","bandit","261","863414","0.0-223.0-0.0","45389014","wem/bandit_party_1","AEO8NL8D28NQG","either","7","3648","","","","","","","0","1","0","","0.440136403","0.6","0.8","0.2","0.4","0.2424515525","0.128889003","0.440136403","0.09672650852","","","","","","","","","","","","","","75","K","2","","","182","main_expt",""
"","bandit","262","865179","0.0-224.0-0.0","45389014","wem/bandit_party_1","AEO8NL8D28NQG","either","7","251","","","","","","","0","0","1","","0.4347693449","0.6","0.8","0.2","0.4","0.1961777535","0.1748769843","0.4347693449","0.09888002855","","","","","","","","","","","","","","75","K","2","","","183","main_expt",""
"","bandit","263","869546","0.0-225.0-0.0","45389014","wem/bandit_party_1","AEO8NL8D28NQG","either","7","2852","","","","","","","0","0","1","","0.4277130926","0.6","0.8","0.2","0.4","0.1489283113","0.1945994373","0.4277130926","0.07200145298","","","","","","","","","","","","","","75","K","2","","","184","main_expt",""
"","bandit","264","871330","0.0-226.0-0.0","45389014","wem/bandit_party_1","AEO8NL8D28NQG","either","7","266","","","","","","","0","0","1","","0.3956248437","0.6","0.8","0.2","0.4","0.1499965078","0.1644748654","0.3956248437","0.09476413333","","","","","","","","","","","","","","75","K","2","","","185","main_expt",""
"","bandit","265","873039","0.0-227.0-0.0","45389014","wem/bandit_party_1","AEO8NL8D28NQG","either","7","194","","","","","","","0","0","1","","0.3748928266","0.6","0.8","0.2","0.4","0.2169832988","0.1504635592","0.3748928266","0.06556422103","","","","","","","","","","","","","","75","K","2","","","186","main_expt",""
"","bandit","266","876277","0.0-228.0-0.0","45389014","wem/bandit_party_1","AEO8NL8D28NQG","either","7","1724","","","","","","","1","0","0","0.08901149072","","0.6","0.8","0.2","0.4","","","","","0.2655186329","0.1760039214","0.3848139325","0.08901149072","","","","","","","","","","76","L","3","","","187","main_expt",""
"","bandit","267","879133","0.0-229.0-0.0","45389014","wem/bandit_party_1","AEO8NL8D28NQG","either","7","1338","","","","","","","0","0","1","","0.09471428588","0.6","0.8","0.2","0.4","0.2738785118","0.1203267588","0.3990176401","0.09471428588","","","","","","","","","","","","","","76","L","3","","","188","main_expt",""
"","bandit","268","881027","0.0-230.0-0.0","45389014","wem/bandit_party_1","AEO8NL8D28NQG","either","7","382","","","","","","","0","0","1","0.05118235823","","0.6","0.8","0.2","0.4","","","","","0.3041874674","0.1171540391","0.3581396838","0.05118235823","","","","","","","","","","76","L","3","","","189","main_expt",""
"","bandit","269","882841","0.0-231.0-0.0","45389014","wem/bandit_party_1","AEO8NL8D28NQG","either","7","299","","","","","","","0","0","1","","0.05788318751","0.6","0.8","0.2","0.4","0.3229453735","0.1535230761","0.2882972244","0.05788318751","","","","","","","","","","","","","","76","L","3","","","190","main_expt",""
"","bandit","270","884757","0.0-232.0-0.0","45389014","wem/bandit_party_1","AEO8NL8D28NQG","either","7","401","","","","","","","0","0","1","","0.08736915481","0.6","0.8","0.2","0.4","0.3818249757","0.1372750947","0.3145326233","0.08736915481","","","","","","","","","","","","","","76","L","3","","","191","main_expt",""
"","bandit","271","888304","0.0-233.0-0.0","45389014","wem/bandit_party_1","AEO8NL8D28NQG","either","7","2032","","","","","","","0","0","1","0.4157726243","","0.6","0.8","0.2","0.4","","","","","0.4157726243","0.1047771501","0.3270603702","0.08251019118","","","","","","","","","","72","H","0","img/none_selected.jpg","","192","main_expt",""
"","bandit","272","890193","0.0-234.0-0.0","45389014","wem/bandit_party_1","AEO8NL8D28NQG","either","7","376","","","","","","","0","1","0","","0.4611608212","0.6","0.8","0.2","0.4","0.4611608212","0.1100845432","0.3604030797","0.06897628064","","","","","","","","","","","","","","72","H","0","img/none_selected.jpg","","193","main_expt",""
"","bandit","273","894194","0.0-235.0-0.0","45389014","wem/bandit_party_1","AEO8NL8D28NQG","either","7","2486","","","","","","","0","0","1","","0.4508818777","0.6","0.8","0.2","0.4","0.4508818777","0.1468163818","0.357423186","0.06801266305","","","","","","","","","","","","","","72","H","0","img/none_selected.jpg","","194","main_expt",""
"","bandit","274","896016","0.0-236.0-0.0","45389014","wem/bandit_party_1","AEO8NL8D28NQG","either","7","307","","","","","","","0","0","1","0.4278921451","","0.6","0.8","0.2","0.4","","","","","0.4278921451","0.1495594621","0.3697779856","0.09923709358","","","","","","","","","","72","H","0","img/none_selected.jpg","","195","main_expt",""
"","bandit","275","897696","0.0-237.0-0.0","45389014","wem/bandit_party_1","AEO8NL8D28NQG","either","7","169","","","","","","","0","0","1","0.4256293003","","0.6","0.8","0.2","0.4","","","","","0.4256293003","0.2263220537","0.3617177512","0.1103063831","","","","","","","","","","72","H","0","img/none_selected.jpg","","196","main_expt",""
"","bandit","276","899455","0.0-238.0-0.0","45389014","wem/bandit_party_1","AEO8NL8D28NQG","either","7","242","","","","","","","0","1","0","","0.4476975038","0.6","0.8","0.2","0.4","0.4476975038","0.2204718804","0.3775990084","0.07377144043","","","","","","","","","","","","","","72","H","0","img/none_selected.jpg","","197","main_expt",""
"","bandit","277","901157","0.0-239.0-0.0","45389014","wem/bandit_party_1","AEO8NL8D28NQG","either","7","185","","","","","","","1","0","0","0.4434357272","","0.6","0.8","0.2","0.4","","","","","0.4434357272","0.2401118457","0.4144042571","0.08863448313","","","","","","","","","","72","H","0","img/none_selected.jpg","","198","main_expt",""
"","bandit","278","902983","0.0-240.0-0.0","45389014","wem/bandit_party_1","AEO8NL8D28NQG","either","7","314","","","","","","","0","0","1","0.4245114622","","0.6","0.8","0.2","0.4","","","","","0.4245114622","0.2673724497","0.4081775392","0.1082179128","","","","","","","","","","72","H","0","img/none_selected.jpg","","199","main_expt",""
"","bandit","279","904914","0.0-241.0-0.0","45389014","wem/bandit_party_1","AEO8NL8D28NQG","either","7","415","","","","","","","0","0","1","0.4087100315","","0.6","0.8","0.2","0.4","","","","","0.4087100315","0.3125307902","0.4166156547","0.09350688576","","","","","","","","","","72","H","0","img/none_selected.jpg","","200","main_expt",""
"","bandit","280","906684","0.0-242.0-0.0","45389014","wem/bandit_party_1","AEO8NL8D28NQG","either","7","254","","","","","","","1","0","0","0.4361521275","","0.6","0.8","0.2","0.4","","","","","0.4361521275","0.2914574258","0.4306537176","0.1036625099","","","","","","","","","","72","H","0","img/none_selected.jpg","","201","main_expt",""
"","bandit","281","908483","0.0-243.0-0.0","45389014","wem/bandit_party_1","AEO8NL8D28NQG","either","7","286","","","","","","","0","0","1","0.3332596158","","0.6","0.8","0.2","0.4","","","","","0.3332596158","0.2550600684","0.449382563","0.1216733889","","","","","","","","","","72","H","0","img/none_selected.jpg","","202","main_expt",""
"","bandit","282","910397","0.0-244.0-0.0","45389014","wem/bandit_party_1","AEO8NL8D28NQG","either","7","398","","","","","","","0","0","1","","0.3581848779","0.6","0.8","0.2","0.4","0.3581848779","0.2769745997","0.4506576586","0.120655788","","","","","","","","","","","","","","72","H","0","img/none_selected.jpg","","203","main_expt",""
"","bandit","283","912198","0.0-245.0-0.0","45389014","wem/bandit_party_1","AEO8NL8D28NQG","either","7","284","","","","","","","0","1","0","","0.3597133043","0.6","0.8","0.2","0.4","0.3597133043","0.2752990059","0.454839243","0.1082970726","","","","","","","","","","","","","","72","H","0","img/none_selected.jpg","","204","main_expt",""
"","bandit","284","914018","0.0-246.0-0.0","45389014","wem/bandit_party_1","AEO8NL8D28NQG","either","7","301","","","","","","","0","0","1","0.3630183988","","0.6","0.8","0.2","0.4","","","","","0.3630183988","0.2901512169","0.4512889682","0.09143681274","","","","","","","","","","72","H","0","img/none_selected.jpg","","205","main_expt",""
"","bandit","285","915925","0.0-247.0-0.0","45389014","wem/bandit_party_1","AEO8NL8D28NQG","either","7","391","","","","","","","0","0","1","0.3737494834","","0.6","0.8","0.2","0.4","","","","","0.3737494834","0.2823763913","0.4591490044","0.08377413986","","","","","","","","","","72","H","0","img/none_selected.jpg","","206","main_expt",""
"","bandit","286","917695","0.0-248.0-0.0","45389014","wem/bandit_party_1","AEO8NL8D28NQG","either","7","258","","","","","","","0","0","1","","0.2708062506","0.6","0.8","0.2","0.4","0.3668784438","0.2708062506","0.4650593633","0.1585073664","","","","","","","","","","","","","","74","J","1","","","207","main_expt",""
"","bandit","287","919851","0.0-249.0-0.0","45389014","wem/bandit_party_1","AEO8NL8D28NQG","either","7","643","","","","","","","0","0","1","","0.2641553663","0.6","0.8","0.2","0.4","0.4045351895","0.2641553663","0.4641513068","0.162299901","","","","","","","","","","","","","","74","J","1","","","208","main_expt",""
"","bandit","288","922000","0.0-250.0-0.0","45389014","wem/bandit_party_1","AEO8NL8D28NQG","either","7","633","","","","","","","0","0","1","0.2704675845","","0.6","0.8","0.2","0.4","","","","","0.4402386934","0.2704675845","0.4567807332","0.1542266077","","","","","","","","","","74","J","1","","","209","main_expt",""
"","bandit","289","923875","0.0-251.0-0.0","45389014","wem/bandit_party_1","AEO8NL8D28NQG","either","7","357","","","","","","","1","0","0","0.3420868926","","0.6","0.8","0.2","0.4","","","","","0.4483623408","0.3420868926","0.428253188","0.1890415559","","","","","","","","","","74","J","1","","","210","main_expt",""
"","bandit","290","925774","0.0-252.0-0.0","45389014","wem/bandit_party_1","AEO8NL8D28NQG","either","7","385","","","","","","","0","0","1","0.3069688952","","0.6","0.8","0.2","0.4","","","","","0.4471415093","0.3069688952","0.410271385","0.1818133019","","","","","","","","","","74","J","1","","","211","main_expt",""
"","bandit","291","927569","0.0-253.0-0.0","45389014","wem/bandit_party_1","AEO8NL8D28NQG","either","7","282","","","","","","","0","0","1","0.3005379093","","0.6","0.8","0.2","0.4","","","","","0.4374655127","0.3005379093","0.4065587724","0.1782747956","","","","","","","","","","74","J","1","","","212","main_expt",""
"","bandit","292","929521","0.0-254.0-0.0","45389014","wem/bandit_party_1","AEO8NL8D28NQG","either","7","436","","","","","","","0","0","1","","0.213882915","0.6","0.8","0.2","0.4","0.4381457257","0.213882915","0.4007116542","0.1935195711","","","","","","","","","","","","","","74","J","1","","","213","main_expt",""
"","bandit","293","931324","0.0-255.0-0.0","45389014","wem/bandit_party_1","AEO8NL8D28NQG","either","7","288","","","","","","","0","0","1","0.2138557204","","0.6","0.8","0.2","0.4","","","","","0.4643769008","0.2138557204","0.4246209323","0.2421176173","","","","","","","","","","74","J","1","","","214","main_expt",""
"","bandit","294","932945","0.0-256.0-0.0","45389014","wem/bandit_party_1","AEO8NL8D28NQG","either","7","108","","","","","","","0","1","0","","0.3993057066","0.6","0.8","0.2","0.4","0.4328812357","0.2142566612","0.3993057066","0.2629876012","","","","","","","","","","","","","","75","K","2","","","215","main_expt",""
"","bandit","295","935443","0.0-257.0-0.0","45389014","wem/bandit_party_1","AEO8NL8D28NQG","either","7","981","","","","","","","0","0","1","","0.3987772474","0.6","0.8","0.2","0.4","0.4064507999","0.1900351118","0.3987772474","0.2977714141","","","","","","","","","","","","","","75","K","2","","","216","main_expt",""
"","bandit","296","937276","0.0-258.0-0.0","45389014","wem/bandit_party_1","AEO8NL8D28NQG","either","7","318","","","","","","","0","0","1","","0.4101433534","0.6","0.8","0.2","0.4","0.4197961641","0.2185169477","0.4101433534","0.3017601552","","","","","","","","","","","","","","75","K","2","","","217","main_expt",""
"","bandit","297","938928","0.0-259.0-0.0","45389014","wem/bandit_party_1","AEO8NL8D28NQG","either","7","137","","","","","","","0","0","1","","0.4448029092","0.6","0.8","0.2","0.4","0.4167397569","0.2240895604","0.4448029092","0.2888566207","","","","","","","","","","","","","","75","K","2","","","218","main_expt",""
"","bandit","298","941495","0.0-260.0-0.0","45389014","wem/bandit_party_1","AEO8NL8D28NQG","either","7","1056","","","","","","","0","0","1","0.4454766299","","0.6","0.8","0.2","0.4","","","","","0.4250944588","0.1990808675","0.4454766299","0.2844008008","","","","","","","","","","75","K","2","","","219","main_expt",""
"","bandit","299","943322","0.0-261.0-0.0","45389014","wem/bandit_party_1","AEO8NL8D28NQG","either","7","310","","","","","","","0","1","0","","0.4610997771","0.6","0.8","0.2","0.4","0.4173336587","0.266602996","0.4610997771","0.2225062479","","","","","","","","","","","","","","75","K","2","","","220","main_expt",""
"","bandit","300","945311","0.0-262.0-0.0","45389014","wem/bandit_party_1","AEO8NL8D28NQG","either","7","473","","","","","","","0","1","0","","0.4642289789","0.6","0.8","0.2","0.4","0.3944711005","0.2443661227","0.4642289789","0.2409900116","","","","","","","","","","","","","","75","K","2","","","221","main_expt",""
"","bandit","301","947069","0.0-263.0-0.0","45389014","wem/bandit_party_1","AEO8NL8D28NQG","either","7","244","","","","","","","0","0","1","","0.4641270597","0.6","0.8","0.2","0.4","0.3619306912","0.2205922116","0.4641270597","0.1989678636","","","","","","","","","","","","","","75","K","2","","","222","main_expt",""
"","bandit","302","948874","0.0-264.0-0.0","45389014","wem/bandit_party_1","AEO8NL8D28NQG","either","7","295","","","","","","","0","0","1","","0.4697433819","0.6","0.8","0.2","0.4","0.4117842179","0.1861223506","0.4697433819","0.1902867071","","","","","","","","","","","","","","75","K","2","","","223","main_expt",""
"","bandit","303","950686","0.0-265.0-0.0","45389014","wem/bandit_party_1","AEO8NL8D28NQG","either","7","296","","","","","","","0","1","0","","0.460898083","0.6","0.8","0.2","0.4","0.3965092367","0.1668884863","0.460898083","0.2076415522","","","","","","","","","","","","","","75","K","2","","","224","main_expt",""
"","bandit","304","952503","0.0-266.0-0.0","45389014","wem/bandit_party_1","AEO8NL8D28NQG","either","7","300","","","","","","","0","1","0","","0.4394890665","0.6","0.8","0.2","0.4","0.4084477862","0.1481472712","0.4394890665","0.2393469174","","","","","","","","","","","","","","75","K","2","","","225","main_expt",""
"","bandit","305","954031","0.0-267.0-0.0","45389014","wem/bandit_party_1","AEO8NL8D28NQG","either","7","12","","","","","","","0","0","1","","0.4520955237","0.6","0.8","0.2","0.4","0.4104601526","0.1140846591","0.4520955237","0.2425440376","","","","","","","","","","","","","","75","K","2","","","226","main_expt",""
"","bandit","306","955795","0.0-268.0-0.0","45389014","wem/bandit_party_1","AEO8NL8D28NQG","either","7","247","","","","","","","0","1","0","","0.4324220164","0.6","0.8","0.2","0.4","0.3899733519","0.1074218354","0.4324220164","0.2365603363","","","","","","","","","","","","","","75","K","2","","","227","main_expt",""
"","bandit","307","957482","0.0-269.0-0.0","45389014","wem/bandit_party_1","AEO8NL8D28NQG","either","7","178","","","","","","","0","0","1","","0.4220482421","0.6","0.8","0.2","0.4","0.3796730737","0.08065165665","0.4220482421","0.2127958296","","","","","","","","","","","","","","75","K","2","","","228","main_expt",""
"","bandit","308","959642","0.0-270.0-0.0","45389014","wem/bandit_party_1","AEO8NL8D28NQG","either","7","650","","","","","","","0","1","0","","0.3885749154","0.6","0.8","0.2","0.4","0.4046866514","0.07774059362","0.3885749154","0.2207861463","","","","","","","","","","","","","","75","K","2","","","229","main_expt",""
"","bandit","309","962804","0.0-271.0-0.0","45389014","wem/bandit_party_1","AEO8NL8D28NQG","either","7","1645","","","","","","","0","1","0","","0.4023755806","0.6","0.8","0.2","0.4","0.3988793555","0.1109483114","0.4023755806","0.2589226453","","","","","","","","","","","","","","75","K","2","","","230","main_expt",""
"","bandit","310","965684","0.0-272.0-0.0","45389014","wem/bandit_party_1","AEO8NL8D28NQG","either","7","1363","","","","","","","0","0","1","","0.3768725222","0.6","0.8","0.2","0.4","0.3981898202","0.05902300203","0.3768725222","0.2956158432","","","","","","","","","","","","","","75","K","2","","","231","main_expt",""
"","bandit","311","968554","0.0-273.0-0.0","45389014","wem/bandit_party_1","AEO8NL8D28NQG","either","7","1358","","","","","","","0","1","0","","0.3619917427","0.6","0.8","0.2","0.4","0.4411941832","0.06675855664","0.3619917427","0.3202484073","","","","","","","","","","","","","","75","K","2","","","232","main_expt",""
"","bandit","312","970350","0.0-274.0-0.0","45389014","wem/bandit_party_1","AEO8NL8D28NQG","either","7","279","","","","","","","0","0","1","","0.3833578816","0.6","0.8","0.2","0.4","0.42967461","0.06703699679","0.3833578816","0.2933644042","","","","","","","","","","","","","","75","K","2","","","233","main_expt",""
"","bandit","313","972580","0.0-275.0-0.0","45389014","wem/bandit_party_1","AEO8NL8D28NQG","either","7","716","","","","","","","0","1","0","","0.3552131768","0.6","0.8","0.2","0.4","0.4242798354","0.05331023031","0.3552131768","0.3106154811","","","","","","","","","","","","","","75","K","2","","","234","main_expt",""
"","bandit","314","974312","0.0-276.0-0.0","45389014","wem/bandit_party_1","AEO8NL8D28NQG","either","7","215","","","","","","","0","0","1","","0.3135084543","0.6","0.8","0.2","0.4","0.4617388459","0.05187545802","0.3135084543","0.3158990995","","","","","","","","","","","","","","75","K","2","","","235","main_expt",""
"","bandit","315","976358","0.0-277.0-0.0","45389014","wem/bandit_party_1","AEO8NL8D28NQG","either","7","531","","","","","","","0","1","0","","0.244945467","0.6","0.8","0.2","0.4","0.4619510484","0.06939909985","0.244945467","0.3036927748","","","","","","","","","","","","","","75","K","2","","","236","main_expt",""
