"consent","trial_type","trial_index","time_elapsed","internal_node_id","subjID","study","MID","cond","drift","rt","responses","button_pressed","key_press","like","value","connected","gems","bombs","no_reward","GemPrChosen","BombPrChosen","GainOverPainPr_0","GainOverPainPr_1","GainOverPainPr_2","GainOverPainPr_3","LosePr_0","LosePr_1","LosePr_2","LosePr_3","WinPr_0","WinPr_1","WinPr_2","WinPr_3","Q0","Q1","Q2","gender","age","ethnicity","label","expt_phase","target","respCharCode","respKey","respChoiceNum","respChoice","practice","trial_counter","trial_label","Q0_index"
"GDM/GDM_behavioral_consent_30min_online.html","consent","0","23050","0.0-0.0","46006718","wem/bandit_party_1","A326O3VWP8TO8N","either","4","","","","","","","","","","","","","","","","","","","","","","","","","","","","","","","","","","","","","","","","",""
"","survey-text","1","31660","0.0-1.0","46006718","wem/bandit_party_1","A326O3VWP8TO8N","either","4","7600","{""Q0"":""A326O3VWP8TO8N""}","","","","","","","","","","","","","","","","","","","","","","","","","","","","","","","","","","","","","","",""
"","button-response","2","45144","0.0-2.0","46006718","wem/bandit_party_1","A326O3VWP8TO8N","either","4","12481","","2","","","","","","","","","","","","","","","","","","","","","","","","","","","","","","","","","","","","","",""
"","text-replacement","3","199851","0.0-3.0","46006718","wem/bandit_party_1","A326O3VWP8TO8N","either","4","153696","","","32","","","","","","","","","","","","","","","","","","","","","","","","","","","","","","","","","","","","",""
"","text-replacement","4","211289","0.0-4.0","46006718","wem/bandit_party_1","A326O3VWP8TO8N","either","4","11438","","","32","","","","","","","","","","","","","","","","","","","","","","","","","","","","","","","","","","","","",""
"","text-replacement","5","218321","0.0-5.0-0.0","46006718","wem/bandit_party_1","A326O3VWP8TO8N","either","4","7032","","","32","","","","","","","","","","","","","","","","","","","","","","","","","","","","","","","","","","","","",""
"","identification","6","223264","0.0-6.0-0.0","46006718","wem/bandit_party_1","A326O3VWP8TO8N","either","4","4919","","","","2","1","1","","","","","","","","","","","","","","","","","","","","","","","","pre","identification_pre","the Republican party","","","","","","","",""
"","identification","7","230113","0.0-6.0-1.0","46006718","wem/bandit_party_1","A326O3VWP8TO8N","either","4","5828","","","","3","3","2","","","","","","","","","","","","","","","","","","","","","","","","pre","identification_pre","the Democratic Party","","","","","","","",""
"","text-replacement","8","241813","0.0-7.0","46006718","wem/bandit_party_1","A326O3VWP8TO8N","either","4","10691","","","32","","","","","","","","","","","","","","","","","","","","","","","","","","","","","","","","","","","","",""
"","text-replacement","9","249657","0.0-8.0","46006718","wem/bandit_party_1","A326O3VWP8TO8N","either","4","7844","","","32","","","","","","","","","","","","","","","","","","","","","","","","","","","","","","","","","","","","",""
"","text-replacement","10","256868","0.0-9.0","46006718","wem/bandit_party_1","A326O3VWP8TO8N","either","4","7211","","","32","","","","","","","","","","","","","","","","","","","","","","","","","","","","","","","","","","","","",""
"","text-replacement","11","259997","0.0-10.0","46006718","wem/bandit_party_1","A326O3VWP8TO8N","either","4","3128","","","32","","","","","","","","","","","","","","","","","","","","","","","","","","","","","","","","","","","","",""
"","text-replacement","12","263002","0.0-11.0","46006718","wem/bandit_party_1","A326O3VWP8TO8N","either","4","3005","","","32","","","","","","","","","","","","","","","","","","","","","","","","","","","","","","","","","","","","",""
"","bandit","13","266805","0.0-12.0-0.0","46006718","wem/bandit_party_1","A326O3VWP8TO8N","either","4","2293","","","","","","","0","0","1","0","0","","","","","0","","","","0","","","","","","","","","","","","","74","J","0","img/none_selected_demo.jpg","true","0","",""
"","bandit","14","269911","0.0-13.0-0.0","46006718","wem/bandit_party_1","A326O3VWP8TO8N","either","4","1599","","","","","","","0","0","1","0","0","","","","","0","","","","0","","","","","","","","","","","","","75","K","0","img/none_selected_demo.jpg","true","0","",""
"","text-replacement","15","278852","0.0-14.0","46006718","wem/bandit_party_1","A326O3VWP8TO8N","either","4","8941","","","32","","","","","","","","","","","","","","","","","","","","","","","","","","","","","","","","","","","","",""
"","text-replacement","16","282682","0.0-15.0","46006718","wem/bandit_party_1","A326O3VWP8TO8N","either","4","3830","","","32","","","","","","","","","","","","","","","","","","","","","","","","","","","","","","","","","","","","",""
"","text-replacement","17","285948","0.0-16.0","46006718","wem/bandit_party_1","A326O3VWP8TO8N","either","4","3266","","","32","","","","","","","","","","","","","","","","","","","","","","","","","","","","","","","","","","","","",""
"","text-replacement","18","288837","0.0-17.0","46006718","wem/bandit_party_1","A326O3VWP8TO8N","either","4","2884","","","32","","","","","","","","","","","","","","","","","","","","","","","","","","","","","","","","","","","","",""
"","bandit","19","292242","0.0-18.0-0.0","46006718","wem/bandit_party_1","A326O3VWP8TO8N","either","4","1894","","","","","","","0","0","1","","0.8","0.5","0.5","","","0.8","0.2","","","","","","","","","","","","","","","","74","J","0","img/none_selected_demo.jpg","true","0","80_20_practice",""
"","bandit","20","294365","0.0-18.0-1.0","46006718","wem/bandit_party_1","A326O3VWP8TO8N","either","4","616","","","","","","","1","0","0","0.8","","0.5","0.5","","","","","","","0.8","0.2","","","","","","","","","","","","74","J","0","img/none_selected_demo.jpg","true","0","80_20_practice",""
"","bandit","21","296769","0.0-18.0-2.0","46006718","wem/bandit_party_1","A326O3VWP8TO8N","either","4","894","","","","","","","1","0","0","0.8","","0.5","0.5","","","","","","","0.8","0.2","","","","","","","","","","","","74","J","0","img/none_selected_demo.jpg","true","0","80_20_practice",""
"","bandit","22","298622","0.0-18.0-3.0","46006718","wem/bandit_party_1","A326O3VWP8TO8N","either","4","345","","","","","","","0","0","1","0.2","","0.5","0.5","","","","","","","0.8","0.2","","","","","","","","","","","","75","K","1","","true","0","80_20_practice",""
"","bandit","23","300475","0.0-18.0-4.0","46006718","wem/bandit_party_1","A326O3VWP8TO8N","either","4","347","","","","","","","0","0","1","","0.2","0.5","0.5","","","0.8","0.2","","","","","","","","","","","","","","","","75","K","1","","true","0","80_20_practice",""
"","bandit","24","302279","0.0-18.0-5.0","46006718","wem/bandit_party_1","A326O3VWP8TO8N","either","4","294","","","","","","","1","0","0","0.2","","0.5","0.5","","","","","","","0.8","0.2","","","","","","","","","","","","75","K","1","","true","0","80_20_practice",""
"","bandit","25","304158","0.0-18.0-6.0","46006718","wem/bandit_party_1","A326O3VWP8TO8N","either","4","372","","","","","","","0","0","1","0.2","","0.5","0.5","","","","","","","0.8","0.2","","","","","","","","","","","","75","K","1","","true","0","80_20_practice",""
"","bandit","26","305935","0.0-18.0-7.0","46006718","wem/bandit_party_1","A326O3VWP8TO8N","either","4","270","","","","","","","0","0","1","","0.8","0.5","0.5","","","0.8","0.2","","","","","","","","","","","","","","","","74","J","0","img/none_selected_demo.jpg","true","0","80_20_practice",""
"","bandit","27","307748","0.0-18.0-8.0","46006718","wem/bandit_party_1","A326O3VWP8TO8N","either","4","307","","","","","","","0","0","1","","0.8","0.5","0.5","","","0.8","0.2","","","","","","","","","","","","","","","","74","J","0","img/none_selected_demo.jpg","true","0","80_20_practice",""
"","bandit","28","309590","0.0-18.0-9.0","46006718","wem/bandit_party_1","A326O3VWP8TO8N","either","4","333","","","","","","","1","0","0","0.8","","0.5","0.5","","","","","","","0.8","0.2","","","","","","","","","","","","74","J","0","img/none_selected_demo.jpg","true","0","80_20_practice",""
"","bandit","29","311162","0.0-18.0-10.0","46006718","wem/bandit_party_1","A326O3VWP8TO8N","either","4","61","","","","","","","0","1","0","","0.8","0.5","0.5","","","0.8","0.2","","","","","","","","","","","","","","","","74","J","0","img/none_selected_demo.jpg","true","0","80_20_practice",""
"","bandit","30","312997","0.0-18.0-11.0","46006718","wem/bandit_party_1","A326O3VWP8TO8N","either","4","331","","","","","","","1","0","0","0.8","","0.5","0.5","","","","","","","0.8","0.2","","","","","","","","","","","","74","J","0","img/none_selected_demo.jpg","true","0","80_20_practice",""
"","bandit","31","314782","0.0-18.0-12.0","46006718","wem/bandit_party_1","A326O3VWP8TO8N","either","4","276","","","","","","","0","0","1","0.8","","0.5","0.5","","","","","","","0.8","0.2","","","","","","","","","","","","74","J","0","img/none_selected_demo.jpg","true","0","80_20_practice",""
"","bandit","32","316843","0.0-18.0-13.0","46006718","wem/bandit_party_1","A326O3VWP8TO8N","either","4","543","","","","","","","0","1","0","","0.8","0.5","0.5","","","0.8","0.2","","","","","","","","","","","","","","","","74","J","0","img/none_selected_demo.jpg","true","0","80_20_practice",""
"","bandit","33","318805","0.0-18.0-14.0","46006718","wem/bandit_party_1","A326O3VWP8TO8N","either","4","454","","","","","","","0","0","1","","0.8","0.5","0.5","","","0.8","0.2","","","","","","","","","","","","","","","","74","J","0","img/none_selected_demo.jpg","true","0","80_20_practice",""
"","bandit","34","320526","0.0-18.0-15.0","46006718","wem/bandit_party_1","A326O3VWP8TO8N","either","4","215","","","","","","","0","1","0","","0.8","0.5","0.5","","","0.8","0.2","","","","","","","","","","","","","","","","74","J","0","img/none_selected_demo.jpg","true","0","80_20_practice",""
"","bandit","35","322335","0.0-18.0-16.0","46006718","wem/bandit_party_1","A326O3VWP8TO8N","either","4","302","","","","","","","0","0","1","0.8","","0.5","0.5","","","","","","","0.8","0.2","","","","","","","","","","","","74","J","0","img/none_selected_demo.jpg","true","0","80_20_practice",""
"","bandit","36","324076","0.0-18.0-17.0","46006718","wem/bandit_party_1","A326O3VWP8TO8N","either","4","237","","","","","","","0","1","0","","0.8","0.5","0.5","","","0.8","0.2","","","","","","","","","","","","","","","","74","J","0","img/none_selected_demo.jpg","true","0","80_20_practice",""
"","bandit","37","325710","0.0-18.0-18.0","46006718","wem/bandit_party_1","A326O3VWP8TO8N","either","4","125","","","","","","","1","0","0","0.8","","0.5","0.5","","","","","","","0.8","0.2","","","","","","","","","","","","74","J","0","img/none_selected_demo.jpg","true","0","80_20_practice",""
"","bandit","38","327303","0.0-18.0-19.0","46006718","wem/bandit_party_1","A326O3VWP8TO8N","either","4","83","","","","","","","1","0","0","0.8","","0.5","0.5","","","","","","","0.8","0.2","","","","","","","","","","","","74","J","0","img/none_selected_demo.jpg","true","0","80_20_practice",""
"","text-replacement","39","334449","0.0-19.0","46006718","wem/bandit_party_1","A326O3VWP8TO8N","either","4","7146","","","32","","","","","","","","","","","","","","","","","","","","","","","","","","","","","","","","","","","","",""
"","bandit","40","337889","0.0-20.0-0.0","46006718","wem/bandit_party_1","A326O3VWP8TO8N","either","4","1926","","","","","","","1","0","0","1","0","","","","","0","1","","","1","0","","","","","","","","","","","","74","J","0","img/none_selected_demo.jpg","true","0","",""
"","text-replacement","41","346332","0.0-21.0","46006718","wem/bandit_party_1","A326O3VWP8TO8N","either","4","8443","","","74","","","","","","","","","","","","","","","","","","","","","","","","","","","","","","","","","","","","",""
"","text-replacement","42","349155","0.0-22.0","46006718","wem/bandit_party_1","A326O3VWP8TO8N","either","4","2823","","","32","","","","","","","","","","","","","","","","","","","","","","","","","","","","","","","","","","","","",""
"","text-replacement","43","353393","0.0-23.0","46006718","wem/bandit_party_1","A326O3VWP8TO8N","either","4","4238","","","32","","","","","","","","","","","","","","","","","","","","","","","","","","","","","","","","","","","","",""
"","text-replacement","44","357875","0.0-24.0","46006718","wem/bandit_party_1","A326O3VWP8TO8N","either","4","4477","","","32","","","","","","","","","","","","","","","","","","","","","","","","","","","","","","","","","","","","",""
"","text-replacement","45","363466","0.0-25.0","46006718","wem/bandit_party_1","A326O3VWP8TO8N","either","4","5586","","","32","","","","","","","","","","","","","","","","","","","","","","","","","","","","","","","","","","","","",""
"","text-replacement","46","365217","0.0-26.0","46006718","wem/bandit_party_1","A326O3VWP8TO8N","either","4","1746","","","32","","","","","","","","","","","","","","","","","","","","","","","","","","","","","","","","","","","","",""
"","text-replacement","47","369069","0.0-27.0","46006718","wem/bandit_party_1","A326O3VWP8TO8N","either","4","3847","","","32","","","","","","","","","","","","","","","","","","","","","","","","","","","","","","","","","","","","",""
"","text-replacement","48","372052","0.0-28.0","46006718","wem/bandit_party_1","A326O3VWP8TO8N","either","4","2983","","","32","","","","","","","","","","","","","","","","","","","","","","","","","","","","","","","","","","","","",""
"","text-replacement","49","375123","0.0-29.0","46006718","wem/bandit_party_1","A326O3VWP8TO8N","either","4","3066","","","32","","","","","","","","","","","","","","","","","","","","","","","","","","","","","","","","","","","","",""
"","text-replacement","50","377018","0.0-30.0","46006718","wem/bandit_party_1","A326O3VWP8TO8N","either","4","1895","","","32","","","","","","","","","","","","","","","","","","","","","","","","","","","","","","","","","","","","",""
"","text-replacement","51","381622","0.0-31.0","46006718","wem/bandit_party_1","A326O3VWP8TO8N","either","4","4599","","","32","","","","","","","","","","","","","","","","","","","","","","","","","","","","","","","","","","","","",""
"","bandit","52","384007","0.0-32.0-0.0","46006718","wem/bandit_party_1","A326O3VWP8TO8N","either","4","875","","","","","","","1","0","0","0.8","","0.5","0.5","0.5","0.5","","","","","0.8","0.2","0.6","0.2","","","","","","","","","","72","H","0","img/none_selected.jpg","true","0","full_practice",""
"","bandit","53","386032","0.0-32.0-1.0","46006718","wem/bandit_party_1","A326O3VWP8TO8N","either","4","517","","","","","","","0","1","0","","0.8","0.5","0.5","0.5","0.5","0.8","0.2","0.6","0.2","","","","","","","","","","","","","","72","H","0","img/none_selected.jpg","true","0","full_practice",""
"","bandit","54","387839","0.0-32.0-2.0","46006718","wem/bandit_party_1","A326O3VWP8TO8N","either","4","298","","","","","","","1","0","0","0.8","","0.5","0.5","0.5","0.5","","","","","0.8","0.2","0.6","0.2","","","","","","","","","","72","H","0","img/none_selected.jpg","true","0","full_practice",""
"","bandit","55","389714","0.0-32.0-3.0","46006718","wem/bandit_party_1","A326O3VWP8TO8N","either","4","364","","","","","","","0","1","0","","0.8","0.5","0.5","0.5","0.5","0.8","0.2","0.6","0.2","","","","","","","","","","","","","","72","H","0","img/none_selected.jpg","true","0","full_practice",""
"","bandit","56","391647","0.0-32.0-4.0","46006718","wem/bandit_party_1","A326O3VWP8TO8N","either","4","425","","","","","","","0","0","1","0.8","","0.5","0.5","0.5","0.5","","","","","0.8","0.2","0.6","0.2","","","","","","","","","","72","H","0","img/none_selected.jpg","true","0","full_practice",""
"","bandit","57","393656","0.0-32.0-5.0","46006718","wem/bandit_party_1","A326O3VWP8TO8N","either","4","498","","","","","","","1","0","0","0.2","","0.5","0.5","0.5","0.5","","","","","0.8","0.2","0.6","0.2","","","","","","","","","","74","J","1","","true","0","full_practice",""
"","bandit","58","395517","0.0-32.0-6.0","46006718","wem/bandit_party_1","A326O3VWP8TO8N","either","4","356","","","","","","","0","0","1","0.2","","0.5","0.5","0.5","0.5","","","","","0.8","0.2","0.6","0.2","","","","","","","","","","74","J","1","","true","0","full_practice",""
"","bandit","59","397301","0.0-32.0-7.0","46006718","wem/bandit_party_1","A326O3VWP8TO8N","either","4","269","","","","","","","0","1","0","","0.6","0.5","0.5","0.5","0.5","0.8","0.2","0.6","0.2","","","","","","","","","","","","","","75","K","2","","true","0","full_practice",""
"","bandit","60","399008","0.0-32.0-8.0","46006718","wem/bandit_party_1","A326O3VWP8TO8N","either","4","196","","","","","","","1","0","0","0.6","","0.5","0.5","0.5","0.5","","","","","0.8","0.2","0.6","0.2","","","","","","","","","","75","K","2","","true","0","full_practice",""
"","bandit","61","400663","0.0-32.0-9.0","46006718","wem/bandit_party_1","A326O3VWP8TO8N","either","4","150","","","","","","","1","0","0","0.6","","0.5","0.5","0.5","0.5","","","","","0.8","0.2","0.6","0.2","","","","","","","","","","75","K","2","","true","0","full_practice",""
"","bandit","62","402408","0.0-32.0-10.0","46006718","wem/bandit_party_1","A326O3VWP8TO8N","either","4","240","","","","","","","0","1","0","","0.6","0.5","0.5","0.5","0.5","0.8","0.2","0.6","0.2","","","","","","","","","","","","","","75","K","2","","true","0","full_practice",""
"","bandit","63","404178","0.0-32.0-11.0","46006718","wem/bandit_party_1","A326O3VWP8TO8N","either","4","257","","","","","","","0","0","1","0.6","","0.5","0.5","0.5","0.5","","","","","0.8","0.2","0.6","0.2","","","","","","","","","","75","K","2","","true","0","full_practice",""
"","bandit","64","405978","0.0-32.0-12.0","46006718","wem/bandit_party_1","A326O3VWP8TO8N","either","4","288","","","","","","","0","0","1","","0.6","0.5","0.5","0.5","0.5","0.8","0.2","0.6","0.2","","","","","","","","","","","","","","75","K","2","","true","0","full_practice",""
"","bandit","65","407958","0.0-32.0-13.0","46006718","wem/bandit_party_1","A326O3VWP8TO8N","either","4","473","","","","","","","0","0","1","0.2","","0.5","0.5","0.5","0.5","","","","","0.8","0.2","0.6","0.2","","","","","","","","","","76","L","3","","true","0","full_practice",""
"","bandit","66","409702","0.0-32.0-14.0","46006718","wem/bandit_party_1","A326O3VWP8TO8N","either","4","240","","","","","","","0","0","1","0.2","","0.5","0.5","0.5","0.5","","","","","0.8","0.2","0.6","0.2","","","","","","","","","","76","L","3","","true","0","full_practice",""
"","bandit","67","411433","0.0-32.0-15.0","46006718","wem/bandit_party_1","A326O3VWP8TO8N","either","4","224","","","","","","","0","1","0","","0.8","0.5","0.5","0.5","0.5","0.8","0.2","0.6","0.2","","","","","","","","","","","","","","72","H","0","img/none_selected.jpg","true","0","full_practice",""
"","bandit","68","413083","0.0-32.0-16.0","46006718","wem/bandit_party_1","A326O3VWP8TO8N","either","4","142","","","","","","","1","0","0","0.8","","0.5","0.5","0.5","0.5","","","","","0.8","0.2","0.6","0.2","","","","","","","","","","72","H","0","img/none_selected.jpg","true","0","full_practice",""
"","bandit","69","414684","0.0-32.0-17.0","46006718","wem/bandit_party_1","A326O3VWP8TO8N","either","4","90","","","","","","","1","0","0","0.8","","0.5","0.5","0.5","0.5","","","","","0.8","0.2","0.6","0.2","","","","","","","","","","72","H","0","img/none_selected.jpg","true","0","full_practice",""
"","bandit","70","416378","0.0-32.0-18.0","46006718","wem/bandit_party_1","A326O3VWP8TO8N","either","4","186","","","","","","","0","1","0","","0.8","0.5","0.5","0.5","0.5","0.8","0.2","0.6","0.2","","","","","","","","","","","","","","72","H","0","img/none_selected.jpg","true","0","full_practice",""
"","bandit","71","417903","0.0-32.0-19.0","46006718","wem/bandit_party_1","A326O3VWP8TO8N","either","4","20","","","","","","","1","0","0","0.8","","0.5","0.5","0.5","0.5","","","","","0.8","0.2","0.6","0.2","","","","","","","","","","72","H","0","img/none_selected.jpg","true","0","full_practice",""
"","text","72","423525","0.0-33.0","46006718","wem/bandit_party_1","A326O3VWP8TO8N","either","4","5617","","","32","","","","","","","","","","","","","","","","","","","","","","","","","","","","","","","","","","","","",""
"","text-replacement","73","436703","0.0-34.0","46006718","wem/bandit_party_1","A326O3VWP8TO8N","either","4","12171","","","32","","","","","","","","","","","","","","","","","","","","","","","","","","","","","","","","","","","","",""
"","text-replacement","74","444163","0.0-35.0","46006718","wem/bandit_party_1","A326O3VWP8TO8N","either","4","7460","","","32","","","","","","","","","","","","","","","","","","","","","","","","","","","","","","","","","","","","",""
"","text-replacement","75","448326","0.0-36.0","46006718","wem/bandit_party_1","A326O3VWP8TO8N","either","4","4158","","","32","","","","","","","","","","","","","","","","","","","","","","","","","","","","","","","","","","","","",""
"","text-replacement","76","452069","0.0-37.0","46006718","wem/bandit_party_1","A326O3VWP8TO8N","either","4","3743","","","32","","","","","","","","","","","","","","","","","","","","","","","","","","","","","","","","","","","","",""
"","text-replacement","77","454363","0.0-38.0","46006718","wem/bandit_party_1","A326O3VWP8TO8N","either","4","2294","","","32","","","","","","","","","","","","","","","","","","","","","","","","","","","","","","","","","","","","",""
"","survey-multi-choice-replacement","78","459868","0.0-39.0-0.0","46006718","wem/bandit_party_1","A326O3VWP8TO8N","either","4","5487","","","","","","","","","","","","","","","","","","","","","","","","Money will be added to the pool for <span style='color:blue;'>DEMOCRATS</span>","","","","","","","attn_check","","","","","","","","","0"
"","survey-multi-choice-replacement","79","465119","0.0-40.0-0.0","46006718","wem/bandit_party_1","A326O3VWP8TO8N","either","4","4243","","","","","","","","","","","","","","","","","","","","","","","","Equal amounts of money will be added to the pool for <span style='color:blue;'>DEMOCRATS</span> and subtracted from the pool for <span style='color:red;'>REPUBLICANS</span>","","","","","","","attn_check","","","","","","","","","2"
"","survey-multi-choice-replacement","80","468984","0.0-41.0-0.0","46006718","wem/bandit_party_1","A326O3VWP8TO8N","either","4","2853","","","","","","","","","","","","","","","","","","","","","","","","No money will be added to either pool","","","","","","","attn_check","","","","","","","","","3"
"","bandit","81","476273","0.0-42.0-0.0","46006718","wem/bandit_party_1","A326O3VWP8TO8N","either","4","4772","","","","","","","0","0","1","0.3894728165","","0.2","0.8","0.6","0.4","","","","","0.3894728165","0.3525715257","0.3242650943","0.2771551185","","","","","","","","","","72","H","0","img/none_selected.jpg","","1","main_expt",""
"","bandit","82","478077","0.0-43.0-0.0","46006718","wem/bandit_party_1","A326O3VWP8TO8N","either","4","299","","","","","","","0","0","1","","0.390153736","0.2","0.8","0.6","0.4","0.363660736","0.390153736","0.3296228245","0.3030893157","","","","","","","","","","","","","","74","J","1","","","2","main_expt",""
"","bandit","83","479784","0.0-44.0-0.0","46006718","wem/bandit_party_1","A326O3VWP8TO8N","either","4","198","","","","","","","1","0","0","0.3102780753","","0.2","0.8","0.6","0.4","","","","","0.3842171554","0.3725447061","0.3102780753","0.3211059343","","","","","","","","","","75","K","2","","","3","main_expt",""
"","bandit","84","481543","0.0-45.0-0.0","46006718","wem/bandit_party_1","A326O3VWP8TO8N","either","4","247","","","","","","","0","0","1","0.2749892112","","0.2","0.8","0.6","0.4","","","","","0.3831963053","0.3431524481","0.2749892112","0.2804386453","","","","","","","","","","75","K","2","","","4","main_expt",""
"","bandit","85","483328","0.0-46.0-0.0","46006718","wem/bandit_party_1","A326O3VWP8TO8N","either","4","276","","","","","","","1","0","0","0.3037824898","","0.2","0.8","0.6","0.4","","","","","0.4056596471","0.3448007793","0.3037824898","0.2609559086","","","","","","","","","","75","K","2","","","5","main_expt",""
"","bandit","86","484957","0.0-47.0-0.0","46006718","wem/bandit_party_1","A326O3VWP8TO8N","either","4","117","","","","","","","0","0","1","","0.3217417103","0.2","0.8","0.6","0.4","0.4409946319","0.3980888019","0.3217417103","0.2259287768","","","","","","","","","","","","","","75","K","2","","","6","main_expt",""
"","bandit","87","486650","0.0-48.0-0.0","46006718","wem/bandit_party_1","A326O3VWP8TO8N","either","4","181","","","","","","","0","0","1","0.3018715163","","0.2","0.8","0.6","0.4","","","","","0.3821747998","0.3693121862","0.3018715163","0.2433618728","","","","","","","","","","75","K","2","","","7","main_expt",""
"","bandit","88","488242","0.0-49.0-0.0","46006718","wem/bandit_party_1","A326O3VWP8TO8N","either","4","84","","","","","","","0","0","1","","0.2025356769","0.2","0.8","0.6","0.4","0.3841844813","0.2933697555","0.3643645816","0.2025356769","","","","","","","","","","","","","","76","L","3","","","8","main_expt",""
"","bandit","89","489972","0.0-50.0-0.0","46006718","wem/bandit_party_1","A326O3VWP8TO8N","either","4","212","","","","","","","0","0","1","0.3412237964","","0.2","0.8","0.6","0.4","","","","","0.3412237964","0.3036212831","0.3418610374","0.1441028094","","","","","","","","","","72","H","0","img/none_selected.jpg","","9","main_expt",""
"","bandit","90","491873","0.0-51.0-0.0","46006718","wem/bandit_party_1","A326O3VWP8TO8N","either","4","392","","","","","","","0","0","1","","0.3256420777","0.2","0.8","0.6","0.4","0.3256420777","0.308020301","0.3190157878","0.1736005971","","","","","","","","","","","","","","72","H","0","img/none_selected.jpg","","10","main_expt",""
"","bandit","91","493749","0.0-52.0-0.0","46006718","wem/bandit_party_1","A326O3VWP8TO8N","either","4","370","","","","","","","0","0","1","0.1836365694","","0.2","0.8","0.6","0.4","","","","","0.3514007431","0.3065973113","0.2998731478","0.1836365694","","","","","","","","","","76","L","3","","","11","main_expt",""
"","bandit","92","495633","0.0-53.0-0.0","46006718","wem/bandit_party_1","A326O3VWP8TO8N","either","4","370","","","","","","","0","0","1","","0.2143869662","0.2","0.8","0.6","0.4","0.3722032088","0.3271859636","0.2942822571","0.2143869662","","","","","","","","","","","","","","76","L","3","","","12","main_expt",""
"","bandit","93","497425","0.0-54.0-0.0","46006718","wem/bandit_party_1","A326O3VWP8TO8N","either","4","281","","","","","","","0","0","1","0.2761076709","","0.2","0.8","0.6","0.4","","","","","0.3681707299","0.2761076709","0.3009212619","0.1637139448","","","","","","","","","","74","J","1","","","13","main_expt",""
"","bandit","94","498986","0.0-55.0-0.0","46006718","wem/bandit_party_1","A326O3VWP8TO8N","either","4","44","","","","","","","0","0","1","0.2311164494","","0.2","0.8","0.6","0.4","","","","","0.3528222564","0.2311164494","0.3227424667","0.1488535162","","","","","","","","","","74","J","1","","","14","main_expt",""
"","bandit","95","500625","0.0-56.0-0.0","46006718","wem/bandit_party_1","A326O3VWP8TO8N","either","4","127","","","","","","","0","0","1","0.2905977425","","0.2","0.8","0.6","0.4","","","","","0.3738838661","0.2905977425","0.3547546862","0.1332411271","","","","","","","","","","74","J","1","","","15","main_expt",""
"","bandit","96","502234","0.0-57.0-0.0","46006718","wem/bandit_party_1","A326O3VWP8TO8N","either","4","99","","","","","","","0","0","1","","0.3241157583","0.2","0.8","0.6","0.4","0.3385239332","0.2924554969","0.3241157583","0.09882415698","","","","","","","","","","","","","","75","K","2","","","16","main_expt",""
"","bandit","97","503788","0.0-58.0-0.0","46006718","wem/bandit_party_1","A326O3VWP8TO8N","either","4","44","","","","","","","0","0","1","","0.3363410386","0.2","0.8","0.6","0.4","0.3111355138","0.3114836302","0.3363410386","0.1069157009","","","","","","","","","","","","","","75","K","2","","","17","main_expt",""
"","bandit","98","505440","0.0-59.0-0.0","46006718","wem/bandit_party_1","A326O3VWP8TO8N","either","4","138","","","","","","","0","0","1","0.3880947854","","0.2","0.8","0.6","0.4","","","","","0.3487767647","0.3215333475","0.3880947854","0.134958137","","","","","","","","","","75","K","2","","","18","main_expt",""
"","bandit","99","507231","0.0-60.0-0.0","46006718","wem/bandit_party_1","A326O3VWP8TO8N","either","4","282","","","","","","","0","0","1","0.3010303499","","0.2","0.8","0.6","0.4","","","","","0.3010303499","0.2733398822","0.4116912081","0.1230418706","","","","","","","","","","72","H","0","img/none_selected.jpg","","19","main_expt",""
"","bandit","100","508878","0.0-61.0-0.0","46006718","wem/bandit_party_1","A326O3VWP8TO8N","either","4","137","","","","","","","0","1","0","","0.2907203997","0.2","0.8","0.6","0.4","0.2907203997","0.2351410235","0.3973894305","0.09866604889","","","","","","","","","","","","","","72","H","0","img/none_selected.jpg","","20","main_expt",""
"","bandit","101","510656","0.0-62.0-0.0","46006718","wem/bandit_party_1","A326O3VWP8TO8N","either","4","270","","","","","","","0","0","1","0.3088108907","","0.2","0.8","0.6","0.4","","","","","0.3088108907","0.2257810982","0.369037109","0.1021222834","","","","","","","","","","72","H","0","img/none_selected.jpg","","21","main_expt",""
"","bandit","102","512433","0.0-63.0-0.0","46006718","wem/bandit_party_1","A326O3VWP8TO8N","either","4","261","","","","","","","0","0","1","","0.349202701","0.2","0.8","0.6","0.4","0.349202701","0.2221856846","0.4179468344","0.1234138809","","","","","","","","","","","","","","72","H","0","img/none_selected.jpg","","22","main_expt",""
"","bandit","103","514000","0.0-64.0-0.0","46006718","wem/bandit_party_1","A326O3VWP8TO8N","either","4","56","","","","","","","0","1","0","","0.3785068464","0.2","0.8","0.6","0.4","0.3785068464","0.2127124712","0.4276062926","0.1030640584","","","","","","","","","","","","","","72","H","0","img/none_selected.jpg","","23","main_expt",""
"","bandit","104","515665","0.0-65.0-0.0","46006718","wem/bandit_party_1","A326O3VWP8TO8N","either","4","151","","","","","","","1","0","0","0.4012919653","","0.2","0.8","0.6","0.4","","","","","0.4012919653","0.1882566648","0.4078122208","0.1261035851","","","","","","","","","","72","H","0","img/none_selected.jpg","","24","main_expt",""
"","bandit","105","517331","0.0-66.0-0.0","46006718","wem/bandit_party_1","A326O3VWP8TO8N","either","4","148","","","","","","","0","1","0","","0.400899794","0.2","0.8","0.6","0.4","0.400899794","0.1273223766","0.3950411191","0.1796705612","","","","","","","","","","","","","","72","H","0","img/none_selected.jpg","","25","main_expt",""
"","bandit","106","519076","0.0-67.0-0.0","46006718","wem/bandit_party_1","A326O3VWP8TO8N","either","4","235","","","","","","","0","0","1","","0.4126274585","0.2","0.8","0.6","0.4","0.4126274585","0.15747458","0.4322303329","0.2414651519","","","","","","","","","","","","","","72","H","0","img/none_selected.jpg","","26","main_expt",""
"","bandit","107","520704","0.0-68.0-0.0","46006718","wem/bandit_party_1","A326O3VWP8TO8N","either","4","116","","","","","","","0","0","1","","0.3992263875","0.2","0.8","0.6","0.4","0.3992263875","0.1442684908","0.4353643722","0.2005374927","","","","","","","","","","","","","","72","H","0","img/none_selected.jpg","","27","main_expt",""
"","bandit","108","522225","0.0-69.0-0.0","46006718","wem/bandit_party_1","A326O3VWP8TO8N","either","4","15","","","","","","","0","0","1","","0.3846584236","0.2","0.8","0.6","0.4","0.3846584236","0.2255404594","0.4464017809","0.3197257227","","","","","","","","","","","","","","72","H","0","img/none_selected.jpg","","28","main_expt",""
"","bandit","109","524085","0.0-70.0-0.0","46006718","wem/bandit_party_1","A326O3VWP8TO8N","either","4","342","","","","","","","0","0","1","0.2730951691","","0.2","0.8","0.6","0.4","","","","","0.3561298134","0.2730951691","0.4417109462","0.3141869899","","","","","","","","","","74","J","1","","","29","main_expt",""
"","bandit","110","525737","0.0-71.0-0.0","46006718","wem/bandit_party_1","A326O3VWP8TO8N","either","4","146","","","","","","","0","0","1","0.2890412698","","0.2","0.8","0.6","0.4","","","","","0.3101363315","0.2890412698","0.4065908859","0.3445991012","","","","","","","","","","74","J","1","","","30","main_expt",""
"","bandit","111","527376","0.0-72.0-0.0","46006718","wem/bandit_party_1","A326O3VWP8TO8N","either","4","126","","","","","","","1","0","0","0.3456655029","","0.2","0.8","0.6","0.4","","","","","0.3322219809","0.3309226042","0.3954582793","0.3456655029","","","","","","","","","","76","L","3","","","31","main_expt",""
"","bandit","112","529221","0.0-73.0-0.0","46006718","wem/bandit_party_1","A326O3VWP8TO8N","either","4","335","","","","","","","0","0","1","0.3826172224","","0.2","0.8","0.6","0.4","","","","","0.3516269472","0.3519301717","0.3716723047","0.3826172224","","","","","","","","","","76","L","3","","","32","main_expt",""
"","bandit","113","530916","0.0-74.0-0.0","46006718","wem/bandit_party_1","A326O3VWP8TO8N","either","4","180","","","","","","","0","1","0","","0.3804083149","0.2","0.8","0.6","0.4","0.3852085553","0.3414953842","0.3799724366","0.3804083149","","","","","","","","","","","","","","76","L","3","","","33","main_expt",""
"","bandit","114","532581","0.0-75.0-0.0","46006718","wem/bandit_party_1","A326O3VWP8TO8N","either","4","155","","","","","","","0","0","1","","0.3808178469","0.2","0.8","0.6","0.4","0.4196644934","0.2938412915","0.409480615","0.3808178469","","","","","","","","","","","","","","76","L","3","","","34","main_expt",""
"","bandit","115","534258","0.0-76.0-0.0","46006718","wem/bandit_party_1","A326O3VWP8TO8N","either","4","163","","","","","","","0","1","0","","0.376129724","0.2","0.8","0.6","0.4","0.420891004","0.2256616696","0.3869649509","0.376129724","","","","","","","","","","","","","","76","L","3","","","35","main_expt",""
"","bandit","116","535967","0.0-77.0-0.0","46006718","wem/bandit_party_1","A326O3VWP8TO8N","either","4","203","","","","","","","0","1","0","","0.4027809904","0.2","0.8","0.6","0.4","0.3808881167","0.2525957923","0.3045389962","0.4027809904","","","","","","","","","","","","","","76","L","3","","","36","main_expt",""
"","bandit","117","537511","0.0-78.0-0.0","46006718","wem/bandit_party_1","A326O3VWP8TO8N","either","4","36","","","","","","","1","0","0","0.3715556026","","0.2","0.8","0.6","0.4","","","","","0.3634360393","0.2333373749","0.2954217214","0.3715556026","","","","","","","","","","76","L","3","","","37","main_expt",""
"","bandit","118","539269","0.0-79.0-0.0","46006718","wem/bandit_party_1","A326O3VWP8TO8N","either","4","246","","","","","","","0","0","1","0.354842885","","0.2","0.8","0.6","0.4","","","","","0.3432691328","0.2126884676","0.2749906923","0.354842885","","","","","","","","","","76","L","3","","","38","main_expt",""
"","bandit","119","540809","0.0-80.0-0.0","46006718","wem/bandit_party_1","A326O3VWP8TO8N","either","4","30","","","","","","","0","1","0","","0.3066825603","0.2","0.8","0.6","0.4","0.3113322025","0.212498526","0.2911873598","0.3066825603","","","","","","","","","","","","","","76","L","3","","","39","main_expt",""
"","bandit","120","542402","0.0-81.0-0.0","46006718","wem/bandit_party_1","A326O3VWP8TO8N","either","4","84","","","","","","","1","0","0","0.3208648015","","0.2","0.8","0.6","0.4","","","","","0.3298138996","0.2031275136","0.3066149412","0.3208648015","","","","","","","","","","76","L","3","","","40","main_expt",""
"","bandit","121","544042","0.0-82.0-0.0","46006718","wem/bandit_party_1","A326O3VWP8TO8N","either","4","125","","","","","","","0","1","0","","0.2774570704","0.2","0.8","0.6","0.4","0.3590557929","0.2409224204","0.2612722093","0.2774570704","","","","","","","","","","","","","","76","L","3","","","41","main_expt",""
"","bandit","122","545609","0.0-83.0-0.0","46006718","wem/bandit_party_1","A326O3VWP8TO8N","either","4","57","","","","","","","0","0","1","","0.3092882543","0.2","0.8","0.6","0.4","0.3455434044","0.2166695961","0.2579482203","0.3092882543","","","","","","","","","","","","","","76","L","3","","","42","main_expt",""
"","bandit","123","547188","0.0-84.0-0.0","46006718","wem/bandit_party_1","A326O3VWP8TO8N","either","4","70","","","","","","","1","0","0","0.3161251671","","0.2","0.8","0.6","0.4","","","","","0.4020043176","0.2314197793","0.2232302517","0.3161251671","","","","","","","","","","76","L","3","","","43","main_expt",""
"","bandit","124","548751","0.0-85.0-0.0","46006718","wem/bandit_party_1","A326O3VWP8TO8N","either","4","55","","","","","","","1","0","0","0.3032549762","","0.2","0.8","0.6","0.4","","","","","0.4088695108","0.1889371852","0.2435669349","0.3032549762","","","","","","","","","","76","L","3","","","44","main_expt",""
"","bandit","125","550311","0.0-86.0-0.0","46006718","wem/bandit_party_1","A326O3VWP8TO8N","either","4","47","","","","","","","0","1","0","","0.3012359134","0.2","0.8","0.6","0.4","0.3914045207","0.2152104473","0.1885724617","0.3012359134","","","","","","","","","","","","","","76","L","3","","","45","main_expt",""
"","bandit","126","552324","0.0-87.0-0.0","46006718","wem/bandit_party_1","A326O3VWP8TO8N","either","4","504","","","","","","","0","0","1","0.2994346937","","0.2","0.8","0.6","0.4","","","","","0.3682142312","0.2260726972","0.104230756","0.2994346937","","","","","","","","","","76","L","3","","","46","main_expt",""
"","bandit","127","554008","0.0-88.0-0.0","46006718","wem/bandit_party_1","A326O3VWP8TO8N","either","4","175","","","","","","","0","0","1","","0.3169549043","0.2","0.8","0.6","0.4","0.3462276735","0.2330399618","0.09013225529","0.3169549043","","","","","","","","","","","","","","76","L","3","","","47","main_expt",""
"","bandit","128","555582","0.0-89.0-0.0","46006718","wem/bandit_party_1","A326O3VWP8TO8N","either","4","70","","","","","","","0","0","1","0.3137179834","","0.2","0.8","0.6","0.4","","","","","0.3501405617","0.2769685944","0.1066227192","0.3137179834","","","","","","","","","","76","L","3","","","48","main_expt",""
"","bandit","129","557274","0.0-90.0-0.0","46006718","wem/bandit_party_1","A326O3VWP8TO8N","either","4","179","","","","","","","1","0","0","0.2954986192","","0.2","0.8","0.6","0.4","","","","","0.3607669766","0.2954986192","0.1273062614","0.3026837323","","","","","","","","","","74","J","1","","","49","main_expt",""
"","bandit","130","558863","0.0-91.0-0.0","46006718","wem/bandit_party_1","A326O3VWP8TO8N","either","4","75","","","","","","","0","1","0","","0.2730110453","0.2","0.8","0.6","0.4","0.3776327681","0.2730110453","0.08158159543","0.2690248343","","","","","","","","","","","","","","74","J","1","","","50","main_expt",""
"","bandit","131","560677","0.0-92.0-0.0","46006718","wem/bandit_party_1","A326O3VWP8TO8N","either","4","297","","","","","","","0","0","1","0.2672659715","","0.2","0.8","0.6","0.4","","","","","0.3922012959","0.2672659715","0.08035098666","0.2407215714","","","","","","","","","","74","J","1","","","51","main_expt",""
"","bandit","132","562308","0.0-93.0-0.0","46006718","wem/bandit_party_1","A326O3VWP8TO8N","either","4","115","","","","","","","0","0","1","0.2552972095","","0.2","0.8","0.6","0.4","","","","","0.3532085343","0.2552972095","0.1007468434","0.2758158767","","","","","","","","","","74","J","1","","","52","main_expt",""
"","bandit","133","563948","0.0-94.0-0.0","46006718","wem/bandit_party_1","A326O3VWP8TO8N","either","4","122","","","","","","","0","0","1","0.1954439593","","0.2","0.8","0.6","0.4","","","","","0.3597378762","0.1954439593","0.1479770317","0.2661511239","","","","","","","","","","74","J","1","","","53","main_expt",""
"","bandit","134","565580","0.0-95.0-0.0","46006718","wem/bandit_party_1","A326O3VWP8TO8N","either","4","115","","","","","","","0","0","1","","0.3553644404","0.2","0.8","0.6","0.4","0.3553644404","0.1250298759","0.1450389045","0.250303373","","","","","","","","","","","","","","72","H","0","img/none_selected.jpg","","54","main_expt",""
"","bandit","135","567266","0.0-96.0-0.0","46006718","wem/bandit_party_1","A326O3VWP8TO8N","either","4","172","","","","","","","0","0","1","0.1678096349","","0.2","0.8","0.6","0.4","","","","","0.3427354451","0.1224949652","0.1678096349","0.1850572083","","","","","","","","","","75","K","2","","","55","main_expt",""
"","bandit","136","568779","0.0-97.0-0.0","46006718","wem/bandit_party_1","A326O3VWP8TO8N","either","4","0","","","","","","","0","0","1","","0.1748395718","0.2","0.8","0.6","0.4","0.3158877586","0.1312048923","0.1748395718","0.2410157884","","","","","","","","","","","","","","75","K","2","","","56","main_expt",""
"","bandit","137","570353","0.0-98.0-0.0","46006718","wem/bandit_party_1","A326O3VWP8TO8N","either","4","61","","","","","","","0","0","1","0.146986137","","0.2","0.8","0.6","0.4","","","","","0.3224611445","0.14452077","0.146986137","0.2657224069","","","","","","","","","","75","K","2","","","57","main_expt",""
"","bandit","138","571952","0.0-99.0-0.0","46006718","wem/bandit_party_1","A326O3VWP8TO8N","either","4","80","","","","","","","0","0","1","","0.3378672788","0.2","0.8","0.6","0.4","0.3378672788","0.1198415177","0.1316135006","0.2361308133","","","","","","","","","","","","","","72","H","0","img/none_selected.jpg","","58","main_expt",""
"","bandit","139","574854","0.0-100.0-0.0","46006718","wem/bandit_party_1","A326O3VWP8TO8N","either","4","1393","","","","","","","0","0","1","0.1674914914","","0.2","0.8","0.6","0.4","","","","","0.3438075972","0.1674914914","0.1776120447","0.2078360154","","","","","","","","","","74","J","1","","","59","main_expt",""
"","bandit","140","576587","0.0-101.0-0.0","46006718","wem/bandit_party_1","A326O3VWP8TO8N","either","4","220","","","","","","","1","0","0","0.147959707","","0.2","0.8","0.6","0.4","","","","","0.2950987239","0.147959707","0.2034864675","0.2256957235","","","","","","","","","","74","J","1","","","60","main_expt",""
"","bandit","141","578287","0.0-102.0-0.0","46006718","wem/bandit_party_1","A326O3VWP8TO8N","either","4","181","","","","","","","0","0","1","","0.1217284172","0.2","0.8","0.6","0.4","0.2939622289","0.1217284172","0.1325668513","0.2713547376","","","","","","","","","","","","","","74","J","1","","","61","main_expt",""
"","bandit","142","579908","0.0-103.0-0.0","46006718","wem/bandit_party_1","A326O3VWP8TO8N","either","4","106","","","","","","","0","0","1","0.1392905859","","0.2","0.8","0.6","0.4","","","","","0.2907096119","0.1392905859","0.125492747","0.2800078023","","","","","","","","","","74","J","1","","","62","main_expt",""
"","bandit","143","581530","0.0-104.0-0.0","46006718","wem/bandit_party_1","A326O3VWP8TO8N","either","4","117","","","","","","","0","0","1","","0.1953314019","0.2","0.8","0.6","0.4","0.2696382907","0.1953314019","0.1081989139","0.362183352","","","","","","","","","","","","","","74","J","1","","","63","main_expt",""
"","bandit","144","583151","0.0-105.0-0.0","46006718","wem/bandit_party_1","A326O3VWP8TO8N","either","4","113","","","","","","","0","0","1","","0.3354395381","0.2","0.8","0.6","0.4","0.2496415039","0.2618523415","0.09104284411","0.3354395381","","","","","","","","","","","","","","76","L","3","","","64","main_expt",""
"","bandit","145","584779","0.0-106.0-0.0","46006718","wem/bandit_party_1","A326O3VWP8TO8N","either","4","64","","","","","","","0","1","0","","0.2893845237","0.2","0.8","0.6","0.4","0.2364994079","0.2686672798","0.1264903162","0.2893845237","","","","","","","","","","","","","","76","L","3","","","65","main_expt",""
"","bandit","146","586400","0.0-107.0-0.0","46006718","wem/bandit_party_1","A326O3VWP8TO8N","either","4","108","","","","","","","0","0","1","","0.2355717356","0.2","0.8","0.6","0.4","0.2541683514","0.2451656397","0.1665937301","0.2355717356","","","","","","","","","","","","","","76","L","3","","","66","main_expt",""
"","bandit","147","588088","0.0-108.0-0.0","46006718","wem/bandit_party_1","A326O3VWP8TO8N","either","4","180","","","","","","","0","0","1","0.2848755716","","0.2","0.8","0.6","0.4","","","","","0.2985471382","0.2445320338","0.1740025863","0.2848755716","","","","","","","","","","76","L","3","","","67","main_expt",""
"","bandit","148","589680","0.0-109.0-0.0","46006718","wem/bandit_party_1","A326O3VWP8TO8N","either","4","84","","","","","","","0","1","0","","0.3341158043","0.2","0.8","0.6","0.4","0.3391290389","0.2261158315","0.2300011382","0.3341158043","","","","","","","","","","","","","","76","L","3","","","68","main_expt",""
"","bandit","149","591432","0.0-110.0-0.0","46006718","wem/bandit_party_1","A326O3VWP8TO8N","either","4","244","","","","","","","1","0","0","0.3253412689","","0.2","0.8","0.6","0.4","","","","","0.3114764975","0.1627286519","0.1768594062","0.3253412689","","","","","","","","","","76","L","3","","","69","main_expt",""
"","bandit","150","593050","0.0-111.0-0.0","46006718","wem/bandit_party_1","A326O3VWP8TO8N","either","4","108","","","","","","","0","1","0","","0.3280915152","0.2","0.8","0.6","0.4","0.3056328376","0.1301009224","0.1906145184","0.3280915152","","","","","","","","","","","","","","76","L","3","","","70","main_expt",""
"","bandit","151","594711","0.0-112.0-0.0","46006718","wem/bandit_party_1","A326O3VWP8TO8N","either","4","152","","","","","","","0","0","1","","0.3772643828","0.2","0.8","0.6","0.4","0.3445325487","0.1356707761","0.1451664327","0.3772643828","","","","","","","","","","","","","","76","L","3","","","71","main_expt",""
"","bandit","152","596288","0.0-113.0-0.0","46006718","wem/bandit_party_1","A326O3VWP8TO8N","either","4","66","","","","","","","0","0","1","0.4074174212","","0.2","0.8","0.6","0.4","","","","","0.364612409","0.1045412551","0.1091447996","0.4074174212","","","","","","","","","","76","L","3","","","72","main_expt",""
"","bandit","153","598721","0.0-114.0-0.0","46006718","wem/bandit_party_1","A326O3VWP8TO8N","either","4","925","","","","","","","0","0","1","","0.3736299767","0.2","0.8","0.6","0.4","0.4454774056","0.0867882282","0.1248737042","0.3736299767","","","","","","","","","","","","","","76","L","3","","","73","main_expt",""
"","bandit","154","600440","0.0-115.0-0.0","46006718","wem/bandit_party_1","A326O3VWP8TO8N","either","4","211","","","","","","","0","0","1","0.383211712","","0.2","0.8","0.6","0.4","","","","","0.4492830973","0.1018359722","0.1073746888","0.383211712","","","","","","","","","","76","L","3","","","74","main_expt",""
"","bandit","155","602128","0.0-116.0-0.0","46006718","wem/bandit_party_1","A326O3VWP8TO8N","either","4","179","","","","","","","0","1","0","","0.449321966","0.2","0.8","0.6","0.4","0.449321966","0.09443707336","0.1051395745","0.3681962321","","","","","","","","","","","","","","72","H","0","img/none_selected.jpg","","75","main_expt",""
"","bandit","156","603856","0.0-117.0-0.0","46006718","wem/bandit_party_1","A326O3VWP8TO8N","either","4","220","","","","","","","0","0","1","","0.4299726132","0.2","0.8","0.6","0.4","0.4299726132","0.08768691443","0.09171451076","0.3574328021","","","","","","","","","","","","","","72","H","0","img/none_selected.jpg","","76","main_expt",""
"","bandit","157","605456","0.0-118.0-0.0","46006718","wem/bandit_party_1","A326O3VWP8TO8N","either","4","92","","","","","","","0","0","1","0.4349340462","","0.2","0.8","0.6","0.4","","","","","0.4349340462","0.07744448812","0.1256070833","0.4041720962","","","","","","","","","","72","H","0","img/none_selected.jpg","","77","main_expt",""
"","bandit","158","608352","0.0-119.0-0.0","46006718","wem/bandit_party_1","A326O3VWP8TO8N","either","4","1386","","","","","","","0","1","0","","0.4112950215","0.2","0.8","0.6","0.4","0.4112950215","0.05712631425","0.1398604905","0.4000946746","","","","","","","","","","","","","","72","H","0","img/none_selected.jpg","","78","main_expt",""
"","bandit","159","610064","0.0-120.0-0.0","46006718","wem/bandit_party_1","A326O3VWP8TO8N","either","4","205","","","","","","","0","1","0","","0.4123046053","0.2","0.8","0.6","0.4","0.4123046053","0.03981704588","0.1303191282","0.425248604","","","","","","","","","","","","","","72","H","0","img/none_selected.jpg","","79","main_expt",""
"","bandit","160","611730","0.0-121.0-0.0","46006718","wem/bandit_party_1","A326O3VWP8TO8N","either","4","153","","","","","","","0","1","0","","0.4345430878","0.2","0.8","0.6","0.4","0.4345430878","0.02961196177","0.1491340647","0.4263383456","","","","","","","","","","","","","","72","H","0","img/none_selected.jpg","","80","main_expt",""
"","bandit","161","613512","0.0-122.0-0.0","46006718","wem/bandit_party_1","A326O3VWP8TO8N","either","4","266","","","","","","","0","0","1","","0.4255274095","0.2","0.8","0.6","0.4","0.4255274095","0.0408206899","0.1484119081","0.4377411966","","","","","","","","","","","","","","72","H","0","img/none_selected.jpg","","81","main_expt",""
"","bandit","162","615653","0.0-123.0-0.0","46006718","wem/bandit_party_1","A326O3VWP8TO8N","either","4","627","","","","","","","0","1","0","","0.4266934287","0.2","0.8","0.6","0.4","0.4266934287","0.03491361241","0.135460029","0.4263216968","","","","","","","","","","","","","","72","H","0","img/none_selected.jpg","","82","main_expt",""
"","bandit","163","617374","0.0-124.0-0.0","46006718","wem/bandit_party_1","A326O3VWP8TO8N","either","4","214","","","","","","","1","0","0","0.4321646522","","0.2","0.8","0.6","0.4","","","","","0.4321646522","0.01881925386","0.09497461961","0.4536492548","","","","","","","","","","72","H","0","img/none_selected.jpg","","83","main_expt",""
"","bandit","164","619333","0.0-125.0-0.0","46006718","wem/bandit_party_1","A326O3VWP8TO8N","either","4","441","","","","","","","0","1","0","","0.43129245","0.2","0.8","0.6","0.4","0.43129245","0.03441768066","0.0956585677","0.4344769981","","","","","","","","","","","","","","72","H","0","img/none_selected.jpg","","84","main_expt",""
"","bandit","165","620999","0.0-126.0-0.0","46006718","wem/bandit_party_1","A326O3VWP8TO8N","either","4","149","","","","","","","0","0","1","","0.4307495417","0.2","0.8","0.6","0.4","0.4307495417","0.04015732792","0.08427930603","0.4167097255","","","","","","","","","","","","","","72","H","0","img/none_selected.jpg","","85","main_expt",""
"","bandit","166","623175","0.0-127.0-0.0","46006718","wem/bandit_party_1","A326O3VWP8TO8N","either","4","663","","","","","","","0","1","0","","0.4327415212","0.2","0.8","0.6","0.4","0.4327415212","0.0462821445","0.09540141202","0.4215971904","","","","","","","","","","","","","","72","H","0","img/none_selected.jpg","","86","main_expt",""
"","bandit","167","625011","0.0-128.0-0.0","46006718","wem/bandit_party_1","A326O3VWP8TO8N","either","4","319","","","","","","","0","0","1","","0.4507305815","0.2","0.8","0.6","0.4","0.4507305815","0.07236867375","0.06504543429","0.3962725568","","","","","","","","","","","","","","72","H","0","img/none_selected.jpg","","87","main_expt",""
"","bandit","168","627269","0.0-129.0-0.0","46006718","wem/bandit_party_1","A326O3VWP8TO8N","either","4","739","","","","","","","0","0","1","","0.4571393315","0.2","0.8","0.6","0.4","0.4571393315","0.1132918069","0.05894337134","0.4038430626","","","","","","","","","","","","","","72","H","0","img/none_selected.jpg","","88","main_expt",""
"","bandit","169","628803","0.0-130.0-0.0","46006718","wem/bandit_party_1","A326O3VWP8TO8N","either","4","21","","","","","","","0","0","1","","0.4639779763","0.2","0.8","0.6","0.4","0.4639779763","0.1466354559","0.06803635399","0.4247877058","","","","","","","","","","","","","","72","H","0","img/none_selected.jpg","","89","main_expt",""
"","bandit","170","630453","0.0-131.0-0.0","46006718","wem/bandit_party_1","A326O3VWP8TO8N","either","4","135","","","","","","","1","0","0","0.1746819083","","0.2","0.8","0.6","0.4","","","","","0.4620017245","0.1746819083","0.09657856289","0.4196700557","","","","","","","","","","74","J","1","","","90","main_expt",""
"","bandit","171","631986","0.0-132.0-0.0","46006718","wem/bandit_party_1","A326O3VWP8TO8N","either","4","21","","","","","","","1","0","0","0.1864657318","","0.2","0.8","0.6","0.4","","","","","0.4492963398","0.1864657318","0.08522031428","0.401758082","","","","","","","","","","74","J","1","","","91","main_expt",""
"","bandit","172","633671","0.0-133.0-0.0","46006718","wem/bandit_party_1","A326O3VWP8TO8N","either","4","176","","","","","","","0","0","1","0.2124622091","","0.2","0.8","0.6","0.4","","","","","0.462009279","0.2124622091","0.07078380504","0.3422099147","","","","","","","","","","74","J","1","","","92","main_expt",""
"","bandit","173","635217","0.0-134.0-0.0","46006718","wem/bandit_party_1","A326O3VWP8TO8N","either","4","36","","","","","","","1","0","0","0.245786276","","0.2","0.8","0.6","0.4","","","","","0.4363090379","0.245786276","0.0564278809","0.3279059742","","","","","","","","","","74","J","1","","","93","main_expt",""
"","bandit","174","636864","0.0-135.0-0.0","46006718","wem/bandit_party_1","A326O3VWP8TO8N","either","4","128","","","","","","","0","0","1","0.2316759231","","0.2","0.8","0.6","0.4","","","","","0.4457519602","0.2316759231","0.06067733924","0.3155724737","","","","","","","","","","74","J","1","","","94","main_expt",""
"","bandit","175","638431","0.0-136.0-0.0","46006718","wem/bandit_party_1","A326O3VWP8TO8N","either","4","53","","","","","","","0","0","1","0.2231756969","","0.2","0.8","0.6","0.4","","","","","0.4231248902","0.2231756969","0.08632751489","0.3519625041","","","","","","","","","","74","J","1","","","95","main_expt",""
"","bandit","176","640117","0.0-137.0-0.0","46006718","wem/bandit_party_1","A326O3VWP8TO8N","either","4","172","","","","","","","0","0","1","","0.08481729553","0.2","0.8","0.6","0.4","0.4210676831","0.1957128212","0.08481729553","0.3661455107","","","","","","","","","","","","","","75","K","2","","","96","main_expt",""
"","bandit","177","641907","0.0-138.0-0.0","46006718","wem/bandit_party_1","A326O3VWP8TO8N","either","4","277","","","","","","","0","0","1","0.08386440452","","0.2","0.8","0.6","0.4","","","","","0.4022895305","0.1638116915","0.08386440452","0.3558031673","","","","","","","","","","75","K","2","","","97","main_expt",""
"","bandit","178","643507","0.0-139.0-0.0","46006718","wem/bandit_party_1","A326O3VWP8TO8N","either","4","91","","","","","","","0","0","1","0.0940701929","","0.2","0.8","0.6","0.4","","","","","0.4187351015","0.1405816365","0.0940701929","0.3558230887","","","","","","","","","","75","K","2","","","98","main_expt",""
"","bandit","179","645071","0.0-140.0-0.0","46006718","wem/bandit_party_1","A326O3VWP8TO8N","either","4","51","","","","","","","0","0","1","0.3064708089","","0.2","0.8","0.6","0.4","","","","","0.3981340028","0.1435678602","0.1285058524","0.3064708089","","","","","","","","","","76","L","3","","","99","main_expt",""
"","bandit","180","646603","0.0-141.0-0.0","46006718","wem/bandit_party_1","A326O3VWP8TO8N","either","4","23","","","","","","","0","0","1","","0.1478754355","0.2","0.8","0.6","0.4","0.3520446815","0.1478754355","0.065882019","0.352498313","","","","","","","","","","","","","","74","J","1","","","100","main_expt",""
"","bandit","181","648200","0.0-142.0-0.0","46006718","wem/bandit_party_1","A326O3VWP8TO8N","either","4","81","","","","","","","0","0","1","","0.1532559328","0.2","0.8","0.6","0.4","0.3715523215","0.1532559328","0.05692140794","0.3511810171","","","","","","","","","","","","","","74","J","1","","","101","main_expt",""
"","bandit","182","649814","0.0-143.0-0.0","46006718","wem/bandit_party_1","A326O3VWP8TO8N","either","4","97","","","","","","","0","0","1","","0.3966955113","0.2","0.8","0.6","0.4","0.3966955113","0.15857411","0.04322280369","0.3246867477","","","","","","","","","","","","","","72","H","0","img/none_selected.jpg","","102","main_expt",""
"","bandit","183","651355","0.0-144.0-0.0","46006718","wem/bandit_party_1","A326O3VWP8TO8N","either","4","32","","","","","","","0","1","0","","0.3865714765","0.2","0.8","0.6","0.4","0.3865714765","0.1552377357","0.05121437093","0.2827689756","","","","","","","","","","","","","","72","H","0","img/none_selected.jpg","","103","main_expt",""
"","bandit","184","653014","0.0-145.0-0.0","46006718","wem/bandit_party_1","A326O3VWP8TO8N","either","4","144","","","","","","","0","0","1","","0.3440646931","0.2","0.8","0.6","0.4","0.3440646931","0.1584193753","0.06548077564","0.3307995119","","","","","","","","","","","","","","72","H","0","img/none_selected.jpg","","104","main_expt",""
"","bandit","185","654552","0.0-146.0-0.0","46006718","wem/bandit_party_1","A326O3VWP8TO8N","either","4","24","","","","","","","0","0","1","","0.330981063","0.2","0.8","0.6","0.4","0.330981063","0.192058402","0.07577357845","0.3078297571","","","","","","","","","","","","","","72","H","0","img/none_selected.jpg","","105","main_expt",""
"","bandit","186","656429","0.0-147.0-0.0","46006718","wem/bandit_party_1","A326O3VWP8TO8N","either","4","366","","","","","","","0","1","0","","0.3317280627","0.2","0.8","0.6","0.4","0.3317280627","0.1562344916","0.09041352565","0.3202685942","","","","","","","","","","","","","","72","H","0","img/none_selected.jpg","","106","main_expt",""
"","bandit","187","658014","0.0-148.0-0.0","46006718","wem/bandit_party_1","A326O3VWP8TO8N","either","4","73","","","","","","","0","1","0","","0.2760665195","0.2","0.8","0.6","0.4","0.2760665195","0.1493116313","0.1184921167","0.3163418234","","","","","","","","","","","","","","72","H","0","img/none_selected.jpg","","107","main_expt",""
"","bandit","188","659827","0.0-149.0-0.0","46006718","wem/bandit_party_1","A326O3VWP8TO8N","either","4","300","","","","","","","0","1","0","","0.2826301941","0.2","0.8","0.6","0.4","0.2826301941","0.1357435498","0.1057615429","0.3425943818","","","","","","","","","","","","","","72","H","0","img/none_selected.jpg","","108","main_expt",""
"","bandit","189","661351","0.0-150.0-0.0","46006718","wem/bandit_party_1","A326O3VWP8TO8N","either","4","16","","","","","","","0","0","1","","0.318117281","0.2","0.8","0.6","0.4","0.318117281","0.1164074326","0.1464484126","0.2852030557","","","","","","","","","","","","","","72","H","0","img/none_selected.jpg","","109","main_expt",""
"","bandit","190","663316","0.0-151.0-0.0","46006718","wem/bandit_party_1","A326O3VWP8TO8N","either","4","452","","","","","","","0","0","1","","0.3358587519","0.2","0.8","0.6","0.4","0.3358587519","0.1444451916","0.1641354829","0.3392406975","","","","","","","","","","","","","","72","H","0","img/none_selected.jpg","","110","main_expt",""
"","bandit","191","665061","0.0-152.0-0.0","46006718","wem/bandit_party_1","A326O3VWP8TO8N","either","4","230","","","","","","","1","0","0","0.3031660534","","0.2","0.8","0.6","0.4","","","","","0.3031660534","0.09905323685","0.1386891192","0.3023411017","","","","","","","","","","72","H","0","img/none_selected.jpg","","111","main_expt",""
"","bandit","192","666686","0.0-153.0-0.0","46006718","wem/bandit_party_1","A326O3VWP8TO8N","either","4","110","","","","","","","0","0","1","0.2773548355","","0.2","0.8","0.6","0.4","","","","","0.2773548355","0.09652445584","0.1847512065","0.296849772","","","","","","","","","","72","H","0","img/none_selected.jpg","","112","main_expt",""
"","bandit","193","668405","0.0-154.0-0.0","46006718","wem/bandit_party_1","A326O3VWP8TO8N","either","4","203","","","","","","","0","1","0","","0.2370758425","0.2","0.8","0.6","0.4","0.2370758425","0.09961189632","0.1304555333","0.2673419259","","","","","","","","","","","","","","72","H","0","img/none_selected.jpg","","113","main_expt",""
"","bandit","194","670184","0.0-155.0-0.0","46006718","wem/bandit_party_1","A326O3VWP8TO8N","either","4","261","","","","","","","0","0","1","","0.1821928837","0.2","0.8","0.6","0.4","0.1821928837","0.1036139638","0.1770102637","0.2670531803","","","","","","","","","","","","","","72","H","0","img/none_selected.jpg","","114","main_expt",""
"","bandit","195","671753","0.0-156.0-0.0","46006718","wem/bandit_party_1","A326O3VWP8TO8N","either","4","54","","","","","","","0","0","1","","0.1315453283","0.2","0.8","0.6","0.4","0.1315453283","0.0968506792","0.1564651975","0.2825009356","","","","","","","","","","","","","","72","H","0","img/none_selected.jpg","","115","main_expt",""
"","bandit","196","673501","0.0-157.0-0.0","46006718","wem/bandit_party_1","A326O3VWP8TO8N","either","4","232","","","","","","","0","1","0","","0.3237719372","0.2","0.8","0.6","0.4","0.1102777544","0.08782875681","0.1665702367","0.3237719372","","","","","","","","","","","","","","76","L","3","","","116","main_expt",""
"","bandit","197","675123","0.0-158.0-0.0","46006718","wem/bandit_party_1","A326O3VWP8TO8N","either","4","110","","","","","","","0","0","1","0.3154846423","","0.2","0.8","0.6","0.4","","","","","0.1101610351","0.06031800864","0.1530687496","0.3154846423","","","","","","","","","","76","L","3","","","117","main_expt",""
"","bandit","198","676836","0.0-159.0-0.0","46006718","wem/bandit_party_1","A326O3VWP8TO8N","either","4","203","","","","","","","0","0","1","","0.2584508078","0.2","0.8","0.6","0.4","0.122460482","0.05633053331","0.1674206906","0.2584508078","","","","","","","","","","","","","","76","L","3","","","118","main_expt",""
"","bandit","199","678372","0.0-160.0-0.0","46006718","wem/bandit_party_1","A326O3VWP8TO8N","either","4","26","","","","","","","0","0","1","","0.2141905193","0.2","0.8","0.6","0.4","0.1451868924","0.07530514027","0.1990215448","0.2141905193","","","","","","","","","","","","","","76","L","3","","","119","main_expt",""
"","bandit","200","679908","0.0-161.0-0.0","46006718","wem/bandit_party_1","A326O3VWP8TO8N","either","4","25","","","","","","","0","1","0","","0.2341954374","0.2","0.8","0.6","0.4","0.09092593383","0.09639595661","0.2208640619","0.2341954374","","","","","","","","","","","","","","76","L","3","","","120","main_expt",""
"","bandit","201","681594","0.0-162.0-0.0","46006718","wem/bandit_party_1","A326O3VWP8TO8N","either","4","175","","","","","","","0","0","1","","0.1886372651","0.2","0.8","0.6","0.4","0.1080456108","0.1421799471","0.2602917539","0.1886372651","","","","","","","","","","","","","","76","L","3","","","121","main_expt",""
"","bandit","202","683163","0.0-163.0-0.0","46006718","wem/bandit_party_1","A326O3VWP8TO8N","either","4","56","","","","","","","0","0","1","0.1597592322","","0.2","0.8","0.6","0.4","","","","","0.1169053248","0.1624760489","0.2512498235","0.1597592322","","","","","","","","","","76","L","3","","","122","main_expt",""
"","bandit","203","684899","0.0-164.0-0.0","46006718","wem/bandit_party_1","A326O3VWP8TO8N","either","4","226","","","","","","","0","0","1","","0.1895266442","0.2","0.8","0.6","0.4","0.1571594809","0.1640214383","0.2266242761","0.1895266442","","","","","","","","","","","","","","76","L","3","","","123","main_expt",""
"","bandit","204","686661","0.0-165.0-0.0","46006718","wem/bandit_party_1","A326O3VWP8TO8N","either","4","248","","","","","","","0","0","1","","0.2042850732","0.2","0.8","0.6","0.4","0.2231804049","0.2014340991","0.2373824638","0.2042850732","","","","","","","","","","","","","","76","L","3","","","124","main_expt",""
"","bandit","205","688179","0.0-166.0-0.0","46006718","wem/bandit_party_1","A326O3VWP8TO8N","either","4","7","","","","","","","0","0","1","","0.2538727107","0.2","0.8","0.6","0.4","0.2232794356","0.2229229076","0.2538727107","0.1812515389","","","","","","","","","","","","","","75","K","2","","","125","main_expt",""
"","bandit","206","689814","0.0-167.0-0.0","46006718","wem/bandit_party_1","A326O3VWP8TO8N","either","4","119","","","","","","","0","0","1","","0.290219491","0.2","0.8","0.6","0.4","0.2316903634","0.2324712723","0.290219491","0.1694736183","","","","","","","","","","","","","","75","K","2","","","126","main_expt",""
"","bandit","207","691357","0.0-168.0-0.0","46006718","wem/bandit_party_1","A326O3VWP8TO8N","either","4","31","","","","","","","0","0","1","","0.2542505169","0.2","0.8","0.6","0.4","0.2337524142","0.2628391623","0.2542505169","0.1624528765","","","","","","","","","","","","","","75","K","2","","","127","main_expt",""
"","bandit","208","693019","0.0-169.0-0.0","46006718","wem/bandit_party_1","A326O3VWP8TO8N","either","4","150","","","","","","","0","0","1","0.2582316027","","0.2","0.8","0.6","0.4","","","","","0.2198210178","0.2654356302","0.2582316027","0.1632982916","","","","","","","","","","75","K","2","","","128","main_expt",""
"","bandit","209","694588","0.0-170.0-0.0","46006718","wem/bandit_party_1","A326O3VWP8TO8N","either","4","58","","","","","","","0","0","1","0.2070569149","","0.2","0.8","0.6","0.4","","","","","0.2280168395","0.2070569149","0.3267566011","0.2264598068","","","","","","","","","","74","J","1","","","129","main_expt",""
"","bandit","210","696242","0.0-171.0-0.0","46006718","wem/bandit_party_1","A326O3VWP8TO8N","either","4","142","","","","","","","0","0","1","","0.2579182239","0.2","0.8","0.6","0.4","0.243895296","0.2579182239","0.3323271388","0.202760285","","","","","","","","","","","","","","74","J","1","","","130","main_expt",""
"","bandit","211","697994","0.0-172.0-0.0","46006718","wem/bandit_party_1","A326O3VWP8TO8N","either","4","241","","","","","","","0","1","0","","0.2329110821","0.2","0.8","0.6","0.4","0.2164454501","0.2329110821","0.2666668646","0.1585094705","","","","","","","","","","","","","","74","J","1","","","131","main_expt",""
"","bandit","212","699688","0.0-173.0-0.0","46006718","wem/bandit_party_1","A326O3VWP8TO8N","either","4","182","","","","","","","0","0","1","0.2400232435","","0.2","0.8","0.6","0.4","","","","","0.200468731","0.2400232435","0.2359119393","0.1304261544","","","","","","","","","","74","J","1","","","132","main_expt",""
"","bandit","213","701932","0.0-174.0-0.0","46006718","wem/bandit_party_1","A326O3VWP8TO8N","either","4","726","","","","","","","0","0","1","0.2084798617","","0.2","0.8","0.6","0.4","","","","","0.2038597077","0.2084798617","0.2540740643","0.09339990826","","","","","","","","","","74","J","1","","","133","main_expt",""
"","bandit","214","703633","0.0-175.0-0.0","46006718","wem/bandit_party_1","A326O3VWP8TO8N","either","4","189","","","","","","","0","0","1","0.2034544","","0.2","0.8","0.6","0.4","","","","","0.2263269307","0.2034544","0.2414927735","0.08524612959","","","","","","","","","","74","J","1","","","134","main_expt",""
"","bandit","215","705320","0.0-176.0-0.0","46006718","wem/bandit_party_1","A326O3VWP8TO8N","either","4","174","","","","","","","0","0","1","0.2088958693","","0.2","0.8","0.6","0.4","","","","","0.2686469146","0.2088958693","0.2632369982","0.0622033461","","","","","","","","","","74","J","1","","","135","main_expt",""
"","bandit","216","706928","0.0-177.0-0.0","46006718","wem/bandit_party_1","A326O3VWP8TO8N","either","4","96","","","","","","","0","1","0","","0.3170393738","0.2","0.8","0.6","0.4","0.3170393738","0.2573758916","0.3032623762","0.05632890875","","","","","","","","","","","","","","72","H","0","img/none_selected.jpg","","136","main_expt",""
"","bandit","217","708678","0.0-178.0-0.0","46006718","wem/bandit_party_1","A326O3VWP8TO8N","either","4","238","","","","","","","0","0","1","","0.338962466","0.2","0.8","0.6","0.4","0.338962466","0.2467438462","0.2984046037","0.06052980877","","","","","","","","","","","","","","72","H","0","img/none_selected.jpg","","137","main_expt",""
"","bandit","218","710338","0.0-179.0-0.0","46006718","wem/bandit_party_1","A326O3VWP8TO8N","either","4","143","","","","","","","0","0","1","0.3586643031","","0.2","0.8","0.6","0.4","","","","","0.3586643031","0.2221944767","0.3110629865","0.1038497792","","","","","","","","","","72","H","0","img/none_selected.jpg","","138","main_expt",""
"","bandit","219","711947","0.0-180.0-0.0","46006718","wem/bandit_party_1","A326O3VWP8TO8N","either","4","93","","","","","","","0","1","0","","0.3430902759","0.2","0.8","0.6","0.4","0.3430902759","0.2750517365","0.3048373826","0.08561062373","","","","","","","","","","","","","","72","H","0","img/none_selected.jpg","","139","main_expt",""
"","bandit","220","713618","0.0-181.0-0.0","46006718","wem/bandit_party_1","A326O3VWP8TO8N","either","4","157","","","","","","","0","0","1","","0.3777112835","0.2","0.8","0.6","0.4","0.3777112835","0.277474309","0.3163642845","0.08025295029","","","","","","","","","","","","","","72","H","0","img/none_selected.jpg","","140","main_expt",""
"","bandit","221","715147","0.0-182.0-0.0","46006718","wem/bandit_party_1","A326O3VWP8TO8N","either","4","15","","","","","","","0","0","1","","0.4276051364","0.2","0.8","0.6","0.4","0.4276051364","0.2932007391","0.2213861514","0.09309891757","","","","","","","","","","","","","","72","H","0","img/none_selected.jpg","","141","main_expt",""
"","bandit","222","716686","0.0-183.0-0.0","46006718","wem/bandit_party_1","A326O3VWP8TO8N","either","4","30","","","","","","","0","0","1","","0.4312347149","0.2","0.8","0.6","0.4","0.4312347149","0.3001807938","0.2492613222","0.1107976638","","","","","","","","","","","","","","72","H","0","img/none_selected.jpg","","142","main_expt",""
"","bandit","223","718397","0.0-184.0-0.0","46006718","wem/bandit_party_1","A326O3VWP8TO8N","either","4","200","","","","","","","0","0","1","","0.386657586","0.2","0.8","0.6","0.4","0.386657586","0.3640878437","0.2645663874","0.09575525052","","","","","","","","","","","","","","72","H","0","img/none_selected.jpg","","143","main_expt",""
"","bandit","224","720135","0.0-185.0-0.0","46006718","wem/bandit_party_1","A326O3VWP8TO8N","either","4","224","","","","","","","0","1","0","","0.3409851627","0.2","0.8","0.6","0.4","0.3409851627","0.2706796495","0.2928215939","0.07222794989","","","","","","","","","","","","","","72","H","0","img/none_selected.jpg","","144","main_expt",""
"","bandit","225","721825","0.0-186.0-0.0","46006718","wem/bandit_party_1","A326O3VWP8TO8N","either","4","177","","","","","","","0","0","1","","0.3538709708","0.2","0.8","0.6","0.4","0.3538709708","0.2359726437","0.3178979655","0.03203798906","","","","","","","","","","","","","","72","H","0","img/none_selected.jpg","","145","main_expt",""
"","bandit","226","723452","0.0-187.0-0.0","46006718","wem/bandit_party_1","A326O3VWP8TO8N","either","4","117","","","","","","","0","0","1","","0.2745956728","0.2","0.8","0.6","0.4","0.2745956728","0.2200332621","0.2850957273","0.03073079809","","","","","","","","","","","","","","72","H","0","img/none_selected.jpg","","146","main_expt",""
"","bandit","227","725327","0.0-188.0-0.0","46006718","wem/bandit_party_1","A326O3VWP8TO8N","either","4","363","","","","","","","0","1","0","","0.2375793476","0.2","0.8","0.6","0.4","0.2375793476","0.1957794229","0.2483519338","0.05105424151","","","","","","","","","","","","","","72","H","0","img/none_selected.jpg","","147","main_expt",""
"","bandit","228","727035","0.0-189.0-0.0","46006718","wem/bandit_party_1","A326O3VWP8TO8N","either","4","190","","","","","","","0","0","1","","0.2954602587","0.2","0.8","0.6","0.4","0.2954602587","0.1790722045","0.2309770791","0.04045355104","","","","","","","","","","","","","","72","H","0","img/none_selected.jpg","","148","main_expt",""
"","bandit","229","728559","0.0-190.0-0.0","46006718","wem/bandit_party_1","A326O3VWP8TO8N","either","4","14","","","","","","","0","1","0","","0.3435099865","0.2","0.8","0.6","0.4","0.3435099865","0.2189150546","0.1759049641","0.06416506337","","","","","","","","","","","","","","72","H","0","img/none_selected.jpg","","149","main_expt",""
"","bandit","230","730263","0.0-191.0-0.0","46006718","wem/bandit_party_1","A326O3VWP8TO8N","either","4","191","","","","","","","0","0","1","","0.268900415","0.2","0.8","0.6","0.4","0.268900415","0.2119229637","0.1910702346","0.07819388902","","","","","","","","","","","","","","72","H","0","img/none_selected.jpg","","150","main_expt",""
"","bandit","231","732614","0.0-192.0-0.0","46006718","wem/bandit_party_1","A326O3VWP8TO8N","either","4","838","","","","","","","0","1","0","","0.2326488896","0.2","0.8","0.6","0.4","0.2326488896","0.2472398003","0.1799178466","0.1186979887","","","","","","","","","","","","","","72","H","0","img/none_selected.jpg","","151","main_expt",""
"","bandit","232","734144","0.0-193.0-0.0","46006718","wem/bandit_party_1","A326O3VWP8TO8N","either","4","19","","","","","","","0","0","1","","0.2768057641","0.2","0.8","0.6","0.4","0.2768057641","0.2148428051","0.1826140084","0.1084773402","","","","","","","","","","","","","","72","H","0","img/none_selected.jpg","","152","main_expt",""
"","bandit","233","736123","0.0-194.0-0.0","46006718","wem/bandit_party_1","A326O3VWP8TO8N","either","4","465","","","","","","","1","0","0","0.1314289417","","0.2","0.8","0.6","0.4","","","","","0.2997660112","0.1598057249","0.147924298","0.1314289417","","","","","","","","","","76","L","3","","","153","main_expt",""
"","bandit","234","737699","0.0-195.0-0.0","46006718","wem/bandit_party_1","A326O3VWP8TO8N","either","4","62","","","","","","","0","0","1","","0.1354051011","0.2","0.8","0.6","0.4","0.3196464983","0.1489099923","0.1388357139","0.1354051011","","","","","","","","","","","","","","76","L","3","","","154","main_expt",""
"","bandit","235","739279","0.0-196.0-0.0","46006718","wem/bandit_party_1","A326O3VWP8TO8N","either","4","67","","","","","","","0","1","0","","0.1085215933","0.2","0.8","0.6","0.4","0.3141654429","0.1502541116","0.1658398244","0.1085215933","","","","","","","","","","","","","","76","L","3","","","155","main_expt",""
"","bandit","236","740862","0.0-197.0-0.0","46006718","wem/bandit_party_1","A326O3VWP8TO8N","either","4","73","","","","","","","0","1","0","","0.1383379057","0.2","0.8","0.6","0.4","0.2667217688","0.1605084188","0.1104921729","0.1383379057","","","","","","","","","","","","","","76","L","3","","","156","main_expt",""
"","bandit","237","742459","0.0-198.0-0.0","46006718","wem/bandit_party_1","A326O3VWP8TO8N","either","4","79","","","","","","","0","0","1","0.1428990181","","0.2","0.8","0.6","0.4","","","","","0.2867075714","0.1684101418","0.09530810267","0.1428990181","","","","","","","","","","76","L","3","","","157","main_expt",""
"","bandit","238","744073","0.0-199.0-0.0","46006718","wem/bandit_party_1","A326O3VWP8TO8N","either","4","101","","","","","","","0","0","1","0.07455979893","","0.2","0.8","0.6","0.4","","","","","0.2788639118","0.1807688322","0.1211627972","0.07455979893","","","","","","","","","","76","L","3","","","158","main_expt",""
"","bandit","239","745693","0.0-200.0-0.0","46006718","wem/bandit_party_1","A326O3VWP8TO8N","either","4","112","","","","","","","0","0","1","","0.1009372764","0.2","0.8","0.6","0.4","0.3020710819","0.1516426412","0.1012897464","0.1009372764","","","","","","","","","","","","","","76","L","3","","","159","main_expt",""
"","bandit","240","747206","0.0-201.0-0.0","46006718","wem/bandit_party_1","A326O3VWP8TO8N","either","4","0","","","","","","","0","0","1","","0.05118862797","0.2","0.8","0.6","0.4","0.3404227007","0.1638698877","0.1188035868","0.05118862797","","","","","","","","","","","","","","76","L","3","","","160","main_expt",""
"","bandit","241","749132","0.0-202.0-0.0","46006718","wem/bandit_party_1","A326O3VWP8TO8N","either","4","415","","","","","","","1","0","0","0.1606836622","","0.2","0.8","0.6","0.4","","","","","0.2876249865","0.1645359983","0.1606836622","0.05265847637","","","","","","","","","","75","K","2","","","161","main_expt",""
"","bandit","242","750721","0.0-203.0-0.0","46006718","wem/bandit_party_1","A326O3VWP8TO8N","either","4","76","","","","","","","1","0","0","0.1859884171","","0.2","0.8","0.6","0.4","","","","","0.2401308511","0.2509918509","0.1859884171","0.07938684611","","","","","","","","","","75","K","2","","","162","main_expt",""
"","bandit","243","752388","0.0-204.0-0.0","46006718","wem/bandit_party_1","A326O3VWP8TO8N","either","4","155","","","","","","","0","0","1","0.2528258464","","0.2","0.8","0.6","0.4","","","","","0.2486605046","0.1883685458","0.2528258464","0.0970900163","","","","","","","","","","75","K","2","","","163","main_expt",""
"","bandit","244","754013","0.0-205.0-0.0","46006718","wem/bandit_party_1","A326O3VWP8TO8N","either","4","114","","","","","","","1","0","0","0.2515292425","","0.2","0.8","0.6","0.4","","","","","0.22675384","0.2179532334","0.2515292425","0.07401968201","","","","","","","","","","75","K","2","","","164","main_expt",""
"","bandit","245","756385","0.0-206.0-0.0","46006718","wem/bandit_party_1","A326O3VWP8TO8N","either","4","856","","","","","","","1","0","0","0.2068970429","","0.2","0.8","0.6","0.4","","","","","0.2841151948","0.2143704678","0.2068970429","0.06633104104","","","","","","","","","","75","K","2","","","165","main_expt",""
"","bandit","246","758181","0.0-207.0-0.0","46006718","wem/bandit_party_1","A326O3VWP8TO8N","either","4","280","","","","","","","0","0","1","0.1413778631","","0.2","0.8","0.6","0.4","","","","","0.2842980464","0.2175899085","0.1413778631","0.05309652092","","","","","","","","","","75","K","2","","","166","main_expt",""
"","bandit","247","761430","0.0-208.0-0.0","46006718","wem/bandit_party_1","A326O3VWP8TO8N","either","4","1738","","","","","","","0","0","1","","0.1999497975","0.2","0.8","0.6","0.4","0.3007590714","0.2137120923","0.1999497975","0.07357446968","","","","","","","","","","","","","","75","K","2","","","167","main_expt",""
"","bandit","248","766217","0.0-209.0-0.0","46006718","wem/bandit_party_1","A326O3VWP8TO8N","either","4","3272","","","","","","","0","0","1","","0.1696145944","0.2","0.8","0.6","0.4","0.2884936601","0.2331560811","0.1696145944","0.1054325378","","","","","","","","","","","","","","75","K","2","","","168","main_expt",""
"","bandit","249","769803","0.0-210.0-0.0","46006718","wem/bandit_party_1","A326O3VWP8TO8N","either","4","2075","","","","","","","0","0","1","","0.1338518967","0.2","0.8","0.6","0.4","0.2803439438","0.2367963754","0.1338518967","0.08536867429","","","","","","","","","","","","","","75","K","2","","","169","main_expt",""
"","bandit","250","771763","0.0-211.0-0.0","46006718","wem/bandit_party_1","A326O3VWP8TO8N","either","4","450","","","","","","","0","0","1","0.1307598277","","0.2","0.8","0.6","0.4","","","","","0.3010437192","0.2378050175","0.1307598277","0.1083432756","","","","","","","","","","75","K","2","","","170","main_expt",""
"","bandit","251","773368","0.0-212.0-0.0","46006718","wem/bandit_party_1","A326O3VWP8TO8N","either","4","89","","","","","","","0","0","1","","0.3243802095","0.2","0.8","0.6","0.4","0.3243802095","0.2253696972","0.1200375331","0.09185370626","","","","","","","","","","","","","","72","H","0","img/none_selected.jpg","","171","main_expt",""
"","bandit","252","775012","0.0-213.0-0.0","46006718","wem/bandit_party_1","A326O3VWP8TO8N","either","4","132","","","","","","","0","1","0","","0.3140094691","0.2","0.8","0.6","0.4","0.3140094691","0.2903394368","0.07514546963","0.09458096772","","","","","","","","","","","","","","72","H","0","img/none_selected.jpg","","172","main_expt",""
"","bandit","253","776596","0.0-214.0-0.0","46006718","wem/bandit_party_1","A326O3VWP8TO8N","either","4","70","","","","","","","1","0","0","0.2433770114","","0.2","0.8","0.6","0.4","","","","","0.2433770114","0.2384828248","0.07704486673","0.1016296913","","","","","","","","","","72","H","0","img/none_selected.jpg","","173","main_expt",""
"","bandit","254","778172","0.0-215.0-0.0","46006718","wem/bandit_party_1","A326O3VWP8TO8N","either","4","66","","","","","","","0","0","1","","0.2080779891","0.2","0.8","0.6","0.4","0.2080779891","0.2823111034","0.04061738922","0.117107939","","","","","","","","","","","","","","72","H","0","img/none_selected.jpg","","174","main_expt",""
"","bandit","255","781635","0.0-216.0-0.0","46006718","wem/bandit_party_1","A326O3VWP8TO8N","either","4","1954","","","","","","","0","1","0","","0.2211365803","0.2","0.8","0.6","0.4","0.2211365803","0.292147578","0.02968316822","0.1254773658","","","","","","","","","","","","","","72","H","0","img/none_selected.jpg","","175","main_expt",""
"","bandit","256","783189","0.0-217.0-0.0","46006718","wem/bandit_party_1","A326O3VWP8TO8N","either","4","40","","","","","","","0","0","1","","0.231280906","0.2","0.8","0.6","0.4","0.231280906","0.2928295457","0.04419366322","0.1518856622","","","","","","","","","","","","","","72","H","0","img/none_selected.jpg","","176","main_expt",""
"","bandit","257","784875","0.0-218.0-0.0","46006718","wem/bandit_party_1","A326O3VWP8TO8N","either","4","175","","","","","","","0","0","1","","0.1689881391","0.2","0.8","0.6","0.4","0.1689881391","0.297241693","0.04140429262","0.1502483312","","","","","","","","","","","","","","72","H","0","img/none_selected.jpg","","177","main_expt",""
"","bandit","258","786988","0.0-219.0-0.0","46006718","wem/bandit_party_1","A326O3VWP8TO8N","either","4","602","","","","","","","0","0","1","0.276241128","","0.2","0.8","0.6","0.4","","","","","0.1699404395","0.276241128","0.06103489621","0.2073149786","","","","","","","","","","74","J","1","","","178","main_expt",""
"","bandit","259","788612","0.0-220.0-0.0","46006718","wem/bandit_party_1","A326O3VWP8TO8N","either","4","113","","","","","","","0","0","1","0.2405339857","","0.2","0.8","0.6","0.4","","","","","0.1571972967","0.2405339857","0.053608248","0.1928578162","","","","","","","","","","74","J","1","","","179","main_expt",""
"","bandit","260","790249","0.0-221.0-0.0","46006718","wem/bandit_party_1","A326O3VWP8TO8N","either","4","123","","","","","","","0","0","1","","0.233428307","0.2","0.8","0.6","0.4","0.1567782565","0.233428307","0.06289379635","0.1412953234","","","","","","","","","","","","","","74","J","1","","","180","main_expt",""
"","bandit","261","793906","0.0-222.0-0.0","46006718","wem/bandit_party_1","A326O3VWP8TO8N","either","4","2145","","","","","","","0","0","1","","0.1258774719","0.2","0.8","0.6","0.4","0.1492691696","0.1459310114","0.07748386732","0.1258774719","","","","","","","","","","","","","","76","L","3","","","181","main_expt",""
"","bandit","262","795565","0.0-223.0-0.0","46006718","wem/bandit_party_1","A326O3VWP8TO8N","either","4","147","","","","","","","0","0","1","0.1121960069","","0.2","0.8","0.6","0.4","","","","","0.1609613705","0.1796360657","0.096714051","0.1121960069","","","","","","","","","","76","L","3","","","182","main_expt",""
"","bandit","263","797221","0.0-224.0-0.0","46006718","wem/bandit_party_1","A326O3VWP8TO8N","either","4","145","","","","","","","0","0","1","0.08335286121","","0.2","0.8","0.6","0.4","","","","","0.1982891881","0.1907874973","0.05351369794","0.08335286121","","","","","","","","","","76","L","3","","","183","main_expt",""
"","bandit","264","799112","0.0-225.0-0.0","46006718","wem/bandit_party_1","A326O3VWP8TO8N","either","4","370","","","","","","","0","0","1","0.1085923678","","0.2","0.8","0.6","0.4","","","","","0.1703318442","0.1451627339","0.08854511538","0.1085923678","","","","","","","","","","76","L","3","","","184","main_expt",""
"","bandit","265","800631","0.0-226.0-0.0","46006718","wem/bandit_party_1","A326O3VWP8TO8N","either","4","5","","","","","","","0","0","1","","0.09566746086","0.2","0.8","0.6","0.4","0.09566746086","0.1692531577","0.136385666","0.1113654269","","","","","","","","","","","","","","72","H","0","img/none_selected.jpg","","185","main_expt",""
"","bandit","266","802253","0.0-227.0-0.0","46006718","wem/bandit_party_1","A326O3VWP8TO8N","either","4","111","","","","","","","0","0","1","","0.1254261761","0.2","0.8","0.6","0.4","0.1254261761","0.1885113298","0.1848043888","0.1383531569","","","","","","","","","","","","","","72","H","0","img/none_selected.jpg","","186","main_expt",""
"","bandit","267","803907","0.0-228.0-0.0","46006718","wem/bandit_party_1","A326O3VWP8TO8N","either","4","145","","","","","","","1","0","0","0.1640989128","","0.2","0.8","0.6","0.4","","","","","0.1081798115","0.2088125345","0.1640989128","0.1739713275","","","","","","","","","","75","K","2","","","187","main_expt",""
"","bandit","268","805592","0.0-229.0-0.0","46006718","wem/bandit_party_1","A326O3VWP8TO8N","either","4","169","","","","","","","0","0","1","0.1301402021","","0.2","0.8","0.6","0.4","","","","","0.08529062399","0.2228369986","0.1301402021","0.1926366302","","","","","","","","","","75","K","2","","","188","main_expt",""
"","bandit","269","807172","0.0-230.0-0.0","46006718","wem/bandit_party_1","A326O3VWP8TO8N","either","4","66","","","","","","","0","0","1","","0.1980942663","0.2","0.8","0.6","0.4","0.07250281893","0.2567428292","0.1980942663","0.2499935398","","","","","","","","","","","","","","75","K","2","","","189","main_expt",""
"","bandit","270","809640","0.0-231.0-0.0","46006718","wem/bandit_party_1","A326O3VWP8TO8N","either","4","952","","","","","","","0","0","1","0.1842725295","","0.2","0.8","0.6","0.4","","","","","0.07895395147","0.3177850294","0.1842725295","0.2367317824","","","","","","","","","","75","K","2","","","190","main_expt",""
"","bandit","271","811694","0.0-232.0-0.0","46006718","wem/bandit_party_1","A326O3VWP8TO8N","either","4","539","","","","","","","0","1","0","","0.2087081259","0.2","0.8","0.6","0.4","0.06204701637","0.2876912335","0.2087081259","0.2515026666","","","","","","","","","","","","","","75","K","2","","","191","main_expt",""
"","bandit","272","813470","0.0-233.0-0.0","46006718","wem/bandit_party_1","A326O3VWP8TO8N","either","4","261","","","","","","","0","0","1","","0.1800110976","0.2","0.8","0.6","0.4","0.064067899","0.2383873749","0.1800110976","0.2451916405","","","","","","","","","","","","","","75","K","2","","","192","main_expt",""
"","bandit","273","815066","0.0-234.0-0.0","46006718","wem/bandit_party_1","A326O3VWP8TO8N","either","4","86","","","","","","","0","0","1","0.1519186298","","0.2","0.8","0.6","0.4","","","","","0.1286650472","0.24690957","0.1519186298","0.2353451433","","","","","","","","","","75","K","2","","","193","main_expt",""
"","bandit","274","817518","0.0-235.0-0.0","46006718","wem/bandit_party_1","A326O3VWP8TO8N","either","4","936","","","","","","","0","0","1","","0.1746490116","0.2","0.8","0.6","0.4","0.1746490116","0.2728455101","0.1431656489","0.307075739","","","","","","","","","","","","","","72","H","0","img/none_selected.jpg","","194","main_expt",""
"","bandit","275","819319","0.0-236.0-0.0","46006718","wem/bandit_party_1","A326O3VWP8TO8N","either","4","288","","","","","","","0","0","1","","0.129035247","0.2","0.8","0.6","0.4","0.129035247","0.2421292151","0.1868251083","0.3011001907","","","","","","","","","","","","","","72","H","0","img/none_selected.jpg","","195","main_expt",""
"","bandit","276","821375","0.0-237.0-0.0","46006718","wem/bandit_party_1","A326O3VWP8TO8N","either","4","544","","","","","","","0","0","1","","0.09052040682","0.2","0.8","0.6","0.4","0.09052040682","0.2598052724","0.176624335","0.2861216794","","","","","","","","","","","","","","72","H","0","img/none_selected.jpg","","196","main_expt",""
"","bandit","277","823198","0.0-238.0-0.0","46006718","wem/bandit_party_1","A326O3VWP8TO8N","either","4","313","","","","","","","0","0","1","","0.2383323772","0.2","0.8","0.6","0.4","0.08675464884","0.2540930088","0.2383323772","0.2121549007","","","","","","","","","","","","","","75","K","2","","","197","main_expt",""
"","bandit","278","824830","0.0-239.0-0.0","46006718","wem/bandit_party_1","A326O3VWP8TO8N","either","4","119","","","","","","","0","0","1","0.260340052","","0.2","0.8","0.6","0.4","","","","","0.09429549835","0.2460150375","0.260618614","0.260340052","","","","","","","","","","76","L","3","","","198","main_expt",""
"","bandit","279","828191","0.0-240.0-0.0","46006718","wem/bandit_party_1","A326O3VWP8TO8N","either","4","1846","","","","","","","0","1","0","","0.3009562829","0.2","0.8","0.6","0.4","0.09303778716","0.2217343644","0.2935067364","0.3009562829","","","","","","","","","","","","","","76","L","3","","","199","main_expt",""
"","bandit","280","829756","0.0-241.0-0.0","46006718","wem/bandit_party_1","A326O3VWP8TO8N","either","4","56","","","","","","","0","0","1","","0.3430896668","0.2","0.8","0.6","0.4","0.07354084322","0.2830302048","0.362920627","0.3430896668","","","","","","","","","","","","","","76","L","3","","","200","main_expt",""
"","bandit","281","831334","0.0-242.0-0.0","46006718","wem/bandit_party_1","A326O3VWP8TO8N","either","4","63","","","","","","","0","0","1","","0.2973668079","0.2","0.8","0.6","0.4","0.08115367452","0.3175621279","0.3119044903","0.2973668079","","","","","","","","","","","","","","76","L","3","","","201","main_expt",""
"","bandit","282","832879","0.0-243.0-0.0","46006718","wem/bandit_party_1","A326O3VWP8TO8N","either","4","33","","","","","","","0","0","1","","0.3219337599","0.2","0.8","0.6","0.4","0.0774842685","0.3049471546","0.3095695708","0.3219337599","","","","","","","","","","","","","","76","L","3","","","202","main_expt",""
"","bandit","283","834951","0.0-244.0-0.0","46006718","wem/bandit_party_1","A326O3VWP8TO8N","either","4","559","","","","","","","0","1","0","","0.3229991028","0.2","0.8","0.6","0.4","0.09704724367","0.2975042969","0.3005459379","0.3229991028","","","","","","","","","","","","","","76","L","3","","","203","main_expt",""
"","bandit","284","836540","0.0-245.0-0.0","46006718","wem/bandit_party_1","A326O3VWP8TO8N","either","4","76","","","","","","","1","0","0","0.3077995671","","0.2","0.8","0.6","0.4","","","","","0.1224111047","0.2268457719","0.3116824409","0.3077995671","","","","","","","","","","76","L","3","","","204","main_expt",""
"","bandit","285","838198","0.0-246.0-0.0","46006718","wem/bandit_party_1","A326O3VWP8TO8N","either","4","146","","","","","","","0","0","1","0.3070199156","","0.2","0.8","0.6","0.4","","","","","0.1627664319","0.2582085449","0.3291635812","0.3070199156","","","","","","","","","","76","L","3","","","205","main_expt",""
"","bandit","286","839765","0.0-247.0-0.0","46006718","wem/bandit_party_1","A326O3VWP8TO8N","either","4","57","","","","","","","0","0","1","","0.3109683939","0.2","0.8","0.6","0.4","0.1604236747","0.2841247045","0.4008790519","0.3109683939","","","","","","","","","","","","","","76","L","3","","","206","main_expt",""
"","bandit","287","841365","0.0-248.0-0.0","46006718","wem/bandit_party_1","A326O3VWP8TO8N","either","4","87","","","","","","","0","0","1","","0.2845075958","0.2","0.8","0.6","0.4","0.126388554","0.3333225396","0.4202180382","0.2845075958","","","","","","","","","","","","","","76","L","3","","","207","main_expt",""
"","bandit","288","843070","0.0-249.0-0.0","46006718","wem/bandit_party_1","A326O3VWP8TO8N","either","4","188","","","","","","","0","0","1","","0.2419557814","0.2","0.8","0.6","0.4","0.1602309633","0.290219871","0.4168586074","0.2419557814","","","","","","","","","","","","","","76","L","3","","","208","main_expt",""
"","bandit","289","844702","0.0-250.0-0.0","46006718","wem/bandit_party_1","A326O3VWP8TO8N","either","4","120","","","","","","","0","0","1","0.3426384504","","0.2","0.8","0.6","0.4","","","","","0.2009997365","0.3426384504","0.3949328033","0.2449545816","","","","","","","","","","74","J","1","","","209","main_expt",""
"","bandit","290","846270","0.0-251.0-0.0","46006718","wem/bandit_party_1","A326O3VWP8TO8N","either","4","56","","","","","","","0","0","1","0.2932754766","","0.2","0.8","0.6","0.4","","","","","0.1997114924","0.2932754766","0.41782505","0.2176860071","","","","","","","","","","74","J","1","","","210","main_expt",""
"","bandit","291","847812","0.0-252.0-0.0","46006718","wem/bandit_party_1","A326O3VWP8TO8N","either","4","33","","","","","","","0","0","1","0.2522206247","","0.2","0.8","0.6","0.4","","","","","0.2631807131","0.2522206247","0.4377941382","0.2460847292","","","","","","","","","","74","J","1","","","211","main_expt",""
"","bandit","292","849463","0.0-253.0-0.0","46006718","wem/bandit_party_1","A326O3VWP8TO8N","either","4","138","","","","","","","0","1","0","","0.2008991105","0.2","0.8","0.6","0.4","0.2008991105","0.2323705111","0.4619006446","0.2017704833","","","","","","","","","","","","","","72","H","0","img/none_selected.jpg","","212","main_expt",""
"","bandit","293","851009","0.0-254.0-0.0","46006718","wem/bandit_party_1","A326O3VWP8TO8N","either","4","32","","","","","","","0","0","1","","0.1656487101","0.2","0.8","0.6","0.4","0.1656487101","0.2815580385","0.4508737721","0.1891715169","","","","","","","","","","","","","","72","H","0","img/none_selected.jpg","","213","main_expt",""
"","bandit","294","852859","0.0-255.0-0.0","46006718","wem/bandit_party_1","A326O3VWP8TO8N","either","4","339","","","","","","","0","0","1","0.213788386","","0.2","0.8","0.6","0.4","","","","","0.213788386","0.2955812139","0.4639731149","0.1819308411","","","","","","","","","","72","H","0","img/none_selected.jpg","","214","main_expt",""
"","bandit","295","854694","0.0-256.0-0.0","46006718","wem/bandit_party_1","A326O3VWP8TO8N","either","4","320","","","","","","","0","0","1","","0.2206736926","0.2","0.8","0.6","0.4","0.2206736926","0.2988647484","0.4690757113","0.1406935411","","","","","","","","","","","","","","72","H","0","img/none_selected.jpg","","215","main_expt",""
"","bandit","296","856566","0.0-257.0-0.0","46006718","wem/bandit_party_1","A326O3VWP8TO8N","either","4","362","","","","","","","0","0","1","0.2270120675","","0.2","0.8","0.6","0.4","","","","","0.2270120675","0.3361974059","0.4685680314","0.206739756","","","","","","","","","","72","H","0","img/none_selected.jpg","","216","main_expt",""
"","bandit","297","858339","0.0-258.0-0.0","46006718","wem/bandit_party_1","A326O3VWP8TO8N","either","4","265","","","","","","","0","0","1","","0.2561581829","0.2","0.8","0.6","0.4","0.2561581829","0.2764506131","0.4873952874","0.178624692","","","","","","","","","","","","","","72","H","0","img/none_selected.jpg","","217","main_expt",""
"","bandit","298","859949","0.0-259.0-0.0","46006718","wem/bandit_party_1","A326O3VWP8TO8N","either","4","93","","","","","","","0","0","1","","0.2785758431","0.2","0.8","0.6","0.4","0.2785758431","0.299893698","0.4790671899","0.2021641755","","","","","","","","","","","","","","72","H","0","img/none_selected.jpg","","218","main_expt",""
"","bandit","299","861665","0.0-260.0-0.0","46006718","wem/bandit_party_1","A326O3VWP8TO8N","either","4","205","","","","","","","0","0","1","0.4769795117","","0.2","0.8","0.6","0.4","","","","","0.2707863597","0.3213687962","0.4769795117","0.2076996705","","","","","","","","","","75","K","2","","","219","main_expt",""
"","bandit","300","863367","0.0-261.0-0.0","46006718","wem/bandit_party_1","A326O3VWP8TO8N","either","4","183","","","","","","","1","0","0","0.4746148145","","0.2","0.8","0.6","0.4","","","","","0.2262269101","0.3782095139","0.4746148145","0.2479045362","","","","","","","","","","75","K","2","","","220","main_expt",""
"","bandit","301","864891","0.0-262.0-0.0","46006718","wem/bandit_party_1","A326O3VWP8TO8N","either","4","11","","","","","","","1","0","0","0.4789253058","","0.2","0.8","0.6","0.4","","","","","0.2522421151","0.3572699546","0.4789253058","0.251163546","","","","","","","","","","75","K","2","","","221","main_expt",""
"","bandit","302","866509","0.0-263.0-0.0","46006718","wem/bandit_party_1","A326O3VWP8TO8N","either","4","104","","","","","","","0","0","1","0.4765400837","","0.2","0.8","0.6","0.4","","","","","0.2323100388","0.332217079","0.4765400837","0.2653622565","","","","","","","","","","75","K","2","","","222","main_expt",""
"","bandit","303","868095","0.0-264.0-0.0","46006718","wem/bandit_party_1","A326O3VWP8TO8N","either","4","65","","","","","","","0","0","1","","0.4872993944","0.2","0.8","0.6","0.4","0.2013525365","0.3327789551","0.4872993944","0.2034578964","","","","","","","","","","","","","","75","K","2","","","223","main_expt",""
"","bandit","304","869734","0.0-265.0-0.0","46006718","wem/bandit_party_1","A326O3VWP8TO8N","either","4","127","","","","","","","0","0","1","0.4864577786","","0.2","0.8","0.6","0.4","","","","","0.2017363432","0.3720138676","0.4864577786","0.1176985371","","","","","","","","","","75","K","2","","","224","main_expt",""
"","bandit","305","871261","0.0-266.0-0.0","46006718","wem/bandit_party_1","A326O3VWP8TO8N","either","4","12","","","","","","","1","0","0","0.4035982493","","0.2","0.8","0.6","0.4","","","","","0.1608447522","0.4035982493","0.4815865163","0.08531446518","","","","","","","","","","74","J","1","","","225","main_expt",""
"","bandit","306","872950","0.0-267.0-0.0","46006718","wem/bandit_party_1","A326O3VWP8TO8N","either","4","173","","","","","","","0","0","1","0.3538577565","","0.2","0.8","0.6","0.4","","","","","0.2023183299","0.3538577565","0.4781941344","0.0901010045","","","","","","","","","","74","J","1","","","226","main_expt",""
"","bandit","307","874551","0.0-268.0-0.0","46006718","wem/bandit_party_1","A326O3VWP8TO8N","either","4","84","","","","","","","0","0","1","0.4205879778","","0.2","0.8","0.6","0.4","","","","","0.1555458008","0.4205879778","0.4742279627","0.06499555022","","","","","","","","","","74","J","1","","","227","main_expt",""
"","bandit","308","876069","0.0-269.0-0.0","46006718","wem/bandit_party_1","A326O3VWP8TO8N","either","4","2","","","","","","","1","0","0","0.4082381823","","0.2","0.8","0.6","0.4","","","","","0.1210896773","0.4082381823","0.4597327255","0.06967502077","","","","","","","","","","74","J","1","","","228","main_expt",""
"","bandit","309","877718","0.0-270.0-0.0","46006718","wem/bandit_party_1","A326O3VWP8TO8N","either","4","135","","","","","","","1","0","0","0.4274963613","","0.2","0.8","0.6","0.4","","","","","0.1206830913","0.4274963613","0.4733003713","0.07642173418","","","","","","","","","","74","J","1","","","229","main_expt",""
"","bandit","310","879359","0.0-271.0-0.0","46006718","wem/bandit_party_1","A326O3VWP8TO8N","either","4","126","","","","","","","0","0","1","","0.4362488765","0.2","0.8","0.6","0.4","0.1334008039","0.4362488765","0.4832022084","0.04973788902","","","","","","","","","","","","","","74","J","1","","","230","main_expt",""
"","bandit","311","880895","0.0-272.0-0.0","46006718","wem/bandit_party_1","A326O3VWP8TO8N","either","4","26","","","","","","","1","0","0","0.4420629534","","0.2","0.8","0.6","0.4","","","","","0.1048467088","0.4420629534","0.4802630573","0.07419495466","","","","","","","","","","74","J","1","","","231","main_expt",""
"","bandit","312","882525","0.0-273.0-0.0","46006718","wem/bandit_party_1","A326O3VWP8TO8N","either","4","121","","","","","","","0","0","1","0.4287414635","","0.2","0.8","0.6","0.4","","","","","0.1184002818","0.4287414635","0.4739318499","0.08125260149","","","","","","","","","","74","J","1","","","232","main_expt",""
"","bandit","313","884115","0.0-274.0-0.0","46006718","wem/bandit_party_1","A326O3VWP8TO8N","either","4","69","","","","","","","0","0","1","0.4395511981","","0.2","0.8","0.6","0.4","","","","","0.08533064469","0.4395511981","0.4709765286","0.06057073796","","","","","","","","","","74","J","1","","","233","main_expt",""
"","bandit","314","885758","0.0-275.0-0.0","46006718","wem/bandit_party_1","A326O3VWP8TO8N","either","4","129","","","","","","","0","0","1","0.4479240545","","0.2","0.8","0.6","0.4","","","","","0.1190123434","0.4479240545","0.4658145356","0.1037411708","","","","","","","","","","74","J","1","","","234","main_expt",""
"","bandit","315","887354","0.0-276.0-0.0","46006718","wem/bandit_party_1","A326O3VWP8TO8N","either","4","76","","","","","","","1","0","0","0.4476644646","","0.2","0.8","0.6","0.4","","","","","0.1392024459","0.4476644646","0.4312508187","0.1267441937","","","","","","","","","","74","J","1","","","235","main_expt",""
