"consent","trial_type","trial_index","time_elapsed","internal_node_id","subjID","study","MID","cond","drift","rt","responses","button_pressed","key_press","like","value","connected","gems","bombs","no_reward","GemPrChosen","BombPrChosen","GainOverPainPr_0","GainOverPainPr_1","GainOverPainPr_2","GainOverPainPr_3","LosePr_0","LosePr_1","LosePr_2","LosePr_3","WinPr_0","WinPr_1","WinPr_2","WinPr_3","Q0","Q1","Q2","gender","age","ethnicity","label","expt_phase","target","respCharCode","respKey","respChoiceNum","respChoice","practice","trial_counter","trial_label","Q0_index"
"GDM/GDM_behavioral_consent_30min_online.html","consent","0","6740","0.0-0.0","46346453","wem/bandit_party_1","A3JDWMS5QJHREI","either","6","","","","","","","","","","","","","","","","","","","","","","","","","","","","","","","","","","","","","","","","",""
"","survey-text","1","11133","0.0-1.0","46346453","wem/bandit_party_1","A3JDWMS5QJHREI","either","6","3385","{""Q0"":""A3JDWMS5QJHREI""}","","","","","","","","","","","","","","","","","","","","","","","","","","","","","","","","","","","","","","",""
"","button-response","2","13583","0.0-2.0","46346453","wem/bandit_party_1","A3JDWMS5QJHREI","either","6","1443","","1","","","","","","","","","","","","","","","","","","","","","","","","","","","","","","","","","","","","","",""
"","text-replacement","3","26575","0.0-3.0","46346453","wem/bandit_party_1","A3JDWMS5QJHREI","either","6","11986","","","32","","","","","","","","","","","","","","","","","","","","","","","","","","","","","","","","","","","","",""
"","text-replacement","4","36260","0.0-4.0","46346453","wem/bandit_party_1","A3JDWMS5QJHREI","either","6","9681","","","32","","","","","","","","","","","","","","","","","","","","","","","","","","","","","","","","","","","","",""
"","identification","5","43603","0.0-6.0-0.0","46346453","wem/bandit_party_1","A3JDWMS5QJHREI","either","6","7325","","","","0","0","0","","","","","","","","","","","","","","","","","","","","","","","","pre","identification_pre","the Republican party","","","","","","","",""
"","identification","6","49419","0.0-6.0-1.0","46346453","wem/bandit_party_1","A3JDWMS5QJHREI","either","6","4806","","","","3","3","3","","","","","","","","","","","","","","","","","","","","","","","","pre","identification_pre","the Democratic Party","","","","","","","",""
"","text-replacement","7","57328","0.0-7.0","46346453","wem/bandit_party_1","A3JDWMS5QJHREI","either","6","6905","","","32","","","","","","","","","","","","","","","","","","","","","","","","","","","","","","","","","","","","",""
"","text-replacement","8","65729","0.0-8.0","46346453","wem/bandit_party_1","A3JDWMS5QJHREI","either","6","8398","","","32","","","","","","","","","","","","","","","","","","","","","","","","","","","","","","","","","","","","",""
"","text-replacement","9","74021","0.0-9.0","46346453","wem/bandit_party_1","A3JDWMS5QJHREI","either","6","8291","","","32","","","","","","","","","","","","","","","","","","","","","","","","","","","","","","","","","","","","",""
"","text-replacement","10","77386","0.0-10.0","46346453","wem/bandit_party_1","A3JDWMS5QJHREI","either","6","3363","","","32","","","","","","","","","","","","","","","","","","","","","","","","","","","","","","","","","","","","",""
"","text-replacement","11","81946","0.0-11.0","46346453","wem/bandit_party_1","A3JDWMS5QJHREI","either","6","4559","","","32","","","","","","","","","","","","","","","","","","","","","","","","","","","","","","","","","","","","",""
"","bandit","12","86693","0.0-12.0-0.0","46346453","wem/bandit_party_1","A3JDWMS5QJHREI","either","6","3237","","","","","","","0","0","1","0","0","","","","","0","","","","0","","","","","","","","","","","","","74","J","0","img/none_selected_demo.jpg","true","0","",""
"","bandit","13","88918","0.0-13.0-0.0","46346453","wem/bandit_party_1","A3JDWMS5QJHREI","either","6","717","","","","","","","0","0","1","0","0","","","","","0","","","","0","","","","","","","","","","","","","75","K","0","img/none_selected_demo.jpg","true","0","",""
"","text-replacement","14","96213","0.0-14.0","46346453","wem/bandit_party_1","A3JDWMS5QJHREI","either","6","7293","","","32","","","","","","","","","","","","","","","","","","","","","","","","","","","","","","","","","","","","",""
"","text-replacement","15","100905","0.0-15.0","46346453","wem/bandit_party_1","A3JDWMS5QJHREI","either","6","4691","","","32","","","","","","","","","","","","","","","","","","","","","","","","","","","","","","","","","","","","",""
"","text-replacement","16","107881","0.0-16.0","46346453","wem/bandit_party_1","A3JDWMS5QJHREI","either","6","6975","","","32","","","","","","","","","","","","","","","","","","","","","","","","","","","","","","","","","","","","",""
"","text-replacement","17","110039","0.0-17.0","46346453","wem/bandit_party_1","A3JDWMS5QJHREI","either","6","2156","","","32","","","","","","","","","","","","","","","","","","","","","","","","","","","","","","","","","","","","",""
"","bandit","18","112200","0.0-18.0-0.0","46346453","wem/bandit_party_1","A3JDWMS5QJHREI","either","6","653","","","","","","","0","1","0","","0.8","0.5","0.5","","","0.8","0.2","","","","","","","","","","","","","","","","74","J","0","img/none_selected_demo.jpg","true","0","80_20_practice",""
"","bandit","19","114223","0.0-18.0-1.0","46346453","wem/bandit_party_1","A3JDWMS5QJHREI","either","6","516","","","","","","","1","0","0","0.8","","0.5","0.5","","","","","","","0.8","0.2","","","","","","","","","","","","74","J","0","img/none_selected_demo.jpg","true","0","80_20_practice",""
"","bandit","20","116028","0.0-18.0-2.0","46346453","wem/bandit_party_1","A3JDWMS5QJHREI","either","6","296","","","","","","","1","0","0","0.2","","0.5","0.5","","","","","","","0.8","0.2","","","","","","","","","","","","75","K","1","","true","0","80_20_practice",""
"","bandit","21","117894","0.0-18.0-3.0","46346453","wem/bandit_party_1","A3JDWMS5QJHREI","either","6","361","","","","","","","1","0","0","0.8","","0.5","0.5","","","","","","","0.8","0.2","","","","","","","","","","","","74","J","0","img/none_selected_demo.jpg","true","0","80_20_practice",""
"","bandit","22","119640","0.0-18.0-4.0","46346453","wem/bandit_party_1","A3JDWMS5QJHREI","either","6","242","","","","","","","0","0","1","0.2","","0.5","0.5","","","","","","","0.8","0.2","","","","","","","","","","","","75","K","1","","true","0","80_20_practice",""
"","bandit","23","121485","0.0-18.0-5.0","46346453","wem/bandit_party_1","A3JDWMS5QJHREI","either","6","341","","","","","","","0","0","1","0.8","","0.5","0.5","","","","","","","0.8","0.2","","","","","","","","","","","","74","J","0","img/none_selected_demo.jpg","true","0","80_20_practice",""
"","bandit","24","123265","0.0-18.0-6.0","46346453","wem/bandit_party_1","A3JDWMS5QJHREI","either","6","274","","","","","","","0","1","0","","0.8","0.5","0.5","","","0.8","0.2","","","","","","","","","","","","","","","","74","J","0","img/none_selected_demo.jpg","true","0","80_20_practice",""
"","bandit","25","125245","0.0-18.0-7.0","46346453","wem/bandit_party_1","A3JDWMS5QJHREI","either","6","473","","","","","","","0","0","1","","0.2","0.5","0.5","","","0.8","0.2","","","","","","","","","","","","","","","","75","K","1","","true","0","80_20_practice",""
"","bandit","26","127039","0.0-18.0-8.0","46346453","wem/bandit_party_1","A3JDWMS5QJHREI","either","6","289","","","","","","","0","0","1","","0.8","0.5","0.5","","","0.8","0.2","","","","","","","","","","","","","","","","74","J","0","img/none_selected_demo.jpg","true","0","80_20_practice",""
"","bandit","27","128862","0.0-18.0-9.0","46346453","wem/bandit_party_1","A3JDWMS5QJHREI","either","6","314","","","","","","","1","0","0","0.8","","0.5","0.5","","","","","","","0.8","0.2","","","","","","","","","","","","74","J","0","img/none_selected_demo.jpg","true","0","80_20_practice",""
"","bandit","28","130638","0.0-18.0-10.0","46346453","wem/bandit_party_1","A3JDWMS5QJHREI","either","6","270","","","","","","","0","0","1","0.2","","0.5","0.5","","","","","","","0.8","0.2","","","","","","","","","","","","75","K","1","","true","0","80_20_practice",""
"","bandit","29","132406","0.0-18.0-11.0","46346453","wem/bandit_party_1","A3JDWMS5QJHREI","either","6","261","","","","","","","0","0","1","","0.2","0.5","0.5","","","0.8","0.2","","","","","","","","","","","","","","","","75","K","1","","true","0","80_20_practice",""
"","bandit","30","134124","0.0-18.0-12.0","46346453","wem/bandit_party_1","A3JDWMS5QJHREI","either","6","214","","","","","","","1","0","0","0.8","","0.5","0.5","","","","","","","0.8","0.2","","","","","","","","","","","","74","J","0","img/none_selected_demo.jpg","true","0","80_20_practice",""
"","bandit","31","135761","0.0-18.0-13.0","46346453","wem/bandit_party_1","A3JDWMS5QJHREI","either","6","131","","","","","","","0","1","0","","0.8","0.5","0.5","","","0.8","0.2","","","","","","","","","","","","","","","","74","J","0","img/none_selected_demo.jpg","true","0","80_20_practice",""
"","bandit","32","137566","0.0-18.0-14.0","46346453","wem/bandit_party_1","A3JDWMS5QJHREI","either","6","302","","","","","","","1","0","0","0.8","","0.5","0.5","","","","","","","0.8","0.2","","","","","","","","","","","","74","J","0","img/none_selected_demo.jpg","true","0","80_20_practice",""
"","bandit","33","139308","0.0-18.0-15.0","46346453","wem/bandit_party_1","A3JDWMS5QJHREI","either","6","239","","","","","","","1","0","0","0.8","","0.5","0.5","","","","","","","0.8","0.2","","","","","","","","","","","","74","J","0","img/none_selected_demo.jpg","true","0","80_20_practice",""
"","bandit","34","141063","0.0-18.0-16.0","46346453","wem/bandit_party_1","A3JDWMS5QJHREI","either","6","250","","","","","","","0","0","1","","0.2","0.5","0.5","","","0.8","0.2","","","","","","","","","","","","","","","","75","K","1","","true","0","80_20_practice",""
"","bandit","35","142813","0.0-18.0-17.0","46346453","wem/bandit_party_1","A3JDWMS5QJHREI","either","6","244","","","","","","","0","1","0","","0.8","0.5","0.5","","","0.8","0.2","","","","","","","","","","","","","","","","74","J","0","img/none_selected_demo.jpg","true","0","80_20_practice",""
"","bandit","36","144741","0.0-18.0-18.0","46346453","wem/bandit_party_1","A3JDWMS5QJHREI","either","6","425","","","","","","","1","0","0","0.8","","0.5","0.5","","","","","","","0.8","0.2","","","","","","","","","","","","74","J","0","img/none_selected_demo.jpg","true","0","80_20_practice",""
"","bandit","37","146551","0.0-18.0-19.0","46346453","wem/bandit_party_1","A3JDWMS5QJHREI","either","6","303","","","","","","","1","0","0","0.8","","0.5","0.5","","","","","","","0.8","0.2","","","","","","","","","","","","74","J","0","img/none_selected_demo.jpg","true","0","80_20_practice",""
"","text-replacement","38","149401","0.0-19.0","46346453","wem/bandit_party_1","A3JDWMS5QJHREI","either","6","2846","","","32","","","","","","","","","","","","","","","","","","","","","","","","","","","","","","","","","","","","",""
"","bandit","39","153417","0.0-20.0-0.0","46346453","wem/bandit_party_1","A3JDWMS5QJHREI","either","6","2509","","","","","","","1","0","0","1","0","","","","","0","1","","","1","0","","","","","","","","","","","","74","J","0","img/none_selected_demo.jpg","true","0","",""
"","text-replacement","40","157790","0.0-21.0","46346453","wem/bandit_party_1","A3JDWMS5QJHREI","either","6","4369","","","32","","","","","","","","","","","","","","","","","","","","","","","","","","","","","","","","","","","","",""
"","text-replacement","41","160693","0.0-22.0","46346453","wem/bandit_party_1","A3JDWMS5QJHREI","either","6","2903","","","32","","","","","","","","","","","","","","","","","","","","","","","","","","","","","","","","","","","","",""
"","text-replacement","42","163156","0.0-23.0","46346453","wem/bandit_party_1","A3JDWMS5QJHREI","either","6","2461","","","32","","","","","","","","","","","","","","","","","","","","","","","","","","","","","","","","","","","","",""
"","text-replacement","43","165928","0.0-24.0","46346453","wem/bandit_party_1","A3JDWMS5QJHREI","either","6","2768","","","32","","","","","","","","","","","","","","","","","","","","","","","","","","","","","","","","","","","","",""
"","text-replacement","44","173131","0.0-25.0","46346453","wem/bandit_party_1","A3JDWMS5QJHREI","either","6","7201","","","32","","","","","","","","","","","","","","","","","","","","","","","","","","","","","","","","","","","","",""
"","text-replacement","45","175956","0.0-26.0","46346453","wem/bandit_party_1","A3JDWMS5QJHREI","either","6","2823","","","32","","","","","","","","","","","","","","","","","","","","","","","","","","","","","","","","","","","","",""
"","text-replacement","46","179660","0.0-27.0","46346453","wem/bandit_party_1","A3JDWMS5QJHREI","either","6","3702","","","32","","","","","","","","","","","","","","","","","","","","","","","","","","","","","","","","","","","","",""
"","text-replacement","47","182473","0.0-28.0","46346453","wem/bandit_party_1","A3JDWMS5QJHREI","either","6","2810","","","32","","","","","","","","","","","","","","","","","","","","","","","","","","","","","","","","","","","","",""
"","text-replacement","48","187682","0.0-29.0","46346453","wem/bandit_party_1","A3JDWMS5QJHREI","either","6","5209","","","32","","","","","","","","","","","","","","","","","","","","","","","","","","","","","","","","","","","","",""
"","text-replacement","49","190570","0.0-30.0","46346453","wem/bandit_party_1","A3JDWMS5QJHREI","either","6","2887","","","32","","","","","","","","","","","","","","","","","","","","","","","","","","","","","","","","","","","","",""
"","text-replacement","50","193155","0.0-31.0","46346453","wem/bandit_party_1","A3JDWMS5QJHREI","either","6","2583","","","32","","","","","","","","","","","","","","","","","","","","","","","","","","","","","","","","","","","","",""
"","bandit","51","195304","0.0-32.0-0.0","46346453","wem/bandit_party_1","A3JDWMS5QJHREI","either","6","643","","","","","","","0","0","1","","0.2","0.5","0.5","0.5","0.5","0.8","0.2","0.6","0.2","","","","","","","","","","","","","","74","J","1","","true","0","full_practice",""
"","bandit","52","198315","0.0-32.0-1.0","46346453","wem/bandit_party_1","A3JDWMS5QJHREI","either","6","1506","","","","","","","0","0","1","0.8","","0.5","0.5","0.5","0.5","","","","","0.8","0.2","0.6","0.2","","","","","","","","","","72","H","0","img/none_selected.jpg","true","0","full_practice",""
"","bandit","53","200089","0.0-32.0-2.0","46346453","wem/bandit_party_1","A3JDWMS5QJHREI","either","6","269","","","","","","","0","1","0","","0.6","0.5","0.5","0.5","0.5","0.8","0.2","0.6","0.2","","","","","","","","","","","","","","75","K","2","","true","0","full_practice",""
"","bandit","54","201848","0.0-32.0-3.0","46346453","wem/bandit_party_1","A3JDWMS5QJHREI","either","6","253","","","","","","","0","1","0","","0.6","0.5","0.5","0.5","0.5","0.8","0.2","0.6","0.2","","","","","","","","","","","","","","75","K","2","","true","0","full_practice",""
"","bandit","55","203637","0.0-32.0-4.0","46346453","wem/bandit_party_1","A3JDWMS5QJHREI","either","6","282","","","","","","","0","1","0","","0.6","0.5","0.5","0.5","0.5","0.8","0.2","0.6","0.2","","","","","","","","","","","","","","75","K","2","","true","0","full_practice",""
"","bandit","56","205469","0.0-32.0-5.0","46346453","wem/bandit_party_1","A3JDWMS5QJHREI","either","6","323","","","","","","","0","1","0","","0.6","0.5","0.5","0.5","0.5","0.8","0.2","0.6","0.2","","","","","","","","","","","","","","75","K","2","","true","0","full_practice",""
"","bandit","57","207245","0.0-32.0-6.0","46346453","wem/bandit_party_1","A3JDWMS5QJHREI","either","6","269","","","","","","","0","0","1","","0.6","0.5","0.5","0.5","0.5","0.8","0.2","0.6","0.2","","","","","","","","","","","","","","75","K","2","","true","0","full_practice",""
"","bandit","58","209026","0.0-32.0-7.0","46346453","wem/bandit_party_1","A3JDWMS5QJHREI","either","6","274","","","","","","","0","0","1","","0.2","0.5","0.5","0.5","0.5","0.8","0.2","0.6","0.2","","","","","","","","","","","","","","76","L","3","","true","0","full_practice",""
"","bandit","59","210806","0.0-32.0-8.0","46346453","wem/bandit_party_1","A3JDWMS5QJHREI","either","6","276","","","","","","","0","0","1","","0.6","0.5","0.5","0.5","0.5","0.8","0.2","0.6","0.2","","","","","","","","","","","","","","75","K","2","","true","0","full_practice",""
"","bandit","60","212622","0.0-32.0-9.0","46346453","wem/bandit_party_1","A3JDWMS5QJHREI","either","6","309","","","","","","","0","0","1","","0.8","0.5","0.5","0.5","0.5","0.8","0.2","0.6","0.2","","","","","","","","","","","","","","72","H","0","img/none_selected.jpg","true","0","full_practice",""
"","bandit","61","214541","0.0-32.0-10.0","46346453","wem/bandit_party_1","A3JDWMS5QJHREI","either","6","414","","","","","","","0","0","1","","0.2","0.5","0.5","0.5","0.5","0.8","0.2","0.6","0.2","","","","","","","","","","","","","","74","J","1","","true","0","full_practice",""
"","bandit","62","216199","0.0-32.0-11.0","46346453","wem/bandit_party_1","A3JDWMS5QJHREI","either","6","153","","","","","","","0","0","1","0.2","","0.5","0.5","0.5","0.5","","","","","0.8","0.2","0.6","0.2","","","","","","","","","","76","L","3","","true","0","full_practice",""
"","bandit","63","217939","0.0-32.0-12.0","46346453","wem/bandit_party_1","A3JDWMS5QJHREI","either","6","234","","","","","","","0","1","0","","0.6","0.5","0.5","0.5","0.5","0.8","0.2","0.6","0.2","","","","","","","","","","","","","","75","K","2","","true","0","full_practice",""
"","bandit","64","219703","0.0-32.0-13.0","46346453","wem/bandit_party_1","A3JDWMS5QJHREI","either","6","259","","","","","","","1","0","0","0.6","","0.5","0.5","0.5","0.5","","","","","0.8","0.2","0.6","0.2","","","","","","","","","","75","K","2","","true","0","full_practice",""
"","bandit","65","221501","0.0-32.0-14.0","46346453","wem/bandit_party_1","A3JDWMS5QJHREI","either","6","289","","","","","","","0","0","1","0.6","","0.5","0.5","0.5","0.5","","","","","0.8","0.2","0.6","0.2","","","","","","","","","","75","K","2","","true","0","full_practice",""
"","bandit","66","223303","0.0-32.0-15.0","46346453","wem/bandit_party_1","A3JDWMS5QJHREI","either","6","297","","","","","","","0","1","0","","0.6","0.5","0.5","0.5","0.5","0.8","0.2","0.6","0.2","","","","","","","","","","","","","","75","K","2","","true","0","full_practice",""
"","bandit","67","225044","0.0-32.0-16.0","46346453","wem/bandit_party_1","A3JDWMS5QJHREI","either","6","236","","","","","","","0","0","1","0.6","","0.5","0.5","0.5","0.5","","","","","0.8","0.2","0.6","0.2","","","","","","","","","","75","K","2","","true","0","full_practice",""
"","bandit","68","226772","0.0-32.0-17.0","46346453","wem/bandit_party_1","A3JDWMS5QJHREI","either","6","220","","","","","","","1","0","0","0.6","","0.5","0.5","0.5","0.5","","","","","0.8","0.2","0.6","0.2","","","","","","","","","","75","K","2","","true","0","full_practice",""
"","bandit","69","228537","0.0-32.0-18.0","46346453","wem/bandit_party_1","A3JDWMS5QJHREI","either","6","257","","","","","","","1","0","0","0.6","","0.5","0.5","0.5","0.5","","","","","0.8","0.2","0.6","0.2","","","","","","","","","","75","K","2","","true","0","full_practice",""
"","bandit","70","230298","0.0-32.0-19.0","46346453","wem/bandit_party_1","A3JDWMS5QJHREI","either","6","252","","","","","","","0","1","0","","0.6","0.5","0.5","0.5","0.5","0.8","0.2","0.6","0.2","","","","","","","","","","","","","","75","K","2","","true","0","full_practice",""
"","text","71","233020","0.0-33.0","46346453","wem/bandit_party_1","A3JDWMS5QJHREI","either","6","2707","","","32","","","","","","","","","","","","","","","","","","","","","","","","","","","","","","","","","","","","",""
"","text-replacement","72","244837","0.0-34.0","46346453","wem/bandit_party_1","A3JDWMS5QJHREI","either","6","10813","","","32","","","","","","","","","","","","","","","","","","","","","","","","","","","","","","","","","","","","",""
"","text-replacement","73","253633","0.0-35.0","46346453","wem/bandit_party_1","A3JDWMS5QJHREI","either","6","8794","","","32","","","","","","","","","","","","","","","","","","","","","","","","","","","","","","","","","","","","",""
"","text-replacement","74","257554","0.0-36.0","46346453","wem/bandit_party_1","A3JDWMS5QJHREI","either","6","3920","","","32","","","","","","","","","","","","","","","","","","","","","","","","","","","","","","","","","","","","",""
"","text-replacement","75","261775","0.0-37.0","46346453","wem/bandit_party_1","A3JDWMS5QJHREI","either","6","4220","","","32","","","","","","","","","","","","","","","","","","","","","","","","","","","","","","","","","","","","",""
"","text-replacement","76","264572","0.0-38.0","46346453","wem/bandit_party_1","A3JDWMS5QJHREI","either","6","2795","","","32","","","","","","","","","","","","","","","","","","","","","","","","","","","","","","","","","","","","",""
"","survey-multi-choice-replacement","77","269759","0.0-39.0-0.0","46346453","wem/bandit_party_1","A3JDWMS5QJHREI","either","6","5182","","","","","","","","","","","","","","","","","","","","","","","","Money will be added to the pool for <span style='color:blue;'>DEMOCRATS</span>","","","","","","","attn_check","","","","","","","","","0"
"","survey-multi-choice-replacement","78","274153","0.0-40.0-0.0","46346453","wem/bandit_party_1","A3JDWMS5QJHREI","either","6","3386","","","","","","","","","","","","","","","","","","","","","","","","Equal amounts of money will be added to the pool for <span style='color:blue;'>DEMOCRATS</span> and subtracted from the pool for <span style='color:red;'>REPUBLICANS</span>","","","","","","","attn_check","","","","","","","","","2"
"","survey-multi-choice-replacement","79","277911","0.0-41.0-0.0","46346453","wem/bandit_party_1","A3JDWMS5QJHREI","either","6","2752","","","","","","","","","","","","","","","","","","","","","","","","No money will be added to either pool","","","","","","","attn_check","","","","","","","","","3"
"","bandit","80","282736","0.0-42.0-0.0","46346453","wem/bandit_party_1","A3JDWMS5QJHREI","either","6","2319","","","","","","","1","0","0","0.06094066238","","0.6","0.2","0.8","0.4","","","","","0.06094066238","0.4656478179","0.1734470434","0.1720655487","","","","","","","","","","72","H","0","img/none_selected.jpg","","1","main_expt",""
"","bandit","81","284731","0.0-43.0-0.0","46346453","wem/bandit_party_1","A3JDWMS5QJHREI","either","6","487","","","","","","","0","0","1","","0.04941180107","0.6","0.2","0.8","0.4","0.04941180107","0.4661883906","0.1582158198","0.1607886358","","","","","","","","","","","","","","72","H","0","img/none_selected.jpg","","2","main_expt",""
"","bandit","82","286740","0.0-44.0-0.0","46346453","wem/bandit_party_1","A3JDWMS5QJHREI","either","6","501","","","","","","","0","0","1","0.09066711981","","0.6","0.2","0.8","0.4","","","","","0.09066711981","0.4608397999","0.1264016625","0.1825924006","","","","","","","","","","72","H","0","img/none_selected.jpg","","3","main_expt",""
"","bandit","83","288616","0.0-45.0-0.0","46346453","wem/bandit_party_1","A3JDWMS5QJHREI","either","6","366","","","","","","","0","0","1","0.4568511376","","0.6","0.2","0.8","0.4","","","","","0.07815644495","0.4568511376","0.1212924903","0.1572982515","","","","","","","","","","74","J","1","","","4","main_expt",""
"","bandit","84","291177","0.0-46.0-0.0","46346453","wem/bandit_party_1","A3JDWMS5QJHREI","either","6","1053","","","","","","","0","0","1","0.1603104869","","0.6","0.2","0.8","0.4","","","","","0.06547040057","0.4576747282","0.1603104869","0.1873501432","","","","","","","","","","75","K","2","","","5","main_expt",""
"","bandit","85","292920","0.0-47.0-0.0","46346453","wem/bandit_party_1","A3JDWMS5QJHREI","either","6","235","","","","","","","0","0","1","0.1484719509","","0.6","0.2","0.8","0.4","","","","","0.09500806419","0.4673201091","0.1916070739","0.1484719509","","","","","","","","","","76","L","3","","","6","main_expt",""
"","bandit","86","294705","0.0-48.0-0.0","46346453","wem/bandit_party_1","A3JDWMS5QJHREI","either","6","276","","","","","","","0","0","1","0.1156714339","","0.6","0.2","0.8","0.4","","","","","0.1156714339","0.4671816856","0.1624213819","0.1368680622","","","","","","","","","","72","H","0","img/none_selected.jpg","","7","main_expt",""
"","bandit","87","296478","0.0-49.0-0.0","46346453","wem/bandit_party_1","A3JDWMS5QJHREI","either","6","266","","","","","","","0","0","1","","0.08939878806","0.6","0.2","0.8","0.4","0.08939878806","0.4577650209","0.1529627983","0.1412197478","","","","","","","","","","","","","","72","H","0","img/none_selected.jpg","","8","main_expt",""
"","bandit","88","298221","0.0-50.0-0.0","46346453","wem/bandit_party_1","A3JDWMS5QJHREI","either","6","236","","","","","","","0","1","0","","0.4538037209","0.6","0.2","0.8","0.4","0.1379609943","0.4538037209","0.1638779","0.1285241668","","","","","","","","","","","","","","74","J","1","","","9","main_expt",""
"","bandit","89","299996","0.0-51.0-0.0","46346453","wem/bandit_party_1","A3JDWMS5QJHREI","either","6","265","","","","","","","0","0","1","","0.4567906288","0.6","0.2","0.8","0.4","0.08892925829","0.4567906288","0.1682184418","0.1137500729","","","","","","","","","","","","","","74","J","1","","","10","main_expt",""
"","bandit","90","301780","0.0-52.0-0.0","46346453","wem/bandit_party_1","A3JDWMS5QJHREI","either","6","278","","","","","","","0","0","1","","0.4707556997","0.6","0.2","0.8","0.4","0.1053961985","0.4707556997","0.1511948373","0.1134058804","","","","","","","","","","","","","","74","J","1","","","11","main_expt",""
"","bandit","91","303434","0.0-53.0-0.0","46346453","wem/bandit_party_1","A3JDWMS5QJHREI","either","6","151","","","","","","","0","0","1","0.2144966391","","0.6","0.2","0.8","0.4","","","","","0.1267534428","0.4534589675","0.2144966391","0.1358134986","","","","","","","","","","75","K","2","","","12","main_expt",""
"","bandit","92","304989","0.0-54.0-0.0","46346453","wem/bandit_party_1","A3JDWMS5QJHREI","either","6","47","","","","","","","1","0","0","0.1443049275","","0.6","0.2","0.8","0.4","","","","","0.1179877152","0.4474824422","0.1443049275","0.1105925571","","","","","","","","","","75","K","2","","","13","main_expt",""
"","bandit","93","306722","0.0-55.0-0.0","46346453","wem/bandit_party_1","A3JDWMS5QJHREI","either","6","224","","","","","","","0","0","1","0.149160688","","0.6","0.2","0.8","0.4","","","","","0.1300626215","0.4125602811","0.149160688","0.09057326494","","","","","","","","","","75","K","2","","","14","main_expt",""
"","bandit","94","308450","0.0-56.0-0.0","46346453","wem/bandit_party_1","A3JDWMS5QJHREI","either","6","221","","","","","","","0","0","1","","0.05963436345","0.6","0.2","0.8","0.4","0.1129073675","0.3715785473","0.1525333278","0.05963436345","","","","","","","","","","","","","","76","L","3","","","15","main_expt",""
"","bandit","95","310181","0.0-57.0-0.0","46346453","wem/bandit_party_1","A3JDWMS5QJHREI","either","6","225","","","","","","","0","0","1","","0.03970917029","0.6","0.2","0.8","0.4","0.1132840383","0.3670357029","0.1437253933","0.03970917029","","","","","","","","","","","","","","76","L","3","","","16","main_expt",""
"","bandit","96","311833","0.0-58.0-0.0","46346453","wem/bandit_party_1","A3JDWMS5QJHREI","either","6","145","","","","","","","0","0","1","0.1530786807","","0.6","0.2","0.8","0.4","","","","","0.1530786807","0.333794799","0.1191274054","0.03301664506","","","","","","","","","","72","H","0","img/none_selected.jpg","","17","main_expt",""
"","bandit","97","313595","0.0-59.0-0.0","46346453","wem/bandit_party_1","A3JDWMS5QJHREI","either","6","255","","","","","","","0","0","1","0.1367655081","","0.6","0.2","0.8","0.4","","","","","0.1367655081","0.3720862831","0.1231388663","0.0325619","","","","","","","","","","72","H","0","img/none_selected.jpg","","18","main_expt",""
"","bandit","98","315352","0.0-60.0-0.0","46346453","wem/bandit_party_1","A3JDWMS5QJHREI","either","6","247","","","","","","","0","0","1","","0.3940248177","0.6","0.2","0.8","0.4","0.1519969922","0.3940248177","0.1014962652","0.05136562407","","","","","","","","","","","","","","74","J","1","","","19","main_expt",""
"","bandit","99","317135","0.0-61.0-0.0","46346453","wem/bandit_party_1","A3JDWMS5QJHREI","either","6","275","","","","","","","0","0","1","0.3980303587","","0.6","0.2","0.8","0.4","","","","","0.2344823222","0.3980303587","0.1184271466","0.05620034239","","","","","","","","","","74","J","1","","","20","main_expt",""
"","bandit","100","318896","0.0-62.0-0.0","46346453","wem/bandit_party_1","A3JDWMS5QJHREI","either","6","252","","","","","","","0","0","1","","0.1434190777","0.6","0.2","0.8","0.4","0.2227593861","0.405953395","0.1434190777","0.04865895453","","","","","","","","","","","","","","75","K","2","","","21","main_expt",""
"","bandit","101","320775","0.0-63.0-0.0","46346453","wem/bandit_party_1","A3JDWMS5QJHREI","either","6","373","","","","","","","0","0","1","0.1323354157","","0.6","0.2","0.8","0.4","","","","","0.1831098024","0.37898799","0.1323354157","0.05276066643","","","","","","","","","","75","K","2","","","22","main_expt",""
"","bandit","102","322323","0.0-64.0-0.0","46346453","wem/bandit_party_1","A3JDWMS5QJHREI","either","6","42","","","","","","","0","0","1","0.05284133488","","0.6","0.2","0.8","0.4","","","","","0.1660310818","0.3661255489","0.1384191998","0.05284133488","","","","","","","","","","76","L","3","","","23","main_expt",""
"","bandit","103","324049","0.0-65.0-0.0","46346453","wem/bandit_party_1","A3JDWMS5QJHREI","either","6","219","","","","","","","0","0","1","0.0333904923","","0.6","0.2","0.8","0.4","","","","","0.1400827643","0.3576379461","0.1395593146","0.0333904923","","","","","","","","","","76","L","3","","","24","main_expt",""
"","bandit","104","325800","0.0-66.0-0.0","46346453","wem/bandit_party_1","A3JDWMS5QJHREI","either","6","246","","","","","","","0","0","1","0.2022937807","","0.6","0.2","0.8","0.4","","","","","0.2022937807","0.3346121782","0.1696236693","0.04666446392","","","","","","","","","","72","H","0","img/none_selected.jpg","","25","main_expt",""
"","bandit","105","327512","0.0-67.0-0.0","46346453","wem/bandit_party_1","A3JDWMS5QJHREI","either","6","204","","","","","","","0","0","1","0.1725383963","","0.6","0.2","0.8","0.4","","","","","0.1725383963","0.3790434843","0.1754084838","0.04067930801","","","","","","","","","","72","H","0","img/none_selected.jpg","","26","main_expt",""
"","bandit","106","329356","0.0-68.0-0.0","46346453","wem/bandit_party_1","A3JDWMS5QJHREI","either","6","337","","","","","","","1","0","0","0.3744762435","","0.6","0.2","0.8","0.4","","","","","0.1735642386","0.3744762435","0.118483546","0.03070036018","","","","","","","","","","74","J","1","","","27","main_expt",""
"","bandit","107","331105","0.0-69.0-0.0","46346453","wem/bandit_party_1","A3JDWMS5QJHREI","either","6","241","","","","","","","0","0","1","0.3650769418","","0.6","0.2","0.8","0.4","","","","","0.149532802","0.3650769418","0.1259847853","0.02292460278","","","","","","","","","","74","J","1","","","28","main_expt",""
"","bandit","108","332884","0.0-70.0-0.0","46346453","wem/bandit_party_1","A3JDWMS5QJHREI","either","6","273","","","","","","","0","1","0","","0.3299345172","0.6","0.2","0.8","0.4","0.1597785082","0.3299345172","0.1072727049","0.03476379039","","","","","","","","","","","","","","74","J","1","","","29","main_expt",""
"","bandit","109","334754","0.0-71.0-0.0","46346453","wem/bandit_party_1","A3JDWMS5QJHREI","either","6","364","","","","","","","0","1","0","","0.3010095271","0.6","0.2","0.8","0.4","0.1978771271","0.3010095271","0.07952930744","0.04211589453","","","","","","","","","","","","","","74","J","1","","","30","main_expt",""
"","bandit","110","336514","0.0-72.0-0.0","46346453","wem/bandit_party_1","A3JDWMS5QJHREI","either","6","254","","","","","","","0","0","1","","0.331530841","0.6","0.2","0.8","0.4","0.1928768267","0.331530841","0.09691030242","0.04495483672","","","","","","","","","","","","","","74","J","1","","","31","main_expt",""
"","bandit","111","338318","0.0-73.0-0.0","46346453","wem/bandit_party_1","A3JDWMS5QJHREI","either","6","297","","","","","","","0","1","0","","0.3469043085","0.6","0.2","0.8","0.4","0.1511047494","0.3469043085","0.1338720944","0.04126869591","","","","","","","","","","","","","","74","J","1","","","32","main_expt",""
"","bandit","112","340248","0.0-74.0-0.0","46346453","wem/bandit_party_1","A3JDWMS5QJHREI","either","6","421","","","","","","","0","0","1","","0.2778139242","0.6","0.2","0.8","0.4","0.09247049486","0.2778139242","0.1428203538","0.02396570111","","","","","","","","","","","","","","74","J","1","","","33","main_expt",""
"","bandit","113","342088","0.0-75.0-0.0","46346453","wem/bandit_party_1","A3JDWMS5QJHREI","either","6","330","","","","","","","0","0","1","","0.236883459","0.6","0.2","0.8","0.4","0.1127946788","0.236883459","0.1258169527","0.03561151332","","","","","","","","","","","","","","74","J","1","","","34","main_expt",""
"","bandit","114","343989","0.0-76.0-0.0","46346453","wem/bandit_party_1","A3JDWMS5QJHREI","either","6","391","","","","","","","0","0","1","0.1652362889","","0.6","0.2","0.8","0.4","","","","","0.1279928094","0.2656196476","0.1652362889","0.04565222073","","","","","","","","","","75","K","2","","","35","main_expt",""
"","bandit","115","345763","0.0-77.0-0.0","46346453","wem/bandit_party_1","A3JDWMS5QJHREI","either","6","266","","","","","","","0","0","1","0.1472348388","","0.6","0.2","0.8","0.4","","","","","0.09285608896","0.2309028503","0.1472348388","0.05036449293","","","","","","","","","","75","K","2","","","36","main_expt",""
"","bandit","116","347549","0.0-78.0-0.0","46346453","wem/bandit_party_1","A3JDWMS5QJHREI","either","6","276","","","","","","","0","0","1","0.04764774511","","0.6","0.2","0.8","0.4","","","","","0.1251507517","0.1961267878","0.20581188","0.04764774511","","","","","","","","","","76","L","3","","","37","main_expt",""
"","bandit","117","349381","0.0-79.0-0.0","46346453","wem/bandit_party_1","A3JDWMS5QJHREI","either","6","324","","","","","","","0","1","0","","0.04692466818","0.6","0.2","0.8","0.4","0.1248439258","0.2197692452","0.2096070571","0.04692466818","","","","","","","","","","","","","","76","L","3","","","38","main_expt",""
"","bandit","118","351120","0.0-80.0-0.0","46346453","wem/bandit_party_1","A3JDWMS5QJHREI","either","6","233","","","","","","","0","0","1","","0.06150360576","0.6","0.2","0.8","0.4","0.1192858938","0.1783178102","0.1888903691","0.06150360576","","","","","","","","","","","","","","76","L","3","","","39","main_expt",""
"","bandit","119","352847","0.0-81.0-0.0","46346453","wem/bandit_party_1","A3JDWMS5QJHREI","either","6","221","","","","","","","0","0","1","","0.1025324214","0.6","0.2","0.8","0.4","0.1457630933","0.1354267005","0.1769314034","0.1025324214","","","","","","","","","","","","","","76","L","3","","","40","main_expt",""
"","bandit","120","354669","0.0-82.0-0.0","46346453","wem/bandit_party_1","A3JDWMS5QJHREI","either","6","310","","","","","","","0","0","1","","0.1278282258","0.6","0.2","0.8","0.4","0.1788887836","0.1307301687","0.1764673912","0.1278282258","","","","","","","","","","","","","","76","L","3","","","41","main_expt",""
"","bandit","121","356405","0.0-83.0-0.0","46346453","wem/bandit_party_1","A3JDWMS5QJHREI","either","6","232","","","","","","","0","0","1","","0.1550439797","0.6","0.2","0.8","0.4","0.1550439797","0.1002459791","0.1164002711","0.1144783829","","","","","","","","","","","","","","72","H","0","img/none_selected.jpg","","42","main_expt",""
"","bandit","122","358184","0.0-84.0-0.0","46346453","wem/bandit_party_1","A3JDWMS5QJHREI","either","6","271","","","","","","","1","0","0","0.1624336935","","0.6","0.2","0.8","0.4","","","","","0.1624336935","0.06131682752","0.1248357276","0.148274456","","","","","","","","","","72","H","0","img/none_selected.jpg","","43","main_expt",""
"","bandit","123","359941","0.0-85.0-0.0","46346453","wem/bandit_party_1","A3JDWMS5QJHREI","either","6","248","","","","","","","0","0","1","0.2610419313","","0.6","0.2","0.8","0.4","","","","","0.2610419313","0.05757194937","0.1801883524","0.1733993608","","","","","","","","","","72","H","0","img/none_selected.jpg","","44","main_expt",""
"","bandit","124","361779","0.0-86.0-0.0","46346453","wem/bandit_party_1","A3JDWMS5QJHREI","either","6","329","","","","","","","0","0","1","","0.2547096211","0.6","0.2","0.8","0.4","0.2547096211","0.06317169253","0.1536252234","0.1731137141","","","","","","","","","","","","","","72","H","0","img/none_selected.jpg","","45","main_expt",""
"","bandit","125","363477","0.0-87.0-0.0","46346453","wem/bandit_party_1","A3JDWMS5QJHREI","either","6","190","","","","","","","0","0","1","","0.2690630982","0.6","0.2","0.8","0.4","0.2690630982","0.08604650327","0.1453657368","0.2577534017","","","","","","","","","","","","","","72","H","0","img/none_selected.jpg","","46","main_expt",""
"","bandit","126","365258","0.0-88.0-0.0","46346453","wem/bandit_party_1","A3JDWMS5QJHREI","either","6","275","","","","","","","0","0","1","","0.07503215105","0.6","0.2","0.8","0.4","0.2613787364","0.07503215105","0.1163474927","0.2436059896","","","","","","","","","","","","","","74","J","1","","","47","main_expt",""
"","bandit","127","367042","0.0-89.0-0.0","46346453","wem/bandit_party_1","A3JDWMS5QJHREI","either","6","278","","","","","","","0","0","1","","0.09661626413","0.6","0.2","0.8","0.4","0.2764851171","0.09661626413","0.1187671899","0.261356988","","","","","","","","","","","","","","74","J","1","","","48","main_expt",""
"","bandit","128","368804","0.0-90.0-0.0","46346453","wem/bandit_party_1","A3JDWMS5QJHREI","either","6","254","","","","","","","1","0","0","0.141419135","","0.6","0.2","0.8","0.4","","","","","0.2628846066","0.141419135","0.1321787199","0.2707362224","","","","","","","","","","74","J","1","","","49","main_expt",""
"","bandit","129","370597","0.0-91.0-0.0","46346453","wem/bandit_party_1","A3JDWMS5QJHREI","either","6","285","","","","","","","0","0","1","","0.1341637883","0.6","0.2","0.8","0.4","0.3634831931","0.1341637883","0.1310663867","0.2733601765","","","","","","","","","","","","","","74","J","1","","","50","main_expt",""
"","bandit","130","372403","0.0-92.0-0.0","46346453","wem/bandit_party_1","A3JDWMS5QJHREI","either","6","297","","","","","","","0","0","1","","0.1225974466","0.6","0.2","0.8","0.4","0.3771608335","0.1225974466","0.1450472339","0.2590969561","","","","","","","","","","","","","","74","J","1","","","51","main_expt",""
"","bandit","131","374203","0.0-93.0-0.0","46346453","wem/bandit_party_1","A3JDWMS5QJHREI","either","6","293","","","","","","","0","0","1","0.1731775471","","0.6","0.2","0.8","0.4","","","","","0.3093307572","0.1145468474","0.1731775471","0.2515646212","","","","","","","","","","75","K","2","","","52","main_expt",""
"","bandit","132","376032","0.0-94.0-0.0","46346453","wem/bandit_party_1","A3JDWMS5QJHREI","either","6","322","","","","","","","0","0","1","0.2258016315","","0.6","0.2","0.8","0.4","","","","","0.2990929044","0.1059564611","0.2258016315","0.2257746054","","","","","","","","","","75","K","2","","","53","main_expt",""
"","bandit","133","377881","0.0-95.0-0.0","46346453","wem/bandit_party_1","A3JDWMS5QJHREI","either","6","344","","","","","","","0","0","1","","0.2172527187","0.6","0.2","0.8","0.4","0.2221679908","0.1090017536","0.2172527187","0.2750925763","","","","","","","","","","","","","","75","K","2","","","54","main_expt",""
"","bandit","134","379809","0.0-96.0-0.0","46346453","wem/bandit_party_1","A3JDWMS5QJHREI","either","6","423","","","","","","","0","0","1","","0.3608357377","0.6","0.2","0.8","0.4","0.1886471815","0.1249444004","0.1652356872","0.3608357377","","","","","","","","","","","","","","76","L","3","","","55","main_expt",""
"","bandit","135","381562","0.0-97.0-0.0","46346453","wem/bandit_party_1","A3JDWMS5QJHREI","either","6","241","","","","","","","0","0","1","","0.4022545085","0.6","0.2","0.8","0.4","0.1973213641","0.09043885587","0.1576418272","0.4022545085","","","","","","","","","","","","","","76","L","3","","","56","main_expt",""
"","bandit","136","383236","0.0-98.0-0.0","46346453","wem/bandit_party_1","A3JDWMS5QJHREI","either","6","161","","","","","","","0","0","1","0.3867568464","","0.6","0.2","0.8","0.4","","","","","0.2207101474","0.07448640425","0.180776926","0.3867568464","","","","","","","","","","76","L","3","","","57","main_expt",""
"","bandit","137","384858","0.0-99.0-0.0","46346453","wem/bandit_party_1","A3JDWMS5QJHREI","either","6","111","","","","","","","0","0","1","","0.2480089655","0.6","0.2","0.8","0.4","0.2480089655","0.09808879237","0.1489081552","0.3840355114","","","","","","","","","","","","","","72","H","0","img/none_selected.jpg","","58","main_expt",""
"","bandit","138","386612","0.0-100.0-0.0","46346453","wem/bandit_party_1","A3JDWMS5QJHREI","either","6","244","","","","","","","0","1","0","","0.2667579505","0.6","0.2","0.8","0.4","0.2667579505","0.0721355853","0.125555473","0.3617876187","","","","","","","","","","","","","","72","H","0","img/none_selected.jpg","","59","main_expt",""
"","bandit","139","388371","0.0-101.0-0.0","46346453","wem/bandit_party_1","A3JDWMS5QJHREI","either","6","253","","","","","","","0","0","1","0.2637313595","","0.6","0.2","0.8","0.4","","","","","0.2637313595","0.08871326978","0.1228814318","0.3018070945","","","","","","","","","","72","H","0","img/none_selected.jpg","","60","main_expt",""
"","bandit","140","390153","0.0-102.0-0.0","46346453","wem/bandit_party_1","A3JDWMS5QJHREI","either","6","278","","","","","","","0","0","1","","0.2400462537","0.6","0.2","0.8","0.4","0.2400462537","0.1472383223","0.195834737","0.2687465691","","","","","","","","","","","","","","72","H","0","img/none_selected.jpg","","61","main_expt",""
"","bandit","141","391970","0.0-103.0-0.0","46346453","wem/bandit_party_1","A3JDWMS5QJHREI","either","6","312","","","","","","","0","0","1","0.2396546157","","0.6","0.2","0.8","0.4","","","","","0.2396546157","0.1625866577","0.1952904108","0.287622952","","","","","","","","","","72","H","0","img/none_selected.jpg","","62","main_expt",""
"","bandit","142","393742","0.0-104.0-0.0","46346453","wem/bandit_party_1","A3JDWMS5QJHREI","either","6","267","","","","","","","0","0","1","","0.1196153378","0.6","0.2","0.8","0.4","0.2558687718","0.1196153378","0.187392073","0.2060093557","","","","","","","","","","","","","","74","J","1","","","63","main_expt",""
"","bandit","143","395567","0.0-105.0-0.0","46346453","wem/bandit_party_1","A3JDWMS5QJHREI","either","6","320","","","","","","","0","1","0","","0.1025290435","0.6","0.2","0.8","0.4","0.1789331692","0.1025290435","0.1774517964","0.1865830226","","","","","","","","","","","","","","74","J","1","","","64","main_expt",""
"","bandit","144","397391","0.0-106.0-0.0","46346453","wem/bandit_party_1","A3JDWMS5QJHREI","either","6","317","","","","","","","0","0","1","","0.06637487434","0.6","0.2","0.8","0.4","0.2041721298","0.06637487434","0.1956590225","0.2242960511","","","","","","","","","","","","","","74","J","1","","","65","main_expt",""
"","bandit","145","399159","0.0-107.0-0.0","46346453","wem/bandit_party_1","A3JDWMS5QJHREI","either","6","259","","","","","","","0","0","1","","0.09888809835","0.6","0.2","0.8","0.4","0.1083731131","0.09888809835","0.1559932489","0.213739571","","","","","","","","","","","","","","74","J","1","","","66","main_expt",""
"","bandit","146","400983","0.0-108.0-0.0","46346453","wem/bandit_party_1","A3JDWMS5QJHREI","either","6","315","","","","","","","0","0","1","0.08542348091","","0.6","0.2","0.8","0.4","","","","","0.08148965902","0.08542348091","0.1327283285","0.2463093088","","","","","","","","","","74","J","1","","","67","main_expt",""
"","bandit","147","402809","0.0-109.0-0.0","46346453","wem/bandit_party_1","A3JDWMS5QJHREI","either","6","315","","","","","","","0","0","1","0.1646421129","","0.6","0.2","0.8","0.4","","","","","0.115871946","0.05648132023","0.1646421129","0.1863602012","","","","","","","","","","75","K","2","","","68","main_expt",""
"","bandit","148","404546","0.0-110.0-0.0","46346453","wem/bandit_party_1","A3JDWMS5QJHREI","either","6","230","","","","","","","0","0","1","0.1879918005","","0.6","0.2","0.8","0.4","","","","","0.1049465522","0.07427448495","0.1879918005","0.1481768435","","","","","","","","","","75","K","2","","","69","main_expt",""
"","bandit","149","406342","0.0-111.0-0.0","46346453","wem/bandit_party_1","A3JDWMS5QJHREI","either","6","285","","","","","","","0","0","1","0.1224614501","","0.6","0.2","0.8","0.4","","","","","0.1224614501","0.1052870039","0.1708527721","0.2062415021","","","","","","","","","","72","H","0","img/none_selected.jpg","","70","main_expt",""
"","bandit","150","408076","0.0-112.0-0.0","46346453","wem/bandit_party_1","A3JDWMS5QJHREI","either","6","225","","","","","","","0","0","1","0.1687358413","","0.6","0.2","0.8","0.4","","","","","0.1687358413","0.1114501371","0.1930923514","0.2175562698","","","","","","","","","","72","H","0","img/none_selected.jpg","","71","main_expt",""
"","bandit","151","409801","0.0-113.0-0.0","46346453","wem/bandit_party_1","A3JDWMS5QJHREI","either","6","218","","","","","","","0","0","1","","0.2182173038","0.6","0.2","0.8","0.4","0.1902964731","0.1282799478","0.2289396243","0.2182173038","","","","","","","","","","","","","","76","L","3","","","72","main_expt",""
"","bandit","152","411516","0.0-114.0-0.0","46346453","wem/bandit_party_1","A3JDWMS5QJHREI","either","6","209","","","","","","","0","0","1","","0.1629952044","0.6","0.2","0.8","0.4","0.1764690901","0.1113050996","0.2223781067","0.1629952044","","","","","","","","","","","","","","76","L","3","","","73","main_expt",""
"","bandit","153","413354","0.0-115.0-0.0","46346453","wem/bandit_party_1","A3JDWMS5QJHREI","either","6","332","","","","","","","0","0","1","","0.1573287606","0.6","0.2","0.8","0.4","0.1720288853","0.1573287606","0.1664819569","0.2291178652","","","","","","","","","","","","","","74","J","1","","","74","main_expt",""
"","bandit","154","416068","0.0-116.0-0.0","46346453","wem/bandit_party_1","A3JDWMS5QJHREI","either","6","1206","","","","","","","0","0","1","","0.168318459","0.6","0.2","0.8","0.4","0.098780463","0.168318459","0.1157276324","0.2087405931","","","","","","","","","","","","","","74","J","1","","","75","main_expt",""
"","bandit","155","417925","0.0-117.0-0.0","46346453","wem/bandit_party_1","A3JDWMS5QJHREI","either","6","352","","","","","","","0","0","1","0.06912044911","","0.6","0.2","0.8","0.4","","","","","0.08192786134","0.131742089","0.06912044911","0.1981976751","","","","","","","","","","75","K","2","","","76","main_expt",""
"","bandit","156","419695","0.0-118.0-0.0","46346453","wem/bandit_party_1","A3JDWMS5QJHREI","either","6","263","","","","","","","0","1","0","","0.06151132513","0.6","0.2","0.8","0.4","0.03620126105","0.1382621175","0.06151132513","0.2302368041","","","","","","","","","","","","","","75","K","2","","","77","main_expt",""
"","bandit","157","421621","0.0-119.0-0.0","46346453","wem/bandit_party_1","A3JDWMS5QJHREI","either","6","414","","","","","","","0","0","1","0.08824794056","","0.6","0.2","0.8","0.4","","","","","0.03362754592","0.1351161864","0.08824794056","0.2538269909","","","","","","","","","","75","K","2","","","78","main_expt",""
"","bandit","158","423360","0.0-120.0-0.0","46346453","wem/bandit_party_1","A3JDWMS5QJHREI","either","6","227","","","","","","","0","0","1","0.08425003046","","0.6","0.2","0.8","0.4","","","","","0.03917851348","0.1125986002","0.08425003046","0.221492582","","","","","","","","","","75","K","2","","","79","main_expt",""
"","bandit","159","425145","0.0-121.0-0.0","46346453","wem/bandit_party_1","A3JDWMS5QJHREI","either","6","277","","","","","","","0","0","1","0.1059393704","","0.6","0.2","0.8","0.4","","","","","0.06916691586","0.1071358869","0.1059393704","0.2126184008","","","","","","","","","","75","K","2","","","80","main_expt",""
"","bandit","160","426651","0.0-122.0-0.0","46346453","wem/bandit_party_1","A3JDWMS5QJHREI","either","6","0","","","","","","","0","0","1","","0.1803612399","0.6","0.2","0.8","0.4","0.1110223174","0.1410751298","0.114990546","0.1803612399","","","","","","","","","","","","","","76","L","3","","","81","main_expt",""
"","bandit","161","428325","0.0-123.0-0.0","46346453","wem/bandit_party_1","A3JDWMS5QJHREI","either","6","167","","","","","","","0","0","1","","0.1883980103","0.6","0.2","0.8","0.4","0.08899533144","0.1518454263","0.1246300745","0.1883980103","","","","","","","","","","","","","","76","L","3","","","82","main_expt",""
"","bandit","162","430102","0.0-124.0-0.0","46346453","wem/bandit_party_1","A3JDWMS5QJHREI","either","6","270","","","","","","","0","0","1","0.2099895667","","0.6","0.2","0.8","0.4","","","","","0.1383499545","0.1285150734","0.1523433176","0.2099895667","","","","","","","","","","76","L","3","","","83","main_expt",""
"","bandit","163","431886","0.0-125.0-0.0","46346453","wem/bandit_party_1","A3JDWMS5QJHREI","either","6","279","","","","","","","0","0","1","0.1815119679","","0.6","0.2","0.8","0.4","","","","","0.1815119679","0.1083679187","0.1230513595","0.1760666055","","","","","","","","","","72","H","0","img/none_selected.jpg","","84","main_expt",""
"","bandit","164","433674","0.0-126.0-0.0","46346453","wem/bandit_party_1","A3JDWMS5QJHREI","either","6","278","","","","","","","0","1","0","","0.2121304898","0.6","0.2","0.8","0.4","0.2121304898","0.08985983991","0.1460595132","0.2077415988","","","","","","","","","","","","","","72","H","0","img/none_selected.jpg","","85","main_expt",""
"","bandit","165","435464","0.0-127.0-0.0","46346453","wem/bandit_party_1","A3JDWMS5QJHREI","either","6","277","","","","","","","0","0","1","0.1931166697","","0.6","0.2","0.8","0.4","","","","","0.1931166697","0.08377758623","0.1578730034","0.1940704576","","","","","","","","","","72","H","0","img/none_selected.jpg","","86","main_expt",""
"","bandit","166","438247","0.0-128.0-0.0","46346453","wem/bandit_party_1","A3JDWMS5QJHREI","either","6","1276","","","","","","","1","0","0","0.1908876969","","0.6","0.2","0.8","0.4","","","","","0.1908876969","0.08340742779","0.1329566931","0.1920524506","","","","","","","","","","72","H","0","img/none_selected.jpg","","87","main_expt",""
"","bandit","167","440026","0.0-129.0-0.0","46346453","wem/bandit_party_1","A3JDWMS5QJHREI","either","6","268","","","","","","","0","0","1","0.1727332377","","0.6","0.2","0.8","0.4","","","","","0.1727332377","0.06937011617","0.1156353122","0.2525081946","","","","","","","","","","72","H","0","img/none_selected.jpg","","88","main_expt",""
"","bandit","168","441773","0.0-130.0-0.0","46346453","wem/bandit_party_1","A3JDWMS5QJHREI","either","6","238","","","","","","","0","0","1","","0.1747664758","0.6","0.2","0.8","0.4","0.1747664758","0.08556693901","0.1169245856","0.2476280913","","","","","","","","","","","","","","72","H","0","img/none_selected.jpg","","89","main_expt",""
"","bandit","169","443518","0.0-131.0-0.0","46346453","wem/bandit_party_1","A3JDWMS5QJHREI","either","6","233","","","","","","","0","0","1","0.1302891894","","0.6","0.2","0.8","0.4","","","","","0.1302891894","0.1013294801","0.1276927611","0.2476417222","","","","","","","","","","72","H","0","img/none_selected.jpg","","90","main_expt",""
"","bandit","170","445243","0.0-132.0-0.0","46346453","wem/bandit_party_1","A3JDWMS5QJHREI","either","6","218","","","","","","","0","0","1","0.1143331172","","0.6","0.2","0.8","0.4","","","","","0.1143331172","0.1567130635","0.1633868825","0.1875867431","","","","","","","","","","72","H","0","img/none_selected.jpg","","91","main_expt",""
"","bandit","171","447051","0.0-133.0-0.0","46346453","wem/bandit_party_1","A3JDWMS5QJHREI","either","6","300","","","","","","","0","0","1","","0.1804963823","0.6","0.2","0.8","0.4","0.1674068059","0.1214255195","0.2172033847","0.1804963823","","","","","","","","","","","","","","76","L","3","","","92","main_expt",""
"","bandit","172","449015","0.0-134.0-0.0","46346453","wem/bandit_party_1","A3JDWMS5QJHREI","either","6","459","","","","","","","0","1","0","","0.1468121695","0.6","0.2","0.8","0.4","0.1405005834","0.1317465968","0.2178255547","0.1468121695","","","","","","","","","","","","","","76","L","3","","","93","main_expt",""
"","bandit","173","450796","0.0-135.0-0.0","46346453","wem/bandit_party_1","A3JDWMS5QJHREI","either","6","271","","","","","","","0","0","1","","0.1270151289","0.6","0.2","0.8","0.4","0.1338278818","0.1810196293","0.2058786334","0.1270151289","","","","","","","","","","","","","","76","L","3","","","94","main_expt",""
"","bandit","174","452566","0.0-136.0-0.0","46346453","wem/bandit_party_1","A3JDWMS5QJHREI","either","6","263","","","","","","","0","0","1","","0.1049494322","0.6","0.2","0.8","0.4","0.16416917","0.1537803575","0.2009860572","0.1049494322","","","","","","","","","","","","","","76","L","3","","","95","main_expt",""
"","bandit","175","454399","0.0-137.0-0.0","46346453","wem/bandit_party_1","A3JDWMS5QJHREI","either","6","325","","","","","","","0","1","0","","0.1242023773","0.6","0.2","0.8","0.4","0.1075549125","0.2255368078","0.2792576191","0.1242023773","","","","","","","","","","","","","","76","L","3","","","96","main_expt",""
"","bandit","176","456173","0.0-138.0-0.0","46346453","wem/bandit_party_1","A3JDWMS5QJHREI","either","6","265","","","","","","","0","0","1","0.101802889","","0.6","0.2","0.8","0.4","","","","","0.07285617598","0.1881791955","0.291042229","0.101802889","","","","","","","","","","76","L","3","","","97","main_expt",""
"","bandit","177","457980","0.0-139.0-0.0","46346453","wem/bandit_party_1","A3JDWMS5QJHREI","either","6","299","","","","","","","1","0","0","0.08559904752","","0.6","0.2","0.8","0.4","","","","","0.1128802937","0.1722186849","0.2919937097","0.08559904752","","","","","","","","","","76","L","3","","","98","main_expt",""
"","bandit","178","459895","0.0-140.0-0.0","46346453","wem/bandit_party_1","A3JDWMS5QJHREI","either","6","406","","","","","","","0","0","1","0.04480153982","","0.6","0.2","0.8","0.4","","","","","0.07338875894","0.2581810796","0.338066437","0.04480153982","","","","","","","","","","76","L","3","","","99","main_expt",""
"","bandit","179","461738","0.0-141.0-0.0","46346453","wem/bandit_party_1","A3JDWMS5QJHREI","either","6","336","","","","","","","0","0","1","0.03694367041","","0.6","0.2","0.8","0.4","","","","","0.06256672301","0.3094702251","0.3466775547","0.03694367041","","","","","","","","","","76","L","3","","","100","main_expt",""
"","bandit","180","463478","0.0-142.0-0.0","46346453","wem/bandit_party_1","A3JDWMS5QJHREI","either","6","232","","","","","","","0","0","1","","0.02534596886","0.6","0.2","0.8","0.4","0.06765033746","0.3217449289","0.3776837944","0.02534596886","","","","","","","","","","","","","","76","L","3","","","101","main_expt",""
"","bandit","181","465267","0.0-143.0-0.0","46346453","wem/bandit_party_1","A3JDWMS5QJHREI","either","6","283","","","","","","","0","0","1","","0.3988278911","0.6","0.2","0.8","0.4","0.08460413752","0.3656493725","0.3988278911","0.03456503798","","","","","","","","","","","","","","75","K","2","","","102","main_expt",""
"","bandit","182","467074","0.0-144.0-0.0","46346453","wem/bandit_party_1","A3JDWMS5QJHREI","either","6","298","","","","","","","0","0","1","0.3642388176","","0.6","0.2","0.8","0.4","","","","","0.1149622558","0.4097417878","0.3642388176","0.03116272615","","","","","","","","","","75","K","2","","","103","main_expt",""
"","bandit","183","468869","0.0-145.0-0.0","46346453","wem/bandit_party_1","A3JDWMS5QJHREI","either","6","283","","","","","","","0","0","1","0.3059376685","","0.6","0.2","0.8","0.4","","","","","0.1223821921","0.4005896235","0.3059376685","0.04034009898","","","","","","","","","","75","K","2","","","104","main_expt",""
"","bandit","184","470390","0.0-146.0-0.0","46346453","wem/bandit_party_1","A3JDWMS5QJHREI","either","6","9","","","","","","","0","0","1","","0.3967946647","0.6","0.2","0.8","0.4","0.1302837569","0.3967946647","0.2658022239","0.06132200156","","","","","","","","","","","","","","74","J","1","","","105","main_expt",""
"","bandit","185","472178","0.0-147.0-0.0","46346453","wem/bandit_party_1","A3JDWMS5QJHREI","either","6","282","","","","","","","0","1","0","","0.3920329447","0.6","0.2","0.8","0.4","0.1405927316","0.3920329447","0.2583534607","0.03171667797","","","","","","","","","","","","","","74","J","1","","","106","main_expt",""
"","bandit","186","473905","0.0-148.0-0.0","46346453","wem/bandit_party_1","A3JDWMS5QJHREI","either","6","220","","","","","","","0","0","1","0.3973329777","","0.6","0.2","0.8","0.4","","","","","0.1835021143","0.3973329777","0.2402432731","0.06603394544","","","","","","","","","","74","J","1","","","107","main_expt",""
"","bandit","187","475751","0.0-149.0-0.0","46346453","wem/bandit_party_1","A3JDWMS5QJHREI","either","6","338","","","","","","","0","0","1","0.3839010997","","0.6","0.2","0.8","0.4","","","","","0.2124513917","0.3839010997","0.2364509509","0.08137973005","","","","","","","","","","74","J","1","","","108","main_expt",""
"","bandit","188","477591","0.0-150.0-0.0","46346453","wem/bandit_party_1","A3JDWMS5QJHREI","either","6","329","","","","","","","1","0","0","0.218007314","","0.6","0.2","0.8","0.4","","","","","0.218007314","0.3879107289","0.2164051194","0.04765661509","","","","","","","","","","72","H","0","img/none_selected.jpg","","109","main_expt",""
"","bandit","189","479534","0.0-151.0-0.0","46346453","wem/bandit_party_1","A3JDWMS5QJHREI","either","6","437","","","","","","","0","0","1","0.229469423","","0.6","0.2","0.8","0.4","","","","","0.229469423","0.3989855113","0.1611838666","0.06789381979","","","","","","","","","","72","H","0","img/none_selected.jpg","","110","main_expt",""
"","bandit","190","481261","0.0-152.0-0.0","46346453","wem/bandit_party_1","A3JDWMS5QJHREI","either","6","222","","","","","","","0","1","0","","0.2923436213","0.6","0.2","0.8","0.4","0.2923436213","0.3959495959","0.2042622235","0.08972795074","","","","","","","","","","","","","","72","H","0","img/none_selected.jpg","","111","main_expt",""
"","bandit","191","483043","0.0-153.0-0.0","46346453","wem/bandit_party_1","A3JDWMS5QJHREI","either","6","274","","","","","","","1","0","0","0.2778802509","","0.6","0.2","0.8","0.4","","","","","0.2778802509","0.335596647","0.2113733305","0.1176683061","","","","","","","","","","72","H","0","img/none_selected.jpg","","112","main_expt",""
"","bandit","192","484784","0.0-154.0-0.0","46346453","wem/bandit_party_1","A3JDWMS5QJHREI","either","6","231","","","","","","","0","0","1","0.2852166322","","0.6","0.2","0.8","0.4","","","","","0.2852166322","0.2876347753","0.220236308","0.1973953549","","","","","","","","","","72","H","0","img/none_selected.jpg","","113","main_expt",""
"","bandit","193","486453","0.0-155.0-0.0","46346453","wem/bandit_party_1","A3JDWMS5QJHREI","either","6","164","","","","","","","0","0","1","","0.3222351196","0.6","0.2","0.8","0.4","0.3222351196","0.2811359795","0.2453392608","0.200840576","","","","","","","","","","","","","","72","H","0","img/none_selected.jpg","","114","main_expt",""
"","bandit","194","488204","0.0-156.0-0.0","46346453","wem/bandit_party_1","A3JDWMS5QJHREI","either","6","243","","","","","","","0","0","1","","0.2865303103","0.6","0.2","0.8","0.4","0.2865303103","0.2056035349","0.2311931225","0.2544006126","","","","","","","","","","","","","","72","H","0","img/none_selected.jpg","","115","main_expt",""
"","bandit","195","489934","0.0-157.0-0.0","46346453","wem/bandit_party_1","A3JDWMS5QJHREI","either","6","222","","","","","","","0","0","1","0.1901772154","","0.6","0.2","0.8","0.4","","","","","0.1901772154","0.2435386161","0.2290532582","0.2264812366","","","","","","","","","","72","H","0","img/none_selected.jpg","","116","main_expt",""
"","bandit","196","491718","0.0-158.0-0.0","46346453","wem/bandit_party_1","A3JDWMS5QJHREI","either","6","274","","","","","","","0","0","1","","0.2535822563","0.6","0.2","0.8","0.4","0.1854727963","0.2523066444","0.2610634121","0.2535822563","","","","","","","","","","","","","","76","L","3","","","117","main_expt",""
"","bandit","197","493345","0.0-159.0-0.0","46346453","wem/bandit_party_1","A3JDWMS5QJHREI","either","6","119","","","","","","","0","1","0","","0.288462609","0.6","0.2","0.8","0.4","0.223078523","0.258758296","0.2915584027","0.288462609","","","","","","","","","","","","","","76","L","3","","","118","main_expt",""
"","bandit","198","495109","0.0-160.0-0.0","46346453","wem/bandit_party_1","A3JDWMS5QJHREI","either","6","253","","","","","","","0","0","1","","0.3077733757","0.6","0.2","0.8","0.4","0.2157898803","0.2513882557","0.3240034744","0.3077733757","","","","","","","","","","","","","","76","L","3","","","119","main_expt",""
"","bandit","199","496879","0.0-161.0-0.0","46346453","wem/bandit_party_1","A3JDWMS5QJHREI","either","6","260","","","","","","","0","0","1","0.3470363664","","0.6","0.2","0.8","0.4","","","","","0.2055853597","0.2178230887","0.3584552205","0.3470363664","","","","","","","","","","76","L","3","","","120","main_expt",""
"","bandit","200","498617","0.0-162.0-0.0","46346453","wem/bandit_party_1","A3JDWMS5QJHREI","either","6","232","","","","","","","1","0","0","0.3392259721","","0.6","0.2","0.8","0.4","","","","","0.2308362602","0.2249913612","0.3392259721","0.36369082","","","","","","","","","","75","K","2","","","121","main_expt",""
"","bandit","201","500411","0.0-163.0-0.0","46346453","wem/bandit_party_1","A3JDWMS5QJHREI","either","6","286","","","","","","","1","0","0","0.3211990091","","0.6","0.2","0.8","0.4","","","","","0.1858821776","0.2135386538","0.3211990091","0.3740977319","","","","","","","","","","75","K","2","","","122","main_expt",""
"","bandit","202","502170","0.0-164.0-0.0","46346453","wem/bandit_party_1","A3JDWMS5QJHREI","either","6","248","","","","","","","1","0","0","0.3082515077","","0.6","0.2","0.8","0.4","","","","","0.1948645322","0.2742148462","0.3082515077","0.3617230251","","","","","","","","","","75","K","2","","","123","main_expt",""
"","bandit","203","503912","0.0-165.0-0.0","46346453","wem/bandit_party_1","A3JDWMS5QJHREI","either","6","233","","","","","","","0","0","1","","0.3337980485","0.6","0.2","0.8","0.4","0.1875433284","0.3092488957","0.3337980485","0.3189133642","","","","","","","","","","","","","","75","K","2","","","124","main_expt",""
"","bandit","204","505669","0.0-166.0-0.0","46346453","wem/bandit_party_1","A3JDWMS5QJHREI","either","6","247","","","","","","","0","0","1","","0.2815584253","0.6","0.2","0.8","0.4","0.1805360773","0.2832498899","0.2815584253","0.3134342975","","","","","","","","","","","","","","75","K","2","","","125","main_expt",""
"","bandit","205","507400","0.0-167.0-0.0","46346453","wem/bandit_party_1","A3JDWMS5QJHREI","either","6","224","","","","","","","1","0","0","0.2544389989","","0.6","0.2","0.8","0.4","","","","","0.2199741614","0.321902755","0.2544389989","0.2889117865","","","","","","","","","","75","K","2","","","126","main_expt",""
"","bandit","206","509145","0.0-168.0-0.0","46346453","wem/bandit_party_1","A3JDWMS5QJHREI","either","6","239","","","","","","","1","0","0","0.217883989","","0.6","0.2","0.8","0.4","","","","","0.212963778","0.3163630435","0.217883989","0.3101500906","","","","","","","","","","75","K","2","","","127","main_expt",""
"","bandit","207","510899","0.0-169.0-0.0","46346453","wem/bandit_party_1","A3JDWMS5QJHREI","either","6","247","","","","","","","0","0","1","0.1941215274","","0.6","0.2","0.8","0.4","","","","","0.1853882534","0.3242789072","0.1941215274","0.3257933697","","","","","","","","","","75","K","2","","","128","main_expt",""
"","bandit","208","512561","0.0-170.0-0.0","46346453","wem/bandit_party_1","A3JDWMS5QJHREI","either","6","146","","","","","","","0","0","1","0.2093197904","","0.6","0.2","0.8","0.4","","","","","0.1486900389","0.3430844202","0.2093197904","0.2767822115","","","","","","","","","","75","K","2","","","129","main_expt",""
"","bandit","209","514199","0.0-171.0-0.0","46346453","wem/bandit_party_1","A3JDWMS5QJHREI","either","6","125","","","","","","","1","0","0","0.2325895014","","0.6","0.2","0.8","0.4","","","","","0.1581202816","0.3487272729","0.2325895014","0.3389859305","","","","","","","","","","75","K","2","","","130","main_expt",""
"","bandit","210","515951","0.0-172.0-0.0","46346453","wem/bandit_party_1","A3JDWMS5QJHREI","either","6","246","","","","","","","0","0","1","0.2680880231","","0.6","0.2","0.8","0.4","","","","","0.1189605486","0.3850752379","0.2680880231","0.2807576759","","","","","","","","","","75","K","2","","","131","main_expt",""
"","bandit","211","517722","0.0-173.0-0.0","46346453","wem/bandit_party_1","A3JDWMS5QJHREI","either","6","263","","","","","","","0","0","1","0.2053564998","","0.6","0.2","0.8","0.4","","","","","0.08638656351","0.3547422913","0.2053564998","0.2044414959","","","","","","","","","","75","K","2","","","132","main_expt",""
"","bandit","212","519509","0.0-174.0-0.0","46346453","wem/bandit_party_1","A3JDWMS5QJHREI","either","6","280","","","","","","","0","0","1","","0.2102644512","0.6","0.2","0.8","0.4","0.104542274","0.3256782816","0.2102644512","0.2352631215","","","","","","","","","","","","","","75","K","2","","","133","main_expt",""
"","bandit","213","521048","0.0-175.0-0.0","46346453","wem/bandit_party_1","A3JDWMS5QJHREI","either","6","28","","","","","","","0","0","1","0.2028105977","","0.6","0.2","0.8","0.4","","","","","0.1401790922","0.2479378245","0.2028105977","0.2808822736","","","","","","","","","","75","K","2","","","134","main_expt",""
"","bandit","214","522627","0.0-176.0-0.0","46346453","wem/bandit_party_1","A3JDWMS5QJHREI","either","6","73","","","","","","","0","0","1","","0.24301602","0.6","0.2","0.8","0.4","0.1818128853","0.24301602","0.1556880781","0.3053704558","","","","","","","","","","","","","","74","J","1","","","135","main_expt",""
"","bandit","215","524385","0.0-177.0-0.0","46346453","wem/bandit_party_1","A3JDWMS5QJHREI","either","6","249","","","","","","","0","0","1","","0.2630427063","0.6","0.2","0.8","0.4","0.1583738081","0.2630427063","0.1428421262","0.3140058771","","","","","","","","","","","","","","74","J","1","","","136","main_expt",""
"","bandit","216","526302","0.0-178.0-0.0","46346453","wem/bandit_party_1","A3JDWMS5QJHREI","either","6","405","","","","","","","1","0","0","0.323699752","","0.6","0.2","0.8","0.4","","","","","0.1497920091","0.3053425806","0.1039390038","0.323699752","","","","","","","","","","76","L","3","","","137","main_expt",""
"","bandit","217","528001","0.0-179.0-0.0","46346453","wem/bandit_party_1","A3JDWMS5QJHREI","either","6","192","","","","","","","0","0","1","","0.3435108126","0.6","0.2","0.8","0.4","0.1128601551","0.3588623722","0.07132433681","0.3435108126","","","","","","","","","","","","","","76","L","3","","","138","main_expt",""
"","bandit","218","529769","0.0-180.0-0.0","46346453","wem/bandit_party_1","A3JDWMS5QJHREI","either","6","254","","","","","","","0","0","1","","0.3505637202","0.6","0.2","0.8","0.4","0.1073604677","0.2762704672","0.1047165976","0.3505637202","","","","","","","","","","","","","","76","L","3","","","139","main_expt",""
"","bandit","219","531824","0.0-181.0-0.0","46346453","wem/bandit_party_1","A3JDWMS5QJHREI","either","6","549","","","","","","","0","1","0","","0.4185251601","0.6","0.2","0.8","0.4","0.1376710563","0.2475753012","0.09043849554","0.4185251601","","","","","","","","","","","","","","76","L","3","","","140","main_expt",""
"","bandit","220","533577","0.0-182.0-0.0","46346453","wem/bandit_party_1","A3JDWMS5QJHREI","either","6","246","","","","","","","0","1","0","","0.4225289085","0.6","0.2","0.8","0.4","0.1412662962","0.2436306075","0.05096505815","0.4225289085","","","","","","","","","","","","","","76","L","3","","","141","main_expt",""
"","bandit","221","535302","0.0-183.0-0.0","46346453","wem/bandit_party_1","A3JDWMS5QJHREI","either","6","212","","","","","","","0","1","0","","0.455259632","0.6","0.2","0.8","0.4","0.1543424817","0.1998899021","0.02973759478","0.455259632","","","","","","","","","","","","","","76","L","3","","","142","main_expt",""
"","bandit","222","536992","0.0-184.0-0.0","46346453","wem/bandit_party_1","A3JDWMS5QJHREI","either","6","182","","","","","","","0","0","1","","0.4287003803","0.6","0.2","0.8","0.4","0.1552636118","0.2568100034","0.04457260366","0.4287003803","","","","","","","","","","","","","","76","L","3","","","143","main_expt",""
"","bandit","223","538718","0.0-185.0-0.0","46346453","wem/bandit_party_1","A3JDWMS5QJHREI","either","6","214","","","","","","","1","0","0","0.4260506414","","0.6","0.2","0.8","0.4","","","","","0.2241753426","0.2859833531","0.04060115041","0.4260506414","","","","","","","","","","76","L","3","","","144","main_expt",""
"","bandit","224","540330","0.0-186.0-0.0","46346453","wem/bandit_party_1","A3JDWMS5QJHREI","either","6","102","","","","","","","0","1","0","","0.4202170594","0.6","0.2","0.8","0.4","0.2484131349","0.2080640158","0.06712401514","0.4202170594","","","","","","","","","","","","","","76","L","3","","","145","main_expt",""
"","bandit","225","542089","0.0-187.0-0.0","46346453","wem/bandit_party_1","A3JDWMS5QJHREI","either","6","248","","","","","","","0","0","1","","0.4333226383","0.6","0.2","0.8","0.4","0.2905032103","0.2469639643","0.08780921534","0.4333226383","","","","","","","","","","","","","","76","L","3","","","146","main_expt",""
"","bandit","226","543826","0.0-188.0-0.0","46346453","wem/bandit_party_1","A3JDWMS5QJHREI","either","6","223","","","","","","","1","0","0","0.4340954059","","0.6","0.2","0.8","0.4","","","","","0.2846703457","0.2169279296","0.1333368233","0.4340954059","","","","","","","","","","76","L","3","","","147","main_expt",""
"","bandit","227","545587","0.0-189.0-0.0","46346453","wem/bandit_party_1","A3JDWMS5QJHREI","either","6","249","","","","","","","0","1","0","","0.3903754431","0.6","0.2","0.8","0.4","0.3010433131","0.1248284812","0.09264147873","0.3903754431","","","","","","","","","","","","","","76","L","3","","","148","main_expt",""
"","bandit","228","547331","0.0-190.0-0.0","46346453","wem/bandit_party_1","A3JDWMS5QJHREI","either","6","236","","","","","","","0","0","1","0.4161192262","","0.6","0.2","0.8","0.4","","","","","0.3421268102","0.1498862571","0.123708687","0.4161192262","","","","","","","","","","76","L","3","","","149","main_expt",""
"","bandit","229","548932","0.0-191.0-0.0","46346453","wem/bandit_party_1","A3JDWMS5QJHREI","either","6","94","","","","","","","0","0","1","0.4545257836","","0.6","0.2","0.8","0.4","","","","","0.3382865341","0.2044632824","0.1087811601","0.4545257836","","","","","","","","","","76","L","3","","","150","main_expt",""
"","bandit","230","550642","0.0-192.0-0.0","46346453","wem/bandit_party_1","A3JDWMS5QJHREI","either","6","202","","","","","","","0","1","0","","0.4553704948","0.6","0.2","0.8","0.4","0.3031951358","0.1630699797","0.1640336927","0.4553704948","","","","","","","","","","","","","","76","L","3","","","151","main_expt",""
"","bandit","231","552438","0.0-193.0-0.0","46346453","wem/bandit_party_1","A3JDWMS5QJHREI","either","6","289","","","","","","","0","0","1","","0.4692720684","0.6","0.2","0.8","0.4","0.3163498213","0.1534962237","0.1474195158","0.4692720684","","","","","","","","","","","","","","76","L","3","","","152","main_expt",""
"","bandit","232","554011","0.0-194.0-0.0","46346453","wem/bandit_party_1","A3JDWMS5QJHREI","either","6","65","","","","","","","0","0","1","0.4794448159","","0.6","0.2","0.8","0.4","","","","","0.3205280093","0.1506701345","0.1200421148","0.4794448159","","","","","","","","","","76","L","3","","","153","main_expt",""
"","bandit","233","555627","0.0-195.0-0.0","46346453","wem/bandit_party_1","A3JDWMS5QJHREI","either","6","109","","","","","","","0","1","0","","0.4762011242","0.6","0.2","0.8","0.4","0.2780981807","0.1810992197","0.1295208369","0.4762011242","","","","","","","","","","","","","","76","L","3","","","154","main_expt",""
"","bandit","234","557363","0.0-196.0-0.0","46346453","wem/bandit_party_1","A3JDWMS5QJHREI","either","6","228","","","","","","","0","0","1","","0.4797315341","0.6","0.2","0.8","0.4","0.2543788853","0.2574031695","0.1189574303","0.4797315341","","","","","","","","","","","","","","76","L","3","","","155","main_expt",""
"","bandit","235","559092","0.0-197.0-0.0","46346453","wem/bandit_party_1","A3JDWMS5QJHREI","either","6","219","","","","","","","0","1","0","","0.4815153028","0.6","0.2","0.8","0.4","0.2601772157","0.1838662476","0.1511338071","0.4815153028","","","","","","","","","","","","","","76","L","3","","","156","main_expt",""
"","bandit","236","560811","0.0-198.0-0.0","46346453","wem/bandit_party_1","A3JDWMS5QJHREI","either","6","211","","","","","","","0","1","0","","0.4769669351","0.6","0.2","0.8","0.4","0.27050514","0.1951262555","0.1494559257","0.4769669351","","","","","","","","","","","","","","76","L","3","","","157","main_expt",""
"","bandit","237","562501","0.0-199.0-0.0","46346453","wem/bandit_party_1","A3JDWMS5QJHREI","either","6","178","","","","","","","0","0","1","0.4819637572","","0.6","0.2","0.8","0.4","","","","","0.2912044809","0.1711173681","0.1398300683","0.4819637572","","","","","","","","","","76","L","3","","","158","main_expt",""
"","bandit","238","564211","0.0-200.0-0.0","46346453","wem/bandit_party_1","A3JDWMS5QJHREI","either","6","203","","","","","","","0","0","1","0.4802617926","","0.6","0.2","0.8","0.4","","","","","0.2863852675","0.1262927185","0.1482700517","0.4802617926","","","","","","","","","","76","L","3","","","159","main_expt",""
"","bandit","239","565912","0.0-201.0-0.0","46346453","wem/bandit_party_1","A3JDWMS5QJHREI","either","6","194","","","","","","","1","0","0","0.4834703177","","0.6","0.2","0.8","0.4","","","","","0.3188379944","0.1289005464","0.1327856751","0.4834703177","","","","","","","","","","76","L","3","","","160","main_expt",""
"","bandit","240","567655","0.0-202.0-0.0","46346453","wem/bandit_party_1","A3JDWMS5QJHREI","either","6","234","","","","","","","0","0","1","","0.4783639554","0.6","0.2","0.8","0.4","0.3918259889","0.07062595825","0.1936248495","0.4783639554","","","","","","","","","","","","","","76","L","3","","","161","main_expt",""
"","bandit","241","569387","0.0-203.0-0.0","46346453","wem/bandit_party_1","A3JDWMS5QJHREI","either","6","214","","","","","","","0","1","0","","0.4702379588","0.6","0.2","0.8","0.4","0.3825352776","0.08554885259","0.1917288119","0.4702379588","","","","","","","","","","","","","","76","L","3","","","162","main_expt",""
"","bandit","242","571006","0.0-204.0-0.0","46346453","wem/bandit_party_1","A3JDWMS5QJHREI","either","6","110","","","","","","","0","0","1","","0.4761999765","0.6","0.2","0.8","0.4","0.3500114378","0.05790820845","0.2410074379","0.4761999765","","","","","","","","","","","","","","76","L","3","","","163","main_expt",""
"","bandit","243","572649","0.0-205.0-0.0","46346453","wem/bandit_party_1","A3JDWMS5QJHREI","either","6","134","","","","","","","0","0","1","0.4683988395","","0.6","0.2","0.8","0.4","","","","","0.3138306729","0.04744410613","0.2717164652","0.4683988395","","","","","","","","","","76","L","3","","","164","main_expt",""
"","bandit","244","574423","0.0-206.0-0.0","46346453","wem/bandit_party_1","A3JDWMS5QJHREI","either","6","266","","","","","","","0","0","1","0.4594806004","","0.6","0.2","0.8","0.4","","","","","0.3066591237","0.07721988326","0.3360488911","0.4594806004","","","","","","","","","","76","L","3","","","165","main_expt",""
"","bandit","245","576082","0.0-207.0-0.0","46346453","wem/bandit_party_1","A3JDWMS5QJHREI","either","6","138","","","","","","","0","1","0","","0.4769271284","0.6","0.2","0.8","0.4","0.359337808","0.09276645858","0.3288768439","0.4769271284","","","","","","","","","","","","","","76","L","3","","","166","main_expt",""
"","bandit","246","577822","0.0-208.0-0.0","46346453","wem/bandit_party_1","A3JDWMS5QJHREI","either","6","226","","","","","","","0","0","1","","0.4824675089","0.6","0.2","0.8","0.4","0.3888119778","0.1092251717","0.341079324","0.4824675089","","","","","","","","","","","","","","76","L","3","","","167","main_expt",""
"","bandit","247","579462","0.0-209.0-0.0","46346453","wem/bandit_party_1","A3JDWMS5QJHREI","either","6","124","","","","","","","1","0","0","0.4731218304","","0.6","0.2","0.8","0.4","","","","","0.3188253523","0.09704797424","0.2972081376","0.4731218304","","","","","","","","","","76","L","3","","","168","main_expt",""
"","bandit","248","581225","0.0-210.0-0.0","46346453","wem/bandit_party_1","A3JDWMS5QJHREI","either","6","255","","","","","","","0","0","1","0.4558692975","","0.6","0.2","0.8","0.4","","","","","0.3035082617","0.1131958007","0.2716537329","0.4558692975","","","","","","","","","","76","L","3","","","169","main_expt",""
"","bandit","249","582935","0.0-211.0-0.0","46346453","wem/bandit_party_1","A3JDWMS5QJHREI","either","6","202","","","","","","","1","0","0","0.424927817","","0.6","0.2","0.8","0.4","","","","","0.3540810543","0.1636150477","0.3705489528","0.424927817","","","","","","","","","","76","L","3","","","170","main_expt",""
"","bandit","250","584670","0.0-212.0-0.0","46346453","wem/bandit_party_1","A3JDWMS5QJHREI","either","6","223","","","","","","","1","0","0","0.4254050478","","0.6","0.2","0.8","0.4","","","","","0.2912941695","0.1889182236","0.3259531709","0.4254050478","","","","","","","","","","76","L","3","","","171","main_expt",""
"","bandit","251","586453","0.0-213.0-0.0","46346453","wem/bandit_party_1","A3JDWMS5QJHREI","either","6","272","","","","","","","0","1","0","","0.4319935488","0.6","0.2","0.8","0.4","0.2964718019","0.1494540944","0.3253578443","0.4319935488","","","","","","","","","","","","","","76","L","3","","","172","main_expt",""
"","bandit","252","588263","0.0-214.0-0.0","46346453","wem/bandit_party_1","A3JDWMS5QJHREI","either","6","301","","","","","","","0","0","1","","0.4157756128","0.6","0.2","0.8","0.4","0.2411205861","0.1700291406","0.3133285256","0.4157756128","","","","","","","","","","","","","","76","L","3","","","173","main_expt",""
"","bandit","253","590158","0.0-215.0-0.0","46346453","wem/bandit_party_1","A3JDWMS5QJHREI","either","6","382","","","","","","","0","1","0","","0.3650518631","0.6","0.2","0.8","0.4","0.2132737127","0.2007600912","0.3470844982","0.3650518631","","","","","","","","","","","","","","76","L","3","","","174","main_expt",""
"","bandit","254","591990","0.0-216.0-0.0","46346453","wem/bandit_party_1","A3JDWMS5QJHREI","either","6","324","","","","","","","0","0","1","","0.3583375904","0.6","0.2","0.8","0.4","0.2722172758","0.1613291475","0.3615725976","0.3583375904","","","","","","","","","","","","","","76","L","3","","","175","main_expt",""
"","bandit","255","593777","0.0-217.0-0.0","46346453","wem/bandit_party_1","A3JDWMS5QJHREI","either","6","272","","","","","","","0","0","1","","0.3849487833","0.6","0.2","0.8","0.4","0.3158297255","0.1618540135","0.3592449917","0.3849487833","","","","","","","","","","","","","","76","L","3","","","176","main_expt",""
"","bandit","256","595628","0.0-218.0-0.0","46346453","wem/bandit_party_1","A3JDWMS5QJHREI","either","6","335","","","","","","","0","0","1","","0.3741193846","0.6","0.2","0.8","0.4","0.3033070912","0.1337509382","0.3614776984","0.3741193846","","","","","","","","","","","","","","76","L","3","","","177","main_expt",""
"","bandit","257","597785","0.0-219.0-0.0","46346453","wem/bandit_party_1","A3JDWMS5QJHREI","either","6","649","","","","","","","0","0","1","","0.3704436283","0.6","0.2","0.8","0.4","0.3070990366","0.172909152","0.4042649322","0.3704436283","","","","","","","","","","","","","","76","L","3","","","178","main_expt",""
"","bandit","258","599328","0.0-220.0-0.0","46346453","wem/bandit_party_1","A3JDWMS5QJHREI","either","6","31","","","","","","","0","0","1","","0.349206168","0.6","0.2","0.8","0.4","0.349206168","0.2306318455","0.3626499081","0.3718647044","","","","","","","","","","","","","","72","H","0","img/none_selected.jpg","","179","main_expt",""
"","bandit","259","600944","0.0-221.0-0.0","46346453","wem/bandit_party_1","A3JDWMS5QJHREI","either","6","105","","","","","","","1","0","0","0.3533593609","","0.6","0.2","0.8","0.4","","","","","0.3533593609","0.2531752843","0.365831292","0.3144845341","","","","","","","","","","72","H","0","img/none_selected.jpg","","180","main_expt",""
"","bandit","260","602735","0.0-222.0-0.0","46346453","wem/bandit_party_1","A3JDWMS5QJHREI","either","6","281","","","","","","","0","0","1","0.3792633926","","0.6","0.2","0.8","0.4","","","","","0.3792633926","0.2995137733","0.3720079561","0.3328992573","","","","","","","","","","72","H","0","img/none_selected.jpg","","181","main_expt",""
"","bandit","261","604802","0.0-223.0-0.0","46346453","wem/bandit_party_1","A3JDWMS5QJHREI","either","6","559","","","","","","","0","1","0","","0.4170401524","0.6","0.2","0.8","0.4","0.4170401524","0.2818604164","0.3747751333","0.3443004049","","","","","","","","","","","","","","72","H","0","img/none_selected.jpg","","182","main_expt",""
"","bandit","262","606559","0.0-224.0-0.0","46346453","wem/bandit_party_1","A3JDWMS5QJHREI","either","6","245","","","","","","","0","0","1","0.4349898381","","0.6","0.2","0.8","0.4","","","","","0.4349898381","0.2706787236","0.3772869326","0.3572445505","","","","","","","","","","72","H","0","img/none_selected.jpg","","183","main_expt",""
"","bandit","263","608288","0.0-225.0-0.0","46346453","wem/bandit_party_1","A3JDWMS5QJHREI","either","6","220","","","","","","","1","0","0","0.4355724899","","0.6","0.2","0.8","0.4","","","","","0.4355724899","0.2788381055","0.3719200221","0.358140682","","","","","","","","","","72","H","0","img/none_selected.jpg","","184","main_expt",""
"","bandit","264","610069","0.0-226.0-0.0","46346453","wem/bandit_party_1","A3JDWMS5QJHREI","either","6","271","","","","","","","0","0","1","","0.443517249","0.6","0.2","0.8","0.4","0.443517249","0.2591604306","0.3759280431","0.2938856532","","","","","","","","","","","","","","72","H","0","img/none_selected.jpg","","185","main_expt",""
"","bandit","265","611872","0.0-227.0-0.0","46346453","wem/bandit_party_1","A3JDWMS5QJHREI","either","6","290","","","","","","","0","0","1","","0.4185550765","0.6","0.2","0.8","0.4","0.4185550765","0.1717283936","0.3686405037","0.2570442146","","","","","","","","","","","","","","72","H","0","img/none_selected.jpg","","186","main_expt",""
"","bandit","266","613706","0.0-228.0-0.0","46346453","wem/bandit_party_1","A3JDWMS5QJHREI","either","6","319","","","","","","","1","0","0","0.4582246802","","0.6","0.2","0.8","0.4","","","","","0.4582246802","0.1399016055","0.3693778387","0.2781151114","","","","","","","","","","72","H","0","img/none_selected.jpg","","187","main_expt",""
"","bandit","267","615520","0.0-229.0-0.0","46346453","wem/bandit_party_1","A3JDWMS5QJHREI","either","6","303","","","","","","","0","0","1","","0.4499637214","0.6","0.2","0.8","0.4","0.4499637214","0.116743447","0.3858781765","0.2510368257","","","","","","","","","","","","","","72","H","0","img/none_selected.jpg","","188","main_expt",""
"","bandit","268","617316","0.0-230.0-0.0","46346453","wem/bandit_party_1","A3JDWMS5QJHREI","either","6","285","","","","","","","0","1","0","","0.4681283031","0.6","0.2","0.8","0.4","0.4681283031","0.09810356538","0.353665234","0.2299291889","","","","","","","","","","","","","","72","H","0","img/none_selected.jpg","","189","main_expt",""
"","bandit","269","619060","0.0-231.0-0.0","46346453","wem/bandit_party_1","A3JDWMS5QJHREI","either","6","233","","","","","","","0","1","0","","0.4672384316","0.6","0.2","0.8","0.4","0.4672384316","0.1333212727","0.3702546744","0.2957770397","","","","","","","","","","","","","","72","H","0","img/none_selected.jpg","","190","main_expt",""
"","bandit","270","620795","0.0-232.0-0.0","46346453","wem/bandit_party_1","A3JDWMS5QJHREI","either","6","224","","","","","","","0","0","1","0.4633056668","","0.6","0.2","0.8","0.4","","","","","0.4633056668","0.07289491444","0.3373283559","0.2806998676","","","","","","","","","","72","H","0","img/none_selected.jpg","","191","main_expt",""
"","bandit","271","622590","0.0-233.0-0.0","46346453","wem/bandit_party_1","A3JDWMS5QJHREI","either","6","286","","","","","","","0","1","0","","0.4701423021","0.6","0.2","0.8","0.4","0.4701423021","0.09060717316","0.3717228864","0.2578649702","","","","","","","","","","","","","","72","H","0","img/none_selected.jpg","","192","main_expt",""
"","bandit","272","624344","0.0-234.0-0.0","46346453","wem/bandit_party_1","A3JDWMS5QJHREI","either","6","247","","","","","","","0","0","1","0.4625827917","","0.6","0.2","0.8","0.4","","","","","0.4625827917","0.1038106097","0.3861484819","0.3019093773","","","","","","","","","","72","H","0","img/none_selected.jpg","","193","main_expt",""
"","bandit","273","626303","0.0-235.0-0.0","46346453","wem/bandit_party_1","A3JDWMS5QJHREI","either","6","450","","","","","","","0","1","0","","0.4480064119","0.6","0.2","0.8","0.4","0.4480064119","0.1222204007","0.3884838939","0.3028603149","","","","","","","","","","","","","","72","H","0","img/none_selected.jpg","","194","main_expt",""
"","bandit","274","628174","0.0-236.0-0.0","46346453","wem/bandit_party_1","A3JDWMS5QJHREI","either","6","361","","","","","","","0","0","1","","0.4263193963","0.6","0.2","0.8","0.4","0.4263193963","0.1230179676","0.4058549971","0.2933095063","","","","","","","","","","","","","","72","H","0","img/none_selected.jpg","","195","main_expt",""
"","bandit","275","630028","0.0-237.0-0.0","46346453","wem/bandit_party_1","A3JDWMS5QJHREI","either","6","343","","","","","","","0","1","0","","0.4399191733","0.6","0.2","0.8","0.4","0.4399191733","0.1972068901","0.3894648227","0.3333663608","","","","","","","","","","","","","","72","H","0","img/none_selected.jpg","","196","main_expt",""
"","bandit","276","632420","0.0-238.0-0.0","46346453","wem/bandit_party_1","A3JDWMS5QJHREI","either","6","876","","","","","","","0","0","1","0.4303685687","","0.6","0.2","0.8","0.4","","","","","0.4303685687","0.2091218652","0.3452919481","0.3472763543","","","","","","","","","","72","H","0","img/none_selected.jpg","","197","main_expt",""
"","bandit","277","634574","0.0-239.0-0.0","46346453","wem/bandit_party_1","A3JDWMS5QJHREI","either","6","644","","","","","","","0","1","0","","0.4166638701","0.6","0.2","0.8","0.4","0.4166638701","0.2316117542","0.3571156804","0.3420385624","","","","","","","","","","","","","","72","H","0","img/none_selected.jpg","","198","main_expt",""
"","bandit","278","636383","0.0-240.0-0.0","46346453","wem/bandit_party_1","A3JDWMS5QJHREI","either","6","293","","","","","","","0","1","0","","0.4166192342","0.6","0.2","0.8","0.4","0.4166192342","0.1983173389","0.3761278261","0.3009927129","","","","","","","","","","","","","","72","H","0","img/none_selected.jpg","","199","main_expt",""
"","bandit","279","638159","0.0-241.0-0.0","46346453","wem/bandit_party_1","A3JDWMS5QJHREI","either","6","268","","","","","","","0","0","1","","0.4065109498","0.6","0.2","0.8","0.4","0.4065109498","0.2275108597","0.3623939384","0.2834367318","","","","","","","","","","","","","","72","H","0","img/none_selected.jpg","","200","main_expt",""
"","bandit","280","640062","0.0-242.0-0.0","46346453","wem/bandit_party_1","A3JDWMS5QJHREI","either","6","387","","","","","","","0","0","1","0.4210367682","","0.6","0.2","0.8","0.4","","","","","0.4210367682","0.2753755663","0.3470966653","0.2305195973","","","","","","","","","","72","H","0","img/none_selected.jpg","","201","main_expt",""
"","bandit","281","641825","0.0-243.0-0.0","46346453","wem/bandit_party_1","A3JDWMS5QJHREI","either","6","254","","","","","","","0","1","0","","0.4059774394","0.6","0.2","0.8","0.4","0.4059774394","0.2867984519","0.3738670455","0.236439039","","","","","","","","","","","","","","72","H","0","img/none_selected.jpg","","202","main_expt",""
"","bandit","282","643644","0.0-244.0-0.0","46346453","wem/bandit_party_1","A3JDWMS5QJHREI","either","6","298","","","","","","","0","1","0","","0.4217634448","0.6","0.2","0.8","0.4","0.4217634448","0.227681123","0.4434414113","0.207292508","","","","","","","","","","","","","","72","H","0","img/none_selected.jpg","","203","main_expt",""
"","bandit","283","645413","0.0-245.0-0.0","46346453","wem/bandit_party_1","A3JDWMS5QJHREI","either","6","257","","","","","","","1","0","0","0.417590799","","0.6","0.2","0.8","0.4","","","","","0.417590799","0.2421814767","0.4363530878","0.2706274655","","","","","","","","","","72","H","0","img/none_selected.jpg","","204","main_expt",""
"","bandit","284","647185","0.0-246.0-0.0","46346453","wem/bandit_party_1","A3JDWMS5QJHREI","either","6","265","","","","","","","1","0","0","0.3892328218","","0.6","0.2","0.8","0.4","","","","","0.3892328218","0.2250127273","0.4390009565","0.2688171721","","","","","","","","","","72","H","0","img/none_selected.jpg","","205","main_expt",""
"","bandit","285","648908","0.0-247.0-0.0","46346453","wem/bandit_party_1","A3JDWMS5QJHREI","either","6","211","","","","","","","0","0","1","0.3877758809","","0.6","0.2","0.8","0.4","","","","","0.3877758809","0.2148063869","0.4606838579","0.2774640617","","","","","","","","","","72","H","0","img/none_selected.jpg","","206","main_expt",""
"","bandit","286","650673","0.0-248.0-0.0","46346453","wem/bandit_party_1","A3JDWMS5QJHREI","either","6","256","","","","","","","0","0","1","0.3344078408","","0.6","0.2","0.8","0.4","","","","","0.3344078408","0.2370073307","0.4679198071","0.31303597","","","","","","","","","","72","H","0","img/none_selected.jpg","","207","main_expt",""
"","bandit","287","652429","0.0-249.0-0.0","46346453","wem/bandit_party_1","A3JDWMS5QJHREI","either","6","248","","","","","","","0","0","1","0.3285414067","","0.6","0.2","0.8","0.4","","","","","0.3285414067","0.1736764344","0.4731710197","0.3187850143","","","","","","","","","","72","H","0","img/none_selected.jpg","","208","main_expt",""
"","bandit","288","654239","0.0-250.0-0.0","46346453","wem/bandit_party_1","A3JDWMS5QJHREI","either","6","299","","","","","","","1","0","0","0.337659841","","0.6","0.2","0.8","0.4","","","","","0.337659841","0.2033963155","0.472507437","0.3031297305","","","","","","","","","","72","H","0","img/none_selected.jpg","","209","main_expt",""
"","bandit","289","656078","0.0-251.0-0.0","46346453","wem/bandit_party_1","A3JDWMS5QJHREI","either","6","329","","","","","","","0","0","1","0.322880172","","0.6","0.2","0.8","0.4","","","","","0.322880172","0.1849029676","0.4759946166","0.3593083662","","","","","","","","","","72","H","0","img/none_selected.jpg","","210","main_expt",""
"","bandit","290","657839","0.0-252.0-0.0","46346453","wem/bandit_party_1","A3JDWMS5QJHREI","either","6","245","","","","","","","1","0","0","0.3440981268","","0.6","0.2","0.8","0.4","","","","","0.3440981268","0.08033524441","0.4838002785","0.3758292662","","","","","","","","","","72","H","0","img/none_selected.jpg","","211","main_expt",""
"","bandit","291","659609","0.0-253.0-0.0","46346453","wem/bandit_party_1","A3JDWMS5QJHREI","either","6","261","","","","","","","1","0","0","0.3135232579","","0.6","0.2","0.8","0.4","","","","","0.3135232579","0.1024936548","0.4871609062","0.3771764803","","","","","","","","","","72","H","0","img/none_selected.jpg","","212","main_expt",""
"","bandit","292","661384","0.0-254.0-0.0","46346453","wem/bandit_party_1","A3JDWMS5QJHREI","either","6","259","","","","","","","0","1","0","","0.328558382","0.6","0.2","0.8","0.4","0.328558382","0.1380366818","0.4829725273","0.3935517348","","","","","","","","","","","","","","72","H","0","img/none_selected.jpg","","213","main_expt",""
"","bandit","293","663147","0.0-255.0-0.0","46346453","wem/bandit_party_1","A3JDWMS5QJHREI","either","6","255","","","","","","","0","0","1","","0.3024402918","0.6","0.2","0.8","0.4","0.3024402918","0.1206441992","0.4742933803","0.3792377037","","","","","","","","","","","","","","72","H","0","img/none_selected.jpg","","214","main_expt",""
"","bandit","294","664891","0.0-256.0-0.0","46346453","wem/bandit_party_1","A3JDWMS5QJHREI","either","6","236","","","","","","","0","0","1","0.3024001881","","0.6","0.2","0.8","0.4","","","","","0.3024001881","0.1320715796","0.4754417465","0.3364308411","","","","","","","","","","72","H","0","img/none_selected.jpg","","215","main_expt",""
"","bandit","295","666737","0.0-257.0-0.0","46346453","wem/bandit_party_1","A3JDWMS5QJHREI","either","6","335","","","","","","","0","0","1","0.2975117226","","0.6","0.2","0.8","0.4","","","","","0.2975117226","0.1152906885","0.4764866221","0.3348871659","","","","","","","","","","72","H","0","img/none_selected.jpg","","216","main_expt",""
"","bandit","296","668652","0.0-258.0-0.0","46346453","wem/bandit_party_1","A3JDWMS5QJHREI","either","6","404","","","","","","","0","1","0","","0.3331298207","0.6","0.2","0.8","0.4","0.3331298207","0.1191406027","0.4727866334","0.321293363","","","","","","","","","","","","","","72","H","0","img/none_selected.jpg","","217","main_expt",""
"","bandit","297","670502","0.0-259.0-0.0","46346453","wem/bandit_party_1","A3JDWMS5QJHREI","either","6","333","","","","","","","0","0","1","","0.2905667849","0.6","0.2","0.8","0.4","0.2905667849","0.1177717736","0.4664653133","0.3530973922","","","","","","","","","","","","","","72","H","0","img/none_selected.jpg","","218","main_expt",""
"","bandit","298","672247","0.0-260.0-0.0","46346453","wem/bandit_party_1","A3JDWMS5QJHREI","either","6","232","","","","","","","0","0","1","0.2701708387","","0.6","0.2","0.8","0.4","","","","","0.2701708387","0.1178729669","0.4636837267","0.3837093308","","","","","","","","","","72","H","0","img/none_selected.jpg","","219","main_expt",""
"","bandit","299","674094","0.0-261.0-0.0","46346453","wem/bandit_party_1","A3JDWMS5QJHREI","either","6","330","","","","","","","0","0","1","0.2395453957","","0.6","0.2","0.8","0.4","","","","","0.2395453957","0.1284790336","0.4599900571","0.3651541458","","","","","","","","","","72","H","0","img/none_selected.jpg","","220","main_expt",""
"","bandit","300","675933","0.0-262.0-0.0","46346453","wem/bandit_party_1","A3JDWMS5QJHREI","either","6","323","","","","","","","0","0","1","","0.147465279","0.6","0.2","0.8","0.4","0.2770622605","0.147465279","0.4490722186","0.254085412","","","","","","","","","","","","","","74","J","1","","","221","main_expt",""
"","bandit","301","677657","0.0-263.0-0.0","46346453","wem/bandit_party_1","A3JDWMS5QJHREI","either","6","216","","","","","","","0","0","1","","0.1441925756","0.6","0.2","0.8","0.4","0.3390746663","0.1441925756","0.4253353094","0.2590796483","","","","","","","","","","","","","","74","J","1","","","222","main_expt",""
"","bandit","302","679714","0.0-264.0-0.0","46346453","wem/bandit_party_1","A3JDWMS5QJHREI","either","6","548","","","","","","","0","0","1","","0.1731110736","0.6","0.2","0.8","0.4","0.384843876","0.1731110736","0.4559825987","0.2640852941","","","","","","","","","","","","","","74","J","1","","","223","main_expt",""
"","bandit","303","681545","0.0-265.0-0.0","46346453","wem/bandit_party_1","A3JDWMS5QJHREI","either","6","324","","","","","","","0","0","1","0.2636590797","","0.6","0.2","0.8","0.4","","","","","0.4367619307","0.1124600034","0.464560515","0.2636590797","","","","","","","","","","76","L","3","","","224","main_expt",""
"","bandit","304","683354","0.0-266.0-0.0","46346453","wem/bandit_party_1","A3JDWMS5QJHREI","either","6","298","","","","","","","0","0","1","","0.3110444069","0.6","0.2","0.8","0.4","0.42055701","0.1174510337","0.4528378766","0.3110444069","","","","","","","","","","","","","","76","L","3","","","225","main_expt",""
"","bandit","305","685159","0.0-267.0-0.0","46346453","wem/bandit_party_1","A3JDWMS5QJHREI","either","6","296","","","","","","","1","0","0","0.3268768972","","0.6","0.2","0.8","0.4","","","","","0.4282593698","0.1494320736","0.4585160156","0.3268768972","","","","","","","","","","76","L","3","","","226","main_expt",""
"","bandit","306","687039","0.0-268.0-0.0","46346453","wem/bandit_party_1","A3JDWMS5QJHREI","either","6","371","","","","","","","0","0","1","","0.3112991039","0.6","0.2","0.8","0.4","0.4213985596","0.1655037845","0.4525914875","0.3112991039","","","","","","","","","","","","","","76","L","3","","","227","main_expt",""
"","bandit","307","688811","0.0-269.0-0.0","46346453","wem/bandit_party_1","A3JDWMS5QJHREI","either","6","262","","","","","","","1","0","0","0.3481066565","","0.6","0.2","0.8","0.4","","","","","0.4115599459","0.1595877114","0.4618810074","0.3481066565","","","","","","","","","","76","L","3","","","228","main_expt",""
"","bandit","308","690665","0.0-270.0-0.0","46346453","wem/bandit_party_1","A3JDWMS5QJHREI","either","6","340","","","","","","","1","0","0","0.3267856819","","0.6","0.2","0.8","0.4","","","","","0.375967734","0.1811982871","0.4661541784","0.3267856819","","","","","","","","","","76","L","3","","","229","main_expt",""
"","bandit","309","692450","0.0-271.0-0.0","46346453","wem/bandit_party_1","A3JDWMS5QJHREI","either","6","273","","","","","","","0","0","1","","0.3043034776","0.6","0.2","0.8","0.4","0.4172813036","0.2088208598","0.4681373403","0.3043034776","","","","","","","","","","","","","","76","L","3","","","230","main_expt",""
"","bandit","310","694237","0.0-272.0-0.0","46346453","wem/bandit_party_1","A3JDWMS5QJHREI","either","6","278","","","","","","","0","0","1","","0.3127123154","0.6","0.2","0.8","0.4","0.3871641603","0.2062946352","0.4733838814","0.3127123154","","","","","","","","","","","","","","76","L","3","","","231","main_expt",""
"","bandit","311","696034","0.0-273.0-0.0","46346453","wem/bandit_party_1","A3JDWMS5QJHREI","either","6","287","","","","","","","0","0","1","","0.3039198066","0.6","0.2","0.8","0.4","0.3381606844","0.1448621505","0.455942125","0.3039198066","","","","","","","","","","","","","","76","L","3","","","232","main_expt",""
"","bandit","312","697816","0.0-274.0-0.0","46346453","wem/bandit_party_1","A3JDWMS5QJHREI","either","6","274","","","","","","","0","0","1","0.4523014459","","0.6","0.2","0.8","0.4","","","","","0.2918198365","0.1096360744","0.4523014459","0.2846072758","","","","","","","","","","75","K","2","","","233","main_expt",""
"","bandit","313","699619","0.0-275.0-0.0","46346453","wem/bandit_party_1","A3JDWMS5QJHREI","either","6","294","","","","","","","0","1","0","","0.4715877437","0.6","0.2","0.8","0.4","0.3016980071","0.1102272527","0.4715877437","0.2430061478","","","","","","","","","","","","","","75","K","2","","","234","main_expt",""
"","bandit","314","701480","0.0-276.0-0.0","46346453","wem/bandit_party_1","A3JDWMS5QJHREI","either","6","352","","","","","","","0","0","1","0.4667146267","","0.6","0.2","0.8","0.4","","","","","0.2940059945","0.1428859574","0.4667146267","0.263037213","","","","","","","","","","75","K","2","","","235","main_expt",""
"","bandit","315","703219","0.0-277.0-0.0","46346453","wem/bandit_party_1","A3JDWMS5QJHREI","either","6","229","","","","","","","0","0","1","0.4638430617","","0.6","0.2","0.8","0.4","","","","","0.2926833733","0.1659437887","0.4638430617","0.2976510001","","","","","","","","","","75","K","2","","","236","main_expt",""
