"consent","trial_type","trial_index","time_elapsed","internal_node_id","subjID","study","MID","cond","drift","rt","responses","button_pressed","key_press","like","value","connected","gems","bombs","no_reward","GemPrChosen","BombPrChosen","GainOverPainPr_0","GainOverPainPr_1","GainOverPainPr_2","GainOverPainPr_3","LosePr_0","LosePr_1","LosePr_2","LosePr_3","WinPr_0","WinPr_1","WinPr_2","WinPr_3","Q0","Q1","Q2","gender","age","ethnicity","label","expt_phase","target","respCharCode","respKey","respChoiceNum","respChoice","practice","trial_counter","trial_label","Q0_index"
"GDM/GDM_behavioral_consent_30min_online.html","consent","0","136615","0.0-0.0","46528904","wem/bandit_party_1","A1SWPK57MQMMSO","either","6","","","","","","","","","","","","","","","","","","","","","","","","","","","","","","","","","","","","","","","","",""
"","survey-text","1","148224","0.0-1.0","46528904","wem/bandit_party_1","A1SWPK57MQMMSO","either","6","10603","{""Q0"":""A1SWPK57MQMMSO""}","","","","","","","","","","","","","","","","","","","","","","","","","","","","","","","","","","","","","","",""
"","button-response","2","152923","0.0-2.0","46528904","wem/bandit_party_1","A1SWPK57MQMMSO","either","6","3691","","0","","","","","","","","","","","","","","","","","","","","","","","","","","","","","","","","","","","","","",""
"","text-replacement","3","179617","0.0-3.0","46528904","wem/bandit_party_1","A1SWPK57MQMMSO","either","6","25692","","","32","","","","","","","","","","","","","","","","","","","","","","","","","","","","","","","","","","","","",""
"","text-replacement","4","191265","0.0-4.0","46528904","wem/bandit_party_1","A1SWPK57MQMMSO","either","6","11646","","","32","","","","","","","","","","","","","","","","","","","","","","","","","","","","","","","","","","","","",""
"","identification","5","209984","0.0-6.0-0.0","46528904","wem/bandit_party_1","A1SWPK57MQMMSO","either","6","18695","","","","4","2","4","","","","","","","","","","","","","","","","","","","","","","","","pre","identification_pre","the Democratic Party","","","","","","","",""
"","identification","6","217668","0.0-6.0-1.0","46528904","wem/bandit_party_1","A1SWPK57MQMMSO","either","6","6677","","","","0","0","0","","","","","","","","","","","","","","","","","","","","","","","","pre","identification_pre","the Republican party","","","","","","","",""
"","text-replacement","7","233237","0.0-7.0","46528904","wem/bandit_party_1","A1SWPK57MQMMSO","either","6","14566","","","32","","","","","","","","","","","","","","","","","","","","","","","","","","","","","","","","","","","","",""
"","text-replacement","8","238791","0.0-8.0","46528904","wem/bandit_party_1","A1SWPK57MQMMSO","either","6","5552","","","32","","","","","","","","","","","","","","","","","","","","","","","","","","","","","","","","","","","","",""
"","text-replacement","9","253053","0.0-9.0","46528904","wem/bandit_party_1","A1SWPK57MQMMSO","either","6","14261","","","32","","","","","","","","","","","","","","","","","","","","","","","","","","","","","","","","","","","","",""
"","text-replacement","10","255716","0.0-10.0","46528904","wem/bandit_party_1","A1SWPK57MQMMSO","either","6","2661","","","32","","","","","","","","","","","","","","","","","","","","","","","","","","","","","","","","","","","","",""
"","text-replacement","11","261844","0.0-11.0","46528904","wem/bandit_party_1","A1SWPK57MQMMSO","either","6","6127","","","32","","","","","","","","","","","","","","","","","","","","","","","","","","","","","","","","","","","","",""
"","bandit","12","265621","0.0-12.0-0.0","46528904","wem/bandit_party_1","A1SWPK57MQMMSO","either","6","2271","","","","","","","0","0","1","0","0","","","","","0","","","","0","","","","","","","","","","","","","74","J","0","img/none_selected_demo.jpg","true","0","",""
"","bandit","13","267739","0.0-13.0-0.0","46528904","wem/bandit_party_1","A1SWPK57MQMMSO","either","6","612","","","","","","","0","0","1","0","0","","","","","0","","","","0","","","","","","","","","","","","","75","K","0","img/none_selected_demo.jpg","true","0","",""
"","text-replacement","14","274029","0.0-14.0","46528904","wem/bandit_party_1","A1SWPK57MQMMSO","either","6","6289","","","32","","","","","","","","","","","","","","","","","","","","","","","","","","","","","","","","","","","","",""
"","text-replacement","15","279942","0.0-15.0","46528904","wem/bandit_party_1","A1SWPK57MQMMSO","either","6","5911","","","32","","","","","","","","","","","","","","","","","","","","","","","","","","","","","","","","","","","","",""
"","text-replacement","16","286589","0.0-16.0","46528904","wem/bandit_party_1","A1SWPK57MQMMSO","either","6","6646","","","32","","","","","","","","","","","","","","","","","","","","","","","","","","","","","","","","","","","","",""
"","text-replacement","17","290065","0.0-17.0","46528904","wem/bandit_party_1","A1SWPK57MQMMSO","either","6","3474","","","32","","","","","","","","","","","","","","","","","","","","","","","","","","","","","","","","","","","","",""
"","bandit","18","292421","0.0-18.0-0.0","46528904","wem/bandit_party_1","A1SWPK57MQMMSO","either","6","849","","","","","","","1","0","0","0.8","","0.5","0.5","","","","","","","0.8","0.2","","","","","","","","","","","","74","J","0","img/none_selected_demo.jpg","true","0","80_20_practice",""
"","bandit","19","295133","0.0-18.0-1.0","46528904","wem/bandit_party_1","A1SWPK57MQMMSO","either","6","1208","","","","","","","0","1","0","","0.8","0.5","0.5","","","0.8","0.2","","","","","","","","","","","","","","","","74","J","0","img/none_selected_demo.jpg","true","0","80_20_practice",""
"","bandit","20","297508","0.0-18.0-2.0","46528904","wem/bandit_party_1","A1SWPK57MQMMSO","either","6","871","","","","","","","0","0","1","","0.2","0.5","0.5","","","0.8","0.2","","","","","","","","","","","","","","","","75","K","1","","true","0","80_20_practice",""
"","bandit","21","299411","0.0-18.0-3.0","46528904","wem/bandit_party_1","A1SWPK57MQMMSO","either","6","399","","","","","","","0","0","1","0.2","","0.5","0.5","","","","","","","0.8","0.2","","","","","","","","","","","","75","K","1","","true","0","80_20_practice",""
"","bandit","22","301021","0.0-18.0-4.0","46528904","wem/bandit_party_1","A1SWPK57MQMMSO","either","6","105","","","","","","","0","0","1","","0.2","0.5","0.5","","","0.8","0.2","","","","","","","","","","","","","","","","75","K","1","","true","0","80_20_practice",""
"","bandit","23","302544","0.0-18.0-5.0","46528904","wem/bandit_party_1","A1SWPK57MQMMSO","either","6","15","","","","","","","0","0","1","","0.2","0.5","0.5","","","0.8","0.2","","","","","","","","","","","","","","","","75","K","1","","true","0","80_20_practice",""
"","bandit","24","304950","0.0-18.0-6.0","46528904","wem/bandit_party_1","A1SWPK57MQMMSO","either","6","898","","","","","","","0","0","1","","0.2","0.5","0.5","","","0.8","0.2","","","","","","","","","","","","","","","","75","K","1","","true","0","80_20_practice",""
"","bandit","25","306750","0.0-18.0-7.0","46528904","wem/bandit_party_1","A1SWPK57MQMMSO","either","6","294","","","","","","","1","0","0","0.8","","0.5","0.5","","","","","","","0.8","0.2","","","","","","","","","","","","74","J","0","img/none_selected_demo.jpg","true","0","80_20_practice",""
"","bandit","26","308658","0.0-18.0-8.0","46528904","wem/bandit_party_1","A1SWPK57MQMMSO","either","6","405","","","","","","","0","0","1","0.8","","0.5","0.5","","","","","","","0.8","0.2","","","","","","","","","","","","74","J","0","img/none_selected_demo.jpg","true","0","80_20_practice",""
"","bandit","27","310570","0.0-18.0-9.0","46528904","wem/bandit_party_1","A1SWPK57MQMMSO","either","6","406","","","","","","","0","1","0","","0.2","0.5","0.5","","","0.8","0.2","","","","","","","","","","","","","","","","75","K","1","","true","0","80_20_practice",""
"","bandit","28","312660","0.0-18.0-10.0","46528904","wem/bandit_party_1","A1SWPK57MQMMSO","either","6","585","","","","","","","0","0","1","0.2","","0.5","0.5","","","","","","","0.8","0.2","","","","","","","","","","","","75","K","1","","true","0","80_20_practice",""
"","bandit","29","314389","0.0-18.0-11.0","46528904","wem/bandit_party_1","A1SWPK57MQMMSO","either","6","222","","","","","","","1","0","0","0.8","","0.5","0.5","","","","","","","0.8","0.2","","","","","","","","","","","","74","J","0","img/none_selected_demo.jpg","true","0","80_20_practice",""
"","bandit","30","316117","0.0-18.0-12.0","46528904","wem/bandit_party_1","A1SWPK57MQMMSO","either","6","218","","","","","","","1","0","0","0.8","","0.5","0.5","","","","","","","0.8","0.2","","","","","","","","","","","","74","J","0","img/none_selected_demo.jpg","true","0","80_20_practice",""
"","bandit","31","318140","0.0-18.0-13.0","46528904","wem/bandit_party_1","A1SWPK57MQMMSO","either","6","519","","","","","","","0","0","1","0.2","","0.5","0.5","","","","","","","0.8","0.2","","","","","","","","","","","","75","K","1","","true","0","80_20_practice",""
"","bandit","32","319860","0.0-18.0-14.0","46528904","wem/bandit_party_1","A1SWPK57MQMMSO","either","6","216","","","","","","","1","0","0","0.8","","0.5","0.5","","","","","","","0.8","0.2","","","","","","","","","","","","74","J","0","img/none_selected_demo.jpg","true","0","80_20_practice",""
"","bandit","33","321596","0.0-18.0-15.0","46528904","wem/bandit_party_1","A1SWPK57MQMMSO","either","6","230","","","","","","","1","0","0","0.8","","0.5","0.5","","","","","","","0.8","0.2","","","","","","","","","","","","74","J","0","img/none_selected_demo.jpg","true","0","80_20_practice",""
"","bandit","34","323350","0.0-18.0-16.0","46528904","wem/bandit_party_1","A1SWPK57MQMMSO","either","6","249","","","","","","","1","0","0","0.8","","0.5","0.5","","","","","","","0.8","0.2","","","","","","","","","","","","74","J","0","img/none_selected_demo.jpg","true","0","80_20_practice",""
"","bandit","35","324892","0.0-18.0-17.0","46528904","wem/bandit_party_1","A1SWPK57MQMMSO","either","6","37","","","","","","","0","1","0","","0.8","0.5","0.5","","","0.8","0.2","","","","","","","","","","","","","","","","74","J","0","img/none_selected_demo.jpg","true","0","80_20_practice",""
"","bandit","36","326524","0.0-18.0-18.0","46528904","wem/bandit_party_1","A1SWPK57MQMMSO","either","6","126","","","","","","","1","0","0","0.8","","0.5","0.5","","","","","","","0.8","0.2","","","","","","","","","","","","74","J","0","img/none_selected_demo.jpg","true","0","80_20_practice",""
"","bandit","37","329020","0.0-18.0-19.0","46528904","wem/bandit_party_1","A1SWPK57MQMMSO","either","6","990","","","","","","","0","0","1","0.2","","0.5","0.5","","","","","","","0.8","0.2","","","","","","","","","","","","75","K","1","","true","0","80_20_practice",""
"","text-replacement","38","333336","0.0-19.0","46528904","wem/bandit_party_1","A1SWPK57MQMMSO","either","6","4315","","","32","","","","","","","","","","","","","","","","","","","","","","","","","","","","","","","","","","","","",""
"","bandit","39","336820","0.0-20.0-0.0","46528904","wem/bandit_party_1","A1SWPK57MQMMSO","either","6","1977","","","","","","","1","0","0","1","0","","","","","0","1","","","1","0","","","","","","","","","","","","74","J","0","img/none_selected_demo.jpg","true","0","",""
"","text-replacement","40","342469","0.0-21.0","46528904","wem/bandit_party_1","A1SWPK57MQMMSO","either","6","5647","","","32","","","","","","","","","","","","","","","","","","","","","","","","","","","","","","","","","","","","",""
"","text-replacement","41","345878","0.0-22.0","46528904","wem/bandit_party_1","A1SWPK57MQMMSO","either","6","3407","","","32","","","","","","","","","","","","","","","","","","","","","","","","","","","","","","","","","","","","",""
"","text-replacement","42","348229","0.0-23.0","46528904","wem/bandit_party_1","A1SWPK57MQMMSO","either","6","2349","","","32","","","","","","","","","","","","","","","","","","","","","","","","","","","","","","","","","","","","",""
"","text-replacement","43","351428","0.0-24.0","46528904","wem/bandit_party_1","A1SWPK57MQMMSO","either","6","3199","","","32","","","","","","","","","","","","","","","","","","","","","","","","","","","","","","","","","","","","",""
"","text-replacement","44","358918","0.0-25.0","46528904","wem/bandit_party_1","A1SWPK57MQMMSO","either","6","7488","","","32","","","","","","","","","","","","","","","","","","","","","","","","","","","","","","","","","","","","",""
"","text-replacement","45","362221","0.0-26.0","46528904","wem/bandit_party_1","A1SWPK57MQMMSO","either","6","3301","","","32","","","","","","","","","","","","","","","","","","","","","","","","","","","","","","","","","","","","",""
"","text-replacement","46","366246","0.0-27.0","46528904","wem/bandit_party_1","A1SWPK57MQMMSO","either","6","4021","","","32","","","","","","","","","","","","","","","","","","","","","","","","","","","","","","","","","","","","",""
"","text-replacement","47","371342","0.0-28.0","46528904","wem/bandit_party_1","A1SWPK57MQMMSO","either","6","5093","","","32","","","","","","","","","","","","","","","","","","","","","","","","","","","","","","","","","","","","",""
"","text-replacement","48","376188","0.0-29.0","46528904","wem/bandit_party_1","A1SWPK57MQMMSO","either","6","4845","","","32","","","","","","","","","","","","","","","","","","","","","","","","","","","","","","","","","","","","",""
"","text-replacement","49","378836","0.0-30.0","46528904","wem/bandit_party_1","A1SWPK57MQMMSO","either","6","2647","","","32","","","","","","","","","","","","","","","","","","","","","","","","","","","","","","","","","","","","",""
"","text-replacement","50","382017","0.0-31.0","46528904","wem/bandit_party_1","A1SWPK57MQMMSO","either","6","3178","","","32","","","","","","","","","","","","","","","","","","","","","","","","","","","","","","","","","","","","",""
"","bandit","51","384197","0.0-32.0-0.0","46528904","wem/bandit_party_1","A1SWPK57MQMMSO","either","6","672","","","","","","","0","1","0","","0.8","0.5","0.5","0.5","0.5","0.8","0.2","0.6","0.2","","","","","","","","","","","","","","72","H","0","img/none_selected.jpg","true","0","full_practice",""
"","bandit","52","385851","0.0-32.0-1.0","46528904","wem/bandit_party_1","A1SWPK57MQMMSO","either","6","147","","","","","","","0","1","0","","0.8","0.5","0.5","0.5","0.5","0.8","0.2","0.6","0.2","","","","","","","","","","","","","","72","H","0","img/none_selected.jpg","true","0","full_practice",""
"","bandit","53","387580","0.0-32.0-2.0","46528904","wem/bandit_party_1","A1SWPK57MQMMSO","either","6","219","","","","","","","0","1","0","","0.8","0.5","0.5","0.5","0.5","0.8","0.2","0.6","0.2","","","","","","","","","","","","","","72","H","0","img/none_selected.jpg","true","0","full_practice",""
"","bandit","54","389431","0.0-32.0-3.0","46528904","wem/bandit_party_1","A1SWPK57MQMMSO","either","6","342","","","","","","","0","1","0","","0.8","0.5","0.5","0.5","0.5","0.8","0.2","0.6","0.2","","","","","","","","","","","","","","72","H","0","img/none_selected.jpg","true","0","full_practice",""
"","bandit","55","391204","0.0-32.0-4.0","46528904","wem/bandit_party_1","A1SWPK57MQMMSO","either","6","267","","","","","","","0","1","0","","0.8","0.5","0.5","0.5","0.5","0.8","0.2","0.6","0.2","","","","","","","","","","","","","","72","H","0","img/none_selected.jpg","true","0","full_practice",""
"","bandit","56","393058","0.0-32.0-5.0","46528904","wem/bandit_party_1","A1SWPK57MQMMSO","either","6","351","","","","","","","1","0","0","0.8","","0.5","0.5","0.5","0.5","","","","","0.8","0.2","0.6","0.2","","","","","","","","","","72","H","0","img/none_selected.jpg","true","0","full_practice",""
"","bandit","57","394747","0.0-32.0-6.0","46528904","wem/bandit_party_1","A1SWPK57MQMMSO","either","6","184","","","","","","","1","0","0","0.8","","0.5","0.5","0.5","0.5","","","","","0.8","0.2","0.6","0.2","","","","","","","","","","72","H","0","img/none_selected.jpg","true","0","full_practice",""
"","bandit","58","396442","0.0-32.0-7.0","46528904","wem/bandit_party_1","A1SWPK57MQMMSO","either","6","192","","","","","","","0","1","0","","0.8","0.5","0.5","0.5","0.5","0.8","0.2","0.6","0.2","","","","","","","","","","","","","","72","H","0","img/none_selected.jpg","true","0","full_practice",""
"","bandit","59","398171","0.0-32.0-8.0","46528904","wem/bandit_party_1","A1SWPK57MQMMSO","either","6","222","","","","","","","0","1","0","","0.8","0.5","0.5","0.5","0.5","0.8","0.2","0.6","0.2","","","","","","","","","","","","","","72","H","0","img/none_selected.jpg","true","0","full_practice",""
"","bandit","60","399834","0.0-32.0-9.0","46528904","wem/bandit_party_1","A1SWPK57MQMMSO","either","6","159","","","","","","","0","0","1","0.8","","0.5","0.5","0.5","0.5","","","","","0.8","0.2","0.6","0.2","","","","","","","","","","72","H","0","img/none_selected.jpg","true","0","full_practice",""
"","bandit","61","401426","0.0-32.0-10.0","46528904","wem/bandit_party_1","A1SWPK57MQMMSO","either","6","88","","","","","","","0","0","1","","0.2","0.5","0.5","0.5","0.5","0.8","0.2","0.6","0.2","","","","","","","","","","","","","","74","J","1","","true","0","full_practice",""
"","bandit","62","403339","0.0-32.0-11.0","46528904","wem/bandit_party_1","A1SWPK57MQMMSO","either","6","405","","","","","","","1","0","0","0.6","","0.5","0.5","0.5","0.5","","","","","0.8","0.2","0.6","0.2","","","","","","","","","","75","K","2","","true","0","full_practice",""
"","bandit","63","406424","0.0-32.0-12.0","46528904","wem/bandit_party_1","A1SWPK57MQMMSO","either","6","1580","","","","","","","0","1","0","","0.6","0.5","0.5","0.5","0.5","0.8","0.2","0.6","0.2","","","","","","","","","","","","","","75","K","2","","true","0","full_practice",""
"","bandit","64","408491","0.0-32.0-13.0","46528904","wem/bandit_party_1","A1SWPK57MQMMSO","either","6","561","","","","","","","0","1","0","","0.6","0.5","0.5","0.5","0.5","0.8","0.2","0.6","0.2","","","","","","","","","","","","","","75","K","2","","true","0","full_practice",""
"","bandit","65","410002","0.0-32.0-14.0","46528904","wem/bandit_party_1","A1SWPK57MQMMSO","either","6","6","","","","","","","1","0","0","0.6","","0.5","0.5","0.5","0.5","","","","","0.8","0.2","0.6","0.2","","","","","","","","","","75","K","2","","true","0","full_practice",""
"","bandit","66","411589","0.0-32.0-15.0","46528904","wem/bandit_party_1","A1SWPK57MQMMSO","either","6","78","","","","","","","1","0","0","0.6","","0.5","0.5","0.5","0.5","","","","","0.8","0.2","0.6","0.2","","","","","","","","","","75","K","2","","true","0","full_practice",""
"","bandit","67","413289","0.0-32.0-16.0","46528904","wem/bandit_party_1","A1SWPK57MQMMSO","either","6","197","","","","","","","0","1","0","","0.6","0.5","0.5","0.5","0.5","0.8","0.2","0.6","0.2","","","","","","","","","","","","","","75","K","2","","true","0","full_practice",""
"","bandit","68","415020","0.0-32.0-17.0","46528904","wem/bandit_party_1","A1SWPK57MQMMSO","either","6","226","","","","","","","0","1","0","","0.6","0.5","0.5","0.5","0.5","0.8","0.2","0.6","0.2","","","","","","","","","","","","","","75","K","2","","true","0","full_practice",""
"","bandit","69","416804","0.0-32.0-18.0","46528904","wem/bandit_party_1","A1SWPK57MQMMSO","either","6","280","","","","","","","0","1","0","","0.6","0.5","0.5","0.5","0.5","0.8","0.2","0.6","0.2","","","","","","","","","","","","","","75","K","2","","true","0","full_practice",""
"","bandit","70","418394","0.0-32.0-19.0","46528904","wem/bandit_party_1","A1SWPK57MQMMSO","either","6","75","","","","","","","0","1","0","","0.6","0.5","0.5","0.5","0.5","0.8","0.2","0.6","0.2","","","","","","","","","","","","","","75","K","2","","true","0","full_practice",""
"","text","71","422068","0.0-33.0","46528904","wem/bandit_party_1","A1SWPK57MQMMSO","either","6","3660","","","32","","","","","","","","","","","","","","","","","","","","","","","","","","","","","","","","","","","","",""
"","text-replacement","72","437116","0.0-34.0","46528904","wem/bandit_party_1","A1SWPK57MQMMSO","either","6","14045","","","32","","","","","","","","","","","","","","","","","","","","","","","","","","","","","","","","","","","","",""
"","text-replacement","73","450973","0.0-35.0","46528904","wem/bandit_party_1","A1SWPK57MQMMSO","either","6","13855","","","32","","","","","","","","","","","","","","","","","","","","","","","","","","","","","","","","","","","","",""
"","text-replacement","74","456131","0.0-36.0","46528904","wem/bandit_party_1","A1SWPK57MQMMSO","either","6","5156","","","32","","","","","","","","","","","","","","","","","","","","","","","","","","","","","","","","","","","","",""
"","text-replacement","75","461626","0.0-37.0","46528904","wem/bandit_party_1","A1SWPK57MQMMSO","either","6","5493","","","32","","","","","","","","","","","","","","","","","","","","","","","","","","","","","","","","","","","","",""
"","text-replacement","76","467284","0.0-38.0","46528904","wem/bandit_party_1","A1SWPK57MQMMSO","either","6","5654","","","32","","","","","","","","","","","","","","","","","","","","","","","","","","","","","","","","","","","","",""
"","survey-multi-choice-replacement","77","479968","0.0-39.0-0.0","46528904","wem/bandit_party_1","A1SWPK57MQMMSO","either","6","12677","","","","","","","","","","","","","","","","","","","","","","","","Money will be added to the pool for <span style='color:red;'>REPUBLICANS</span>","","","","","","","attn_check","","","","","","","","","0"
"","survey-multi-choice-replacement","78","487366","0.0-40.0-0.0","46528904","wem/bandit_party_1","A1SWPK57MQMMSO","either","6","6384","","","","","","","","","","","","","","","","","","","","","","","","Equal amounts of money will be added to the pool for <span style='color:red;'>REPUBLICANS</span> and subtracted from the pool for <span style='color:blue;'>DEMOCRATS</span>","","","","","","","attn_check","","","","","","","","","2"
"","survey-multi-choice-replacement","79","491265","0.0-41.0-0.0","46528904","wem/bandit_party_1","A1SWPK57MQMMSO","either","6","2888","","","","","","","","","","","","","","","","","","","","","","","","No money will be added to either pool","","","","","","","attn_check","","","","","","","","","3"
"","bandit","80","500061","0.0-42.0-0.0","46528904","wem/bandit_party_1","A1SWPK57MQMMSO","either","6","6288","","","","","","","0","0","1","0.1720655487","","0.2","0.8","0.4","0.6","","","","","0.4656478179","0.1720655487","0.1734470434","0.06094066238","","","","","","","","","","74","J","1","","","1","main_expt",""
"","bandit","81","501811","0.0-43.0-0.0","46528904","wem/bandit_party_1","A1SWPK57MQMMSO","either","6","238","","","","","","","1","0","0","0.4661883906","","0.2","0.8","0.4","0.6","","","","","0.4661883906","0.1607886358","0.1582158198","0.04941180107","","","","","","","","","","72","H","0","img/none_selected.jpg","","2","main_expt",""
"","bandit","82","503443","0.0-44.0-0.0","46528904","wem/bandit_party_1","A1SWPK57MQMMSO","either","6","127","","","","","","","1","0","0","0.4608397999","","0.2","0.8","0.4","0.6","","","","","0.4608397999","0.1825924006","0.1264016625","0.09066711981","","","","","","","","","","72","H","0","img/none_selected.jpg","","3","main_expt",""
"","bandit","83","505421","0.0-45.0-0.0","46528904","wem/bandit_party_1","A1SWPK57MQMMSO","either","6","472","","","","","","","0","0","1","","0.4568511376","0.2","0.8","0.4","0.6","0.4568511376","0.1572982515","0.1212924903","0.07815644495","","","","","","","","","","","","","","72","H","0","img/none_selected.jpg","","4","main_expt",""
"","bandit","84","507588","0.0-46.0-0.0","46528904","wem/bandit_party_1","A1SWPK57MQMMSO","either","6","662","","","","","","","0","0","1","","0.4576747282","0.2","0.8","0.4","0.6","0.4576747282","0.1873501432","0.1603104869","0.06547040057","","","","","","","","","","","","","","72","H","0","img/none_selected.jpg","","5","main_expt",""
"","bandit","85","509555","0.0-47.0-0.0","46528904","wem/bandit_party_1","A1SWPK57MQMMSO","either","6","461","","","","","","","0","0","1","0.1916070739","","0.2","0.8","0.4","0.6","","","","","0.4673201091","0.1484719509","0.1916070739","0.09500806419","","","","","","","","","","75","K","2","","","6","main_expt",""
"","bandit","86","511342","0.0-48.0-0.0","46528904","wem/bandit_party_1","A1SWPK57MQMMSO","either","6","282","","","","","","","0","0","1","0.1156714339","","0.2","0.8","0.4","0.6","","","","","0.4671816856","0.1368680622","0.1624213819","0.1156714339","","","","","","","","","","76","L","3","","","7","main_expt",""
"","bandit","87","512973","0.0-49.0-0.0","46528904","wem/bandit_party_1","A1SWPK57MQMMSO","either","6","124","","","","","","","0","0","1","","0.1412197478","0.2","0.8","0.4","0.6","0.4577650209","0.1412197478","0.1529627983","0.08939878806","","","","","","","","","","","","","","74","J","1","","","8","main_expt",""
"","bandit","88","514763","0.0-50.0-0.0","46528904","wem/bandit_party_1","A1SWPK57MQMMSO","either","6","283","","","","","","","0","0","1","0.1638779","","0.2","0.8","0.4","0.6","","","","","0.4538037209","0.1285241668","0.1638779","0.1379609943","","","","","","","","","","75","K","2","","","9","main_expt",""
"","bandit","89","516882","0.0-51.0-0.0","46528904","wem/bandit_party_1","A1SWPK57MQMMSO","either","6","613","","","","","","","1","0","0","0.08892925829","","0.2","0.8","0.4","0.6","","","","","0.4567906288","0.1137500729","0.1682184418","0.08892925829","","","","","","","","","","76","L","3","","","10","main_expt",""
"","bandit","90","518491","0.0-52.0-0.0","46528904","wem/bandit_party_1","A1SWPK57MQMMSO","either","6","104","","","","","","","0","0","1","0.1053961985","","0.2","0.8","0.4","0.6","","","","","0.4707556997","0.1134058804","0.1511948373","0.1053961985","","","","","","","","","","76","L","3","","","11","main_expt",""
"","bandit","91","520251","0.0-53.0-0.0","46528904","wem/bandit_party_1","A1SWPK57MQMMSO","either","6","252","","","","","","","0","0","1","0.1267534428","","0.2","0.8","0.4","0.6","","","","","0.4534589675","0.1358134986","0.2144966391","0.1267534428","","","","","","","","","","76","L","3","","","12","main_expt",""
"","bandit","92","521899","0.0-54.0-0.0","46528904","wem/bandit_party_1","A1SWPK57MQMMSO","either","6","144","","","","","","","0","0","1","","0.1443049275","0.2","0.8","0.4","0.6","0.4474824422","0.1105925571","0.1443049275","0.1179877152","","","","","","","","","","","","","","75","K","2","","","13","main_expt",""
"","bandit","93","524018","0.0-55.0-0.0","46528904","wem/bandit_party_1","A1SWPK57MQMMSO","either","6","614","","","","","","","0","0","1","","0.4125602811","0.2","0.8","0.4","0.6","0.4125602811","0.09057326494","0.149160688","0.1300626215","","","","","","","","","","","","","","72","H","0","img/none_selected.jpg","","14","main_expt",""
"","bandit","94","526163","0.0-56.0-0.0","46528904","wem/bandit_party_1","A1SWPK57MQMMSO","either","6","639","","","","","","","0","0","1","0.05963436345","","0.2","0.8","0.4","0.6","","","","","0.3715785473","0.05963436345","0.1525333278","0.1129073675","","","","","","","","","","74","J","1","","","15","main_expt",""
"","bandit","95","528178","0.0-57.0-0.0","46528904","wem/bandit_party_1","A1SWPK57MQMMSO","either","6","510","","","","","","","0","0","1","","0.1437253933","0.2","0.8","0.4","0.6","0.3670357029","0.03970917029","0.1437253933","0.1132840383","","","","","","","","","","","","","","75","K","2","","","16","main_expt",""
"","bandit","96","529933","0.0-58.0-0.0","46528904","wem/bandit_party_1","A1SWPK57MQMMSO","either","6","247","","","","","","","0","0","1","","0.1530786807","0.2","0.8","0.4","0.6","0.333794799","0.03301664506","0.1191274054","0.1530786807","","","","","","","","","","","","","","76","L","3","","","17","main_expt",""
"","bandit","97","531746","0.0-59.0-0.0","46528904","wem/bandit_party_1","A1SWPK57MQMMSO","either","6","304","","","","","","","0","0","1","","0.3720862831","0.2","0.8","0.4","0.6","0.3720862831","0.0325619","0.1231388663","0.1367655081","","","","","","","","","","","","","","72","H","0","img/none_selected.jpg","","18","main_expt",""
"","bandit","98","533484","0.0-60.0-0.0","46528904","wem/bandit_party_1","A1SWPK57MQMMSO","either","6","232","","","","","","","0","0","1","0.05136562407","","0.2","0.8","0.4","0.6","","","","","0.3940248177","0.05136562407","0.1014962652","0.1519969922","","","","","","","","","","74","J","1","","","19","main_expt",""
"","bandit","99","535594","0.0-61.0-0.0","46528904","wem/bandit_party_1","A1SWPK57MQMMSO","either","6","602","","","","","","","0","0","1","0.1184271466","","0.2","0.8","0.4","0.6","","","","","0.3980303587","0.05620034239","0.1184271466","0.2344823222","","","","","","","","","","75","K","2","","","20","main_expt",""
"","bandit","100","537480","0.0-62.0-0.0","46528904","wem/bandit_party_1","A1SWPK57MQMMSO","either","6","373","","","","","","","0","0","1","","0.2227593861","0.2","0.8","0.4","0.6","0.405953395","0.04865895453","0.1434190777","0.2227593861","","","","","","","","","","","","","","76","L","3","","","21","main_expt",""
"","bandit","101","539929","0.0-63.0-0.0","46528904","wem/bandit_party_1","A1SWPK57MQMMSO","either","6","938","","","","","","","0","0","1","0.05276066643","","0.2","0.8","0.4","0.6","","","","","0.37898799","0.05276066643","0.1323354157","0.1831098024","","","","","","","","","","74","J","1","","","22","main_expt",""
"","bandit","102","541769","0.0-64.0-0.0","46528904","wem/bandit_party_1","A1SWPK57MQMMSO","either","6","334","","","","","","","0","0","1","","0.3661255489","0.2","0.8","0.4","0.6","0.3661255489","0.05284133488","0.1384191998","0.1660310818","","","","","","","","","","","","","","72","H","0","img/none_selected.jpg","","23","main_expt",""
"","bandit","103","543803","0.0-65.0-0.0","46528904","wem/bandit_party_1","A1SWPK57MQMMSO","either","6","526","","","","","","","0","1","0","","0.3576379461","0.2","0.8","0.4","0.6","0.3576379461","0.0333904923","0.1395593146","0.1400827643","","","","","","","","","","","","","","72","H","0","img/none_selected.jpg","","24","main_expt",""
"","bandit","104","545633","0.0-66.0-0.0","46528904","wem/bandit_party_1","A1SWPK57MQMMSO","either","6","326","","","","","","","0","0","1","","0.3346121782","0.2","0.8","0.4","0.6","0.3346121782","0.04666446392","0.1696236693","0.2022937807","","","","","","","","","","","","","","72","H","0","img/none_selected.jpg","","25","main_expt",""
"","bandit","105","547381","0.0-67.0-0.0","46528904","wem/bandit_party_1","A1SWPK57MQMMSO","either","6","241","","","","","","","0","0","1","0.3790434843","","0.2","0.8","0.4","0.6","","","","","0.3790434843","0.04067930801","0.1754084838","0.1725383963","","","","","","","","","","72","H","0","img/none_selected.jpg","","26","main_expt",""
"","bandit","106","549210","0.0-68.0-0.0","46528904","wem/bandit_party_1","A1SWPK57MQMMSO","either","6","323","","","","","","","0","0","1","","0.3744762435","0.2","0.8","0.4","0.6","0.3744762435","0.03070036018","0.118483546","0.1735642386","","","","","","","","","","","","","","72","H","0","img/none_selected.jpg","","27","main_expt",""
"","bandit","107","551018","0.0-69.0-0.0","46528904","wem/bandit_party_1","A1SWPK57MQMMSO","either","6","302","","","","","","","0","0","1","","0.02292460278","0.2","0.8","0.4","0.6","0.3650769418","0.02292460278","0.1259847853","0.149532802","","","","","","","","","","","","","","74","J","1","","","28","main_expt",""
"","bandit","108","553234","0.0-70.0-0.0","46528904","wem/bandit_party_1","A1SWPK57MQMMSO","either","6","709","","","","","","","0","0","1","0.03476379039","","0.2","0.8","0.4","0.6","","","","","0.3299345172","0.03476379039","0.1072727049","0.1597785082","","","","","","","","","","74","J","1","","","29","main_expt",""
"","bandit","109","555139","0.0-71.0-0.0","46528904","wem/bandit_party_1","A1SWPK57MQMMSO","either","6","394","","","","","","","0","0","1","","0.07952930744","0.2","0.8","0.4","0.6","0.3010095271","0.04211589453","0.07952930744","0.1978771271","","","","","","","","","","","","","","75","K","2","","","30","main_expt",""
"","bandit","110","557102","0.0-72.0-0.0","46528904","wem/bandit_party_1","A1SWPK57MQMMSO","either","6","454","","","","","","","0","0","1","","0.1928768267","0.2","0.8","0.4","0.6","0.331530841","0.04495483672","0.09691030242","0.1928768267","","","","","","","","","","","","","","76","L","3","","","31","main_expt",""
"","bandit","111","558986","0.0-73.0-0.0","46528904","wem/bandit_party_1","A1SWPK57MQMMSO","either","6","380","","","","","","","0","0","1","0.1338720944","","0.2","0.8","0.4","0.6","","","","","0.3469043085","0.04126869591","0.1338720944","0.1511047494","","","","","","","","","","75","K","2","","","32","main_expt",""
"","bandit","112","560898","0.0-74.0-0.0","46528904","wem/bandit_party_1","A1SWPK57MQMMSO","either","6","405","","","","","","","0","0","1","0.1428203538","","0.2","0.8","0.4","0.6","","","","","0.2778139242","0.02396570111","0.1428203538","0.09247049486","","","","","","","","","","75","K","2","","","33","main_expt",""
"","bandit","113","562668","0.0-75.0-0.0","46528904","wem/bandit_party_1","A1SWPK57MQMMSO","either","6","260","","","","","","","0","0","1","0.03561151332","","0.2","0.8","0.4","0.6","","","","","0.236883459","0.03561151332","0.1258169527","0.1127946788","","","","","","","","","","74","J","1","","","34","main_expt",""
"","bandit","114","564481","0.0-76.0-0.0","46528904","wem/bandit_party_1","A1SWPK57MQMMSO","either","6","308","","","","","","","1","0","0","0.2656196476","","0.2","0.8","0.4","0.6","","","","","0.2656196476","0.04565222073","0.1652362889","0.1279928094","","","","","","","","","","72","H","0","img/none_selected.jpg","","35","main_expt",""
"","bandit","115","566266","0.0-77.0-0.0","46528904","wem/bandit_party_1","A1SWPK57MQMMSO","either","6","280","","","","","","","0","1","0","","0.2309028503","0.2","0.8","0.4","0.6","0.2309028503","0.05036449293","0.1472348388","0.09285608896","","","","","","","","","","","","","","72","H","0","img/none_selected.jpg","","36","main_expt",""
"","bandit","116","568077","0.0-78.0-0.0","46528904","wem/bandit_party_1","A1SWPK57MQMMSO","either","6","303","","","","","","","0","1","0","","0.1961267878","0.2","0.8","0.4","0.6","0.1961267878","0.04764774511","0.20581188","0.1251507517","","","","","","","","","","","","","","72","H","0","img/none_selected.jpg","","37","main_expt",""
"","bandit","117","569874","0.0-79.0-0.0","46528904","wem/bandit_party_1","A1SWPK57MQMMSO","either","6","291","","","","","","","0","0","1","","0.2197692452","0.2","0.8","0.4","0.6","0.2197692452","0.04692466818","0.2096070571","0.1248439258","","","","","","","","","","","","","","72","H","0","img/none_selected.jpg","","38","main_expt",""
"","bandit","118","571643","0.0-80.0-0.0","46528904","wem/bandit_party_1","A1SWPK57MQMMSO","either","6","259","","","","","","","0","0","1","0.1783178102","","0.2","0.8","0.4","0.6","","","","","0.1783178102","0.06150360576","0.1888903691","0.1192858938","","","","","","","","","","72","H","0","img/none_selected.jpg","","39","main_expt",""
"","bandit","119","573430","0.0-81.0-0.0","46528904","wem/bandit_party_1","A1SWPK57MQMMSO","either","6","275","","","","","","","0","0","1","","0.1025324214","0.2","0.8","0.4","0.6","0.1354267005","0.1025324214","0.1769314034","0.1457630933","","","","","","","","","","","","","","74","J","1","","","40","main_expt",""
"","bandit","120","575273","0.0-82.0-0.0","46528904","wem/bandit_party_1","A1SWPK57MQMMSO","either","6","333","","","","","","","0","0","1","0.1278282258","","0.2","0.8","0.4","0.6","","","","","0.1307301687","0.1278282258","0.1764673912","0.1788887836","","","","","","","","","","74","J","1","","","41","main_expt",""
"","bandit","121","577082","0.0-83.0-0.0","46528904","wem/bandit_party_1","A1SWPK57MQMMSO","either","6","300","","","","","","","0","0","1","","0.1164002711","0.2","0.8","0.4","0.6","0.1002459791","0.1144783829","0.1164002711","0.1550439797","","","","","","","","","","","","","","75","K","2","","","42","main_expt",""
"","bandit","122","578802","0.0-84.0-0.0","46528904","wem/bandit_party_1","A1SWPK57MQMMSO","either","6","208","","","","","","","0","0","1","0.1624336935","","0.2","0.8","0.4","0.6","","","","","0.06131682752","0.148274456","0.1248357276","0.1624336935","","","","","","","","","","76","L","3","","","43","main_expt",""
"","bandit","123","580615","0.0-85.0-0.0","46528904","wem/bandit_party_1","A1SWPK57MQMMSO","either","6","302","","","","","","","0","0","1","0.2610419313","","0.2","0.8","0.4","0.6","","","","","0.05757194937","0.1733993608","0.1801883524","0.2610419313","","","","","","","","","","76","L","3","","","44","main_expt",""
"","bandit","124","582258","0.0-86.0-0.0","46528904","wem/bandit_party_1","A1SWPK57MQMMSO","either","6","133","","","","","","","0","0","1","0.2547096211","","0.2","0.8","0.4","0.6","","","","","0.06317169253","0.1731137141","0.1536252234","0.2547096211","","","","","","","","","","76","L","3","","","45","main_expt",""
"","bandit","125","583873","0.0-87.0-0.0","46528904","wem/bandit_party_1","A1SWPK57MQMMSO","either","6","108","","","","","","","0","0","1","","0.2690630982","0.2","0.8","0.4","0.6","0.08604650327","0.2577534017","0.1453657368","0.2690630982","","","","","","","","","","","","","","76","L","3","","","46","main_expt",""
"","bandit","126","585643","0.0-88.0-0.0","46528904","wem/bandit_party_1","A1SWPK57MQMMSO","either","6","263","","","","","","","0","0","1","","0.2613787364","0.2","0.8","0.4","0.6","0.07503215105","0.2436059896","0.1163474927","0.2613787364","","","","","","","","","","","","","","76","L","3","","","47","main_expt",""
"","bandit","127","587500","0.0-89.0-0.0","46528904","wem/bandit_party_1","A1SWPK57MQMMSO","either","6","352","","","","","","","0","0","1","","0.1187671899","0.2","0.8","0.4","0.6","0.09661626413","0.261356988","0.1187671899","0.2764851171","","","","","","","","","","","","","","75","K","2","","","48","main_expt",""
"","bandit","128","589249","0.0-90.0-0.0","46528904","wem/bandit_party_1","A1SWPK57MQMMSO","either","6","242","","","","","","","0","0","1","","0.1321787199","0.2","0.8","0.4","0.6","0.141419135","0.2707362224","0.1321787199","0.2628846066","","","","","","","","","","","","","","75","K","2","","","49","main_expt",""
"","bandit","129","591027","0.0-91.0-0.0","46528904","wem/bandit_party_1","A1SWPK57MQMMSO","either","6","271","","","","","","","0","1","0","","0.1310663867","0.2","0.8","0.4","0.6","0.1341637883","0.2733601765","0.1310663867","0.3634831931","","","","","","","","","","","","","","75","K","2","","","50","main_expt",""
"","bandit","130","592923","0.0-92.0-0.0","46528904","wem/bandit_party_1","A1SWPK57MQMMSO","either","6","391","","","","","","","0","0","1","","0.1450472339","0.2","0.8","0.4","0.6","0.1225974466","0.2590969561","0.1450472339","0.3771608335","","","","","","","","","","","","","","75","K","2","","","51","main_expt",""
"","bandit","131","594811","0.0-93.0-0.0","46528904","wem/bandit_party_1","A1SWPK57MQMMSO","either","6","376","","","","","","","0","0","1","","0.1731775471","0.2","0.8","0.4","0.6","0.1145468474","0.2515646212","0.1731775471","0.3093307572","","","","","","","","","","","","","","75","K","2","","","52","main_expt",""
"","bandit","132","596696","0.0-94.0-0.0","46528904","wem/bandit_party_1","A1SWPK57MQMMSO","either","6","380","","","","","","","0","0","1","0.2257746054","","0.2","0.8","0.4","0.6","","","","","0.1059564611","0.2257746054","0.2258016315","0.2990929044","","","","","","","","","","74","J","1","","","53","main_expt",""
"","bandit","133","598445","0.0-95.0-0.0","46528904","wem/bandit_party_1","A1SWPK57MQMMSO","either","6","240","","","","","","","0","0","1","","0.1090017536","0.2","0.8","0.4","0.6","0.1090017536","0.2750925763","0.2172527187","0.2221679908","","","","","","","","","","","","","","72","H","0","img/none_selected.jpg","","54","main_expt",""
"","bandit","134","600266","0.0-96.0-0.0","46528904","wem/bandit_party_1","A1SWPK57MQMMSO","either","6","296","","","","","","","0","0","1","","0.1886471815","0.2","0.8","0.4","0.6","0.1249444004","0.3608357377","0.1652356872","0.1886471815","","","","","","","","","","","","","","76","L","3","","","55","main_expt",""
"","bandit","135","601947","0.0-97.0-0.0","46528904","wem/bandit_party_1","A1SWPK57MQMMSO","either","6","166","","","","","","","0","0","1","","0.1576418272","0.2","0.8","0.4","0.6","0.09043885587","0.4022545085","0.1576418272","0.1973213641","","","","","","","","","","","","","","75","K","2","","","56","main_expt",""
"","bandit","136","603698","0.0-98.0-0.0","46528904","wem/bandit_party_1","A1SWPK57MQMMSO","either","6","242","","","","","","","0","0","1","0.3867568464","","0.2","0.8","0.4","0.6","","","","","0.07448640425","0.3867568464","0.180776926","0.2207101474","","","","","","","","","","74","J","1","","","57","main_expt",""
"","bandit","137","605378","0.0-99.0-0.0","46528904","wem/bandit_party_1","A1SWPK57MQMMSO","either","6","174","","","","","","","0","0","1","","0.09808879237","0.2","0.8","0.4","0.6","0.09808879237","0.3840355114","0.1489081552","0.2480089655","","","","","","","","","","","","","","72","H","0","img/none_selected.jpg","","58","main_expt",""
"","bandit","138","607076","0.0-100.0-0.0","46528904","wem/bandit_party_1","A1SWPK57MQMMSO","either","6","184","","","","","","","1","0","0","0.2667579505","","0.2","0.8","0.4","0.6","","","","","0.0721355853","0.3617876187","0.125555473","0.2667579505","","","","","","","","","","76","L","3","","","59","main_expt",""
"","bandit","139","608941","0.0-101.0-0.0","46528904","wem/bandit_party_1","A1SWPK57MQMMSO","either","6","356","","","","","","","0","0","1","0.2637313595","","0.2","0.8","0.4","0.6","","","","","0.08871326978","0.3018070945","0.1228814318","0.2637313595","","","","","","","","","","76","L","3","","","60","main_expt",""
"","bandit","140","610737","0.0-102.0-0.0","46528904","wem/bandit_party_1","A1SWPK57MQMMSO","either","6","287","","","","","","","0","0","1","0.195834737","","0.2","0.8","0.4","0.6","","","","","0.1472383223","0.2687465691","0.195834737","0.2400462537","","","","","","","","","","75","K","2","","","61","main_expt",""
"","bandit","141","612497","0.0-103.0-0.0","46528904","wem/bandit_party_1","A1SWPK57MQMMSO","either","6","254","","","","","","","1","0","0","0.287622952","","0.2","0.8","0.4","0.6","","","","","0.1625866577","0.287622952","0.1952904108","0.2396546157","","","","","","","","","","74","J","1","","","62","main_expt",""
"","bandit","142","614953","0.0-104.0-0.0","46528904","wem/bandit_party_1","A1SWPK57MQMMSO","either","6","951","","","","","","","1","0","0","0.187392073","","0.2","0.8","0.4","0.6","","","","","0.1196153378","0.2060093557","0.187392073","0.2558687718","","","","","","","","","","75","K","2","","","63","main_expt",""
"","bandit","143","616823","0.0-105.0-0.0","46528904","wem/bandit_party_1","A1SWPK57MQMMSO","either","6","357","","","","","","","0","0","1","0.1865830226","","0.2","0.8","0.4","0.6","","","","","0.1025290435","0.1865830226","0.1774517964","0.1789331692","","","","","","","","","","74","J","1","","","64","main_expt",""
"","bandit","144","618553","0.0-106.0-0.0","46528904","wem/bandit_party_1","A1SWPK57MQMMSO","either","6","222","","","","","","","0","0","1","0.2041721298","","0.2","0.8","0.4","0.6","","","","","0.06637487434","0.2242960511","0.1956590225","0.2041721298","","","","","","","","","","76","L","3","","","65","main_expt",""
"","bandit","145","620169","0.0-107.0-0.0","46528904","wem/bandit_party_1","A1SWPK57MQMMSO","either","6","111","","","","","","","0","0","1","","0.09888809835","0.2","0.8","0.4","0.6","0.09888809835","0.213739571","0.1559932489","0.1083731131","","","","","","","","","","","","","","72","H","0","img/none_selected.jpg","","66","main_expt",""
"","bandit","146","622049","0.0-108.0-0.0","46528904","wem/bandit_party_1","A1SWPK57MQMMSO","either","6","371","","","","","","","0","0","1","0.1327283285","","0.2","0.8","0.4","0.6","","","","","0.08542348091","0.2463093088","0.1327283285","0.08148965902","","","","","","","","","","75","K","2","","","67","main_expt",""
"","bandit","147","623882","0.0-109.0-0.0","46528904","wem/bandit_party_1","A1SWPK57MQMMSO","either","6","326","","","","","","","0","0","1","","0.115871946","0.2","0.8","0.4","0.6","0.05648132023","0.1863602012","0.1646421129","0.115871946","","","","","","","","","","","","","","76","L","3","","","68","main_expt",""
"","bandit","148","625682","0.0-110.0-0.0","46528904","wem/bandit_party_1","A1SWPK57MQMMSO","either","6","290","","","","","","","0","0","1","0.1481768435","","0.2","0.8","0.4","0.6","","","","","0.07427448495","0.1481768435","0.1879918005","0.1049465522","","","","","","","","","","74","J","1","","","69","main_expt",""
"","bandit","149","627542","0.0-111.0-0.0","46528904","wem/bandit_party_1","A1SWPK57MQMMSO","either","6","345","","","","","","","0","1","0","","0.1708527721","0.2","0.8","0.4","0.6","0.1052870039","0.2062415021","0.1708527721","0.1224614501","","","","","","","","","","","","","","75","K","2","","","70","main_expt",""
"","bandit","150","630754","0.0-112.0-0.0","46528904","wem/bandit_party_1","A1SWPK57MQMMSO","either","6","1707","","","","","","","0","0","1","0.1687358413","","0.2","0.8","0.4","0.6","","","","","0.1114501371","0.2175562698","0.1930923514","0.1687358413","","","","","","","","","","76","L","3","","","71","main_expt",""
"","bandit","151","632388","0.0-113.0-0.0","46528904","wem/bandit_party_1","A1SWPK57MQMMSO","either","6","127","","","","","","","1","0","0","0.2289396243","","0.2","0.8","0.4","0.6","","","","","0.1282799478","0.2182173038","0.2289396243","0.1902964731","","","","","","","","","","75","K","2","","","72","main_expt",""
"","bandit","152","634513","0.0-114.0-0.0","46528904","wem/bandit_party_1","A1SWPK57MQMMSO","either","6","614","","","","","","","0","0","1","0.2223781067","","0.2","0.8","0.4","0.6","","","","","0.1113050996","0.1629952044","0.2223781067","0.1764690901","","","","","","","","","","75","K","2","","","73","main_expt",""
"","bandit","153","636398","0.0-115.0-0.0","46528904","wem/bandit_party_1","A1SWPK57MQMMSO","either","6","375","","","","","","","0","0","1","","0.1664819569","0.2","0.8","0.4","0.6","0.1573287606","0.2291178652","0.1664819569","0.1720288853","","","","","","","","","","","","","","75","K","2","","","74","main_expt",""
"","bandit","154","638241","0.0-116.0-0.0","46528904","wem/bandit_party_1","A1SWPK57MQMMSO","either","6","330","","","","","","","0","1","0","","0.168318459","0.2","0.8","0.4","0.6","0.168318459","0.2087405931","0.1157276324","0.098780463","","","","","","","","","","","","","","72","H","0","img/none_selected.jpg","","75","main_expt",""
"","bandit","155","640082","0.0-117.0-0.0","46528904","wem/bandit_party_1","A1SWPK57MQMMSO","either","6","333","","","","","","","0","0","1","","0.131742089","0.2","0.8","0.4","0.6","0.131742089","0.1981976751","0.06912044911","0.08192786134","","","","","","","","","","","","","","72","H","0","img/none_selected.jpg","","76","main_expt",""
"","bandit","156","641819","0.0-118.0-0.0","46528904","wem/bandit_party_1","A1SWPK57MQMMSO","either","6","228","","","","","","","0","0","1","0.2302368041","","0.2","0.8","0.4","0.6","","","","","0.1382621175","0.2302368041","0.06151132513","0.03620126105","","","","","","","","","","74","J","1","","","77","main_expt",""
"","bandit","157","643771","0.0-119.0-0.0","46528904","wem/bandit_party_1","A1SWPK57MQMMSO","either","6","446","","","","","","","0","0","1","","0.08824794056","0.2","0.8","0.4","0.6","0.1351161864","0.2538269909","0.08824794056","0.03362754592","","","","","","","","","","","","","","75","K","2","","","78","main_expt",""
"","bandit","158","645809","0.0-120.0-0.0","46528904","wem/bandit_party_1","A1SWPK57MQMMSO","either","6","532","","","","","","","0","0","1","0.03917851348","","0.2","0.8","0.4","0.6","","","","","0.1125986002","0.221492582","0.08425003046","0.03917851348","","","","","","","","","","76","L","3","","","79","main_expt",""
"","bandit","159","647467","0.0-121.0-0.0","46528904","wem/bandit_party_1","A1SWPK57MQMMSO","either","6","151","","","","","","","0","0","1","","0.1071358869","0.2","0.8","0.4","0.6","0.1071358869","0.2126184008","0.1059393704","0.06916691586","","","","","","","","","","","","","","72","H","0","img/none_selected.jpg","","80","main_expt",""
"","bandit","160","649610","0.0-122.0-0.0","46528904","wem/bandit_party_1","A1SWPK57MQMMSO","either","6","637","","","","","","","0","0","1","0.1803612399","","0.2","0.8","0.4","0.6","","","","","0.1410751298","0.1803612399","0.114990546","0.1110223174","","","","","","","","","","74","J","1","","","81","main_expt",""
"","bandit","161","651489","0.0-123.0-0.0","46528904","wem/bandit_party_1","A1SWPK57MQMMSO","either","6","374","","","","","","","0","0","1","0.08899533144","","0.2","0.8","0.4","0.6","","","","","0.1518454263","0.1883980103","0.1246300745","0.08899533144","","","","","","","","","","76","L","3","","","82","main_expt",""
"","bandit","162","653372","0.0-124.0-0.0","46528904","wem/bandit_party_1","A1SWPK57MQMMSO","either","6","374","","","","","","","0","0","1","0.1285150734","","0.2","0.8","0.4","0.6","","","","","0.1285150734","0.2099895667","0.1523433176","0.1383499545","","","","","","","","","","72","H","0","img/none_selected.jpg","","83","main_expt",""
"","bandit","163","655209","0.0-125.0-0.0","46528904","wem/bandit_party_1","A1SWPK57MQMMSO","either","6","325","","","","","","","0","0","1","0.1815119679","","0.2","0.8","0.4","0.6","","","","","0.1083679187","0.1760666055","0.1230513595","0.1815119679","","","","","","","","","","76","L","3","","","84","main_expt",""
"","bandit","164","656850","0.0-126.0-0.0","46528904","wem/bandit_party_1","A1SWPK57MQMMSO","either","6","134","","","","","","","0","0","1","0.08985983991","","0.2","0.8","0.4","0.6","","","","","0.08985983991","0.2077415988","0.1460595132","0.2121304898","","","","","","","","","","72","H","0","img/none_selected.jpg","","85","main_expt",""
"","bandit","165","658722","0.0-127.0-0.0","46528904","wem/bandit_party_1","A1SWPK57MQMMSO","either","6","363","","","","","","","0","0","1","","0.1578730034","0.2","0.8","0.4","0.6","0.08377758623","0.1940704576","0.1578730034","0.1931166697","","","","","","","","","","","","","","75","K","2","","","86","main_expt",""
"","bandit","166","660700","0.0-128.0-0.0","46528904","wem/bandit_party_1","A1SWPK57MQMMSO","either","6","470","","","","","","","0","0","1","0.1920524506","","0.2","0.8","0.4","0.6","","","","","0.08340742779","0.1920524506","0.1329566931","0.1908876969","","","","","","","","","","74","J","1","","","87","main_expt",""
"","bandit","167","662569","0.0-129.0-0.0","46528904","wem/bandit_party_1","A1SWPK57MQMMSO","either","6","359","","","","","","","1","0","0","0.1727332377","","0.2","0.8","0.4","0.6","","","","","0.06937011617","0.2525081946","0.1156353122","0.1727332377","","","","","","","","","","76","L","3","","","88","main_expt",""
"","bandit","168","664814","0.0-130.0-0.0","46528904","wem/bandit_party_1","A1SWPK57MQMMSO","either","6","738","","","","","","","0","0","1","","0.1747664758","0.2","0.8","0.4","0.6","0.08556693901","0.2476280913","0.1169245856","0.1747664758","","","","","","","","","","","","","","76","L","3","","","89","main_expt",""
"","bandit","169","666577","0.0-131.0-0.0","46528904","wem/bandit_party_1","A1SWPK57MQMMSO","either","6","252","","","","","","","0","0","1","0.1013294801","","0.2","0.8","0.4","0.6","","","","","0.1013294801","0.2476417222","0.1276927611","0.1302891894","","","","","","","","","","72","H","0","img/none_selected.jpg","","90","main_expt",""
"","bandit","170","668393","0.0-132.0-0.0","46528904","wem/bandit_party_1","A1SWPK57MQMMSO","either","6","311","","","","","","","0","0","1","","0.1875867431","0.2","0.8","0.4","0.6","0.1567130635","0.1875867431","0.1633868825","0.1143331172","","","","","","","","","","","","","","74","J","1","","","91","main_expt",""
"","bandit","171","670425","0.0-133.0-0.0","46528904","wem/bandit_party_1","A1SWPK57MQMMSO","either","6","525","","","","","","","0","0","1","0.2172033847","","0.2","0.8","0.4","0.6","","","","","0.1214255195","0.1804963823","0.2172033847","0.1674068059","","","","","","","","","","75","K","2","","","92","main_expt",""
"","bandit","172","672306","0.0-134.0-0.0","46528904","wem/bandit_party_1","A1SWPK57MQMMSO","either","6","370","","","","","","","1","0","0","0.1405005834","","0.2","0.8","0.4","0.6","","","","","0.1317465968","0.1468121695","0.2178255547","0.1405005834","","","","","","","","","","76","L","3","","","93","main_expt",""
"","bandit","173","674913","0.0-135.0-0.0","46528904","wem/bandit_party_1","A1SWPK57MQMMSO","either","6","1098","","","","","","","0","0","1","0.1338278818","","0.2","0.8","0.4","0.6","","","","","0.1810196293","0.1270151289","0.2058786334","0.1338278818","","","","","","","","","","76","L","3","","","94","main_expt",""
"","bandit","174","677803","0.0-136.0-0.0","46528904","wem/bandit_party_1","A1SWPK57MQMMSO","either","6","1382","","","","","","","0","0","1","","0.1537803575","0.2","0.8","0.4","0.6","0.1537803575","0.1049494322","0.2009860572","0.16416917","","","","","","","","","","","","","","72","H","0","img/none_selected.jpg","","95","main_expt",""
"","bandit","175","679754","0.0-137.0-0.0","46528904","wem/bandit_party_1","A1SWPK57MQMMSO","either","6","444","","","","","","","0","0","1","","0.1242023773","0.2","0.8","0.4","0.6","0.2255368078","0.1242023773","0.2792576191","0.1075549125","","","","","","","","","","","","","","74","J","1","","","96","main_expt",""
"","bandit","176","682249","0.0-138.0-0.0","46528904","wem/bandit_party_1","A1SWPK57MQMMSO","either","6","990","","","","","","","0","0","1","0.101802889","","0.2","0.8","0.4","0.6","","","","","0.1881791955","0.101802889","0.291042229","0.07285617598","","","","","","","","","","74","J","1","","","97","main_expt",""
"","bandit","177","684109","0.0-139.0-0.0","46528904","wem/bandit_party_1","A1SWPK57MQMMSO","either","6","341","","","","","","","0","0","1","","0.2919937097","0.2","0.8","0.4","0.6","0.1722186849","0.08559904752","0.2919937097","0.1128802937","","","","","","","","","","","","","","75","K","2","","","98","main_expt",""
"","bandit","178","686157","0.0-140.0-0.0","46528904","wem/bandit_party_1","A1SWPK57MQMMSO","either","6","532","","","","","","","0","0","1","","0.07338875894","0.2","0.8","0.4","0.6","0.2581810796","0.04480153982","0.338066437","0.07338875894","","","","","","","","","","","","","","76","L","3","","","99","main_expt",""
"","bandit","179","688057","0.0-141.0-0.0","46528904","wem/bandit_party_1","A1SWPK57MQMMSO","either","6","380","","","","","","","0","0","1","0.03694367041","","0.2","0.8","0.4","0.6","","","","","0.3094702251","0.03694367041","0.3466775547","0.06256672301","","","","","","","","","","74","J","1","","","100","main_expt",""
"","bandit","180","692993","0.0-142.0-0.0","46528904","wem/bandit_party_1","A1SWPK57MQMMSO","either","6","3428","","","","","","","0","0","1","0.3217449289","","0.2","0.8","0.4","0.6","","","","","0.3217449289","0.02534596886","0.3776837944","0.06765033746","","","","","","","","","","72","H","0","img/none_selected.jpg","","101","main_expt",""
"","bandit","181","694914","0.0-143.0-0.0","46528904","wem/bandit_party_1","A1SWPK57MQMMSO","either","6","410","","","","","","","0","0","1","0.03456503798","","0.2","0.8","0.4","0.6","","","","","0.3656493725","0.03456503798","0.3988278911","0.08460413752","","","","","","","","","","74","J","1","","","102","main_expt",""
"","bandit","182","696838","0.0-144.0-0.0","46528904","wem/bandit_party_1","A1SWPK57MQMMSO","either","6","409","","","","","","","0","0","1","0.3642388176","","0.2","0.8","0.4","0.6","","","","","0.4097417878","0.03116272615","0.3642388176","0.1149622558","","","","","","","","","","75","K","2","","","103","main_expt",""
"","bandit","183","698680","0.0-145.0-0.0","46528904","wem/bandit_party_1","A1SWPK57MQMMSO","either","6","337","","","","","","","0","0","1","","0.1223821921","0.2","0.8","0.4","0.6","0.4005896235","0.04034009898","0.3059376685","0.1223821921","","","","","","","","","","","","","","76","L","3","","","104","main_expt",""
"","bandit","184","700544","0.0-146.0-0.0","46528904","wem/bandit_party_1","A1SWPK57MQMMSO","either","6","357","","","","","","","0","0","1","0.1302837569","","0.2","0.8","0.4","0.6","","","","","0.3967946647","0.06132200156","0.2658022239","0.1302837569","","","","","","","","","","76","L","3","","","105","main_expt",""
"","bandit","185","702090","0.0-147.0-0.0","46528904","wem/bandit_party_1","A1SWPK57MQMMSO","either","6","38","","","","","","","0","0","1","0.03171667797","","0.2","0.8","0.4","0.6","","","","","0.3920329447","0.03171667797","0.2583534607","0.1405927316","","","","","","","","","","74","J","1","","","106","main_expt",""
"","bandit","186","704219","0.0-148.0-0.0","46528904","wem/bandit_party_1","A1SWPK57MQMMSO","either","6","610","","","","","","","0","0","1","","0.3973329777","0.2","0.8","0.4","0.6","0.3973329777","0.06603394544","0.2402432731","0.1835021143","","","","","","","","","","","","","","72","H","0","img/none_selected.jpg","","107","main_expt",""
"","bandit","187","705992","0.0-149.0-0.0","46528904","wem/bandit_party_1","A1SWPK57MQMMSO","either","6","264","","","","","","","0","0","1","","0.2364509509","0.2","0.8","0.4","0.6","0.3839010997","0.08137973005","0.2364509509","0.2124513917","","","","","","","","","","","","","","75","K","2","","","108","main_expt",""
"","bandit","188","707902","0.0-150.0-0.0","46528904","wem/bandit_party_1","A1SWPK57MQMMSO","either","6","401","","","","","","","0","0","1","0.218007314","","0.2","0.8","0.4","0.6","","","","","0.3879107289","0.04765661509","0.2164051194","0.218007314","","","","","","","","","","76","L","3","","","109","main_expt",""
"","bandit","189","709769","0.0-151.0-0.0","46528904","wem/bandit_party_1","A1SWPK57MQMMSO","either","6","360","","","","","","","1","0","0","0.06789381979","","0.2","0.8","0.4","0.6","","","","","0.3989855113","0.06789381979","0.1611838666","0.229469423","","","","","","","","","","74","J","1","","","110","main_expt",""
"","bandit","190","711842","0.0-152.0-0.0","46528904","wem/bandit_party_1","A1SWPK57MQMMSO","either","6","565","","","","","","","0","0","1","0.08972795074","","0.2","0.8","0.4","0.6","","","","","0.3959495959","0.08972795074","0.2042622235","0.2923436213","","","","","","","","","","74","J","1","","","111","main_expt",""
"","bandit","191","713666","0.0-153.0-0.0","46528904","wem/bandit_party_1","A1SWPK57MQMMSO","either","6","318","","","","","","","1","0","0","0.2113733305","","0.2","0.8","0.4","0.6","","","","","0.335596647","0.1176683061","0.2113733305","0.2778802509","","","","","","","","","","75","K","2","","","112","main_expt",""
"","bandit","192","715809","0.0-154.0-0.0","46528904","wem/bandit_party_1","A1SWPK57MQMMSO","either","6","636","","","","","","","0","0","1","0.2852166322","","0.2","0.8","0.4","0.6","","","","","0.2876347753","0.1973953549","0.220236308","0.2852166322","","","","","","","","","","76","L","3","","","113","main_expt",""
"","bandit","193","718845","0.0-155.0-0.0","46528904","wem/bandit_party_1","A1SWPK57MQMMSO","either","6","1523","","","","","","","0","0","1","","0.2453392608","0.2","0.8","0.4","0.6","0.2811359795","0.200840576","0.2453392608","0.3222351196","","","","","","","","","","","","","","75","K","2","","","114","main_expt",""
"","bandit","194","721393","0.0-156.0-0.0","46528904","wem/bandit_party_1","A1SWPK57MQMMSO","either","6","1042","","","","","","","0","0","1","0.2544006126","","0.2","0.8","0.4","0.6","","","","","0.2056035349","0.2544006126","0.2311931225","0.2865303103","","","","","","","","","","74","J","1","","","115","main_expt",""
"","bandit","195","723332","0.0-157.0-0.0","46528904","wem/bandit_party_1","A1SWPK57MQMMSO","either","6","429","","","","","","","0","1","0","","0.2435386161","0.2","0.8","0.4","0.6","0.2435386161","0.2264812366","0.2290532582","0.1901772154","","","","","","","","","","","","","","72","H","0","img/none_selected.jpg","","116","main_expt",""
"","bandit","196","725857","0.0-158.0-0.0","46528904","wem/bandit_party_1","A1SWPK57MQMMSO","either","6","1011","","","","","","","0","0","1","","0.2535822563","0.2","0.8","0.4","0.6","0.2523066444","0.2535822563","0.2610634121","0.1854727963","","","","","","","","","","","","","","74","J","1","","","117","main_expt",""
"","bandit","197","727649","0.0-159.0-0.0","46528904","wem/bandit_party_1","A1SWPK57MQMMSO","either","6","282","","","","","","","0","0","1","","0.2915584027","0.2","0.8","0.4","0.6","0.258758296","0.288462609","0.2915584027","0.223078523","","","","","","","","","","","","","","75","K","2","","","118","main_expt",""
"","bandit","198","729402","0.0-160.0-0.0","46528904","wem/bandit_party_1","A1SWPK57MQMMSO","either","6","247","","","","","","","0","0","1","0.2157898803","","0.2","0.8","0.4","0.6","","","","","0.2513882557","0.3077733757","0.3240034744","0.2157898803","","","","","","","","","","76","L","3","","","119","main_expt",""
"","bandit","199","731521","0.0-161.0-0.0","46528904","wem/bandit_party_1","A1SWPK57MQMMSO","either","6","613","","","","","","","0","0","1","0.2178230887","","0.2","0.8","0.4","0.6","","","","","0.2178230887","0.3470363664","0.3584552205","0.2055853597","","","","","","","","","","72","H","0","img/none_selected.jpg","","120","main_expt",""
"","bandit","200","733387","0.0-162.0-0.0","46528904","wem/bandit_party_1","A1SWPK57MQMMSO","either","6","357","","","","","","","1","0","0","0.36369082","","0.2","0.8","0.4","0.6","","","","","0.2249913612","0.36369082","0.3392259721","0.2308362602","","","","","","","","","","74","J","1","","","121","main_expt",""
"","bandit","201","735257","0.0-163.0-0.0","46528904","wem/bandit_party_1","A1SWPK57MQMMSO","either","6","363","","","","","","","0","0","1","","0.3211990091","0.2","0.8","0.4","0.6","0.2135386538","0.3740977319","0.3211990091","0.1858821776","","","","","","","","","","","","","","75","K","2","","","122","main_expt",""
"","bandit","202","737073","0.0-164.0-0.0","46528904","wem/bandit_party_1","A1SWPK57MQMMSO","either","6","310","","","","","","","0","0","1","","0.1948645322","0.2","0.8","0.4","0.6","0.2742148462","0.3617230251","0.3082515077","0.1948645322","","","","","","","","","","","","","","76","L","3","","","123","main_expt",""
"","bandit","203","738804","0.0-165.0-0.0","46528904","wem/bandit_party_1","A1SWPK57MQMMSO","either","6","221","","","","","","","0","0","1","0.3189133642","","0.2","0.8","0.4","0.6","","","","","0.3092488957","0.3189133642","0.3337980485","0.1875433284","","","","","","","","","","74","J","1","","","124","main_expt",""
"","bandit","204","740859","0.0-166.0-0.0","46528904","wem/bandit_party_1","A1SWPK57MQMMSO","either","6","549","","","","","","","0","1","0","","0.2832498899","0.2","0.8","0.4","0.6","0.2832498899","0.3134342975","0.2815584253","0.1805360773","","","","","","","","","","","","","","72","H","0","img/none_selected.jpg","","125","main_expt",""
"","bandit","205","742952","0.0-167.0-0.0","46528904","wem/bandit_party_1","A1SWPK57MQMMSO","either","6","579","","","","","","","0","0","1","0.2889117865","","0.2","0.8","0.4","0.6","","","","","0.321902755","0.2889117865","0.2544389989","0.2199741614","","","","","","","","","","74","J","1","","","126","main_expt",""
"","bandit","206","745353","0.0-168.0-0.0","46528904","wem/bandit_party_1","A1SWPK57MQMMSO","either","6","894","","","","","","","1","0","0","0.217883989","","0.2","0.8","0.4","0.6","","","","","0.3163630435","0.3101500906","0.217883989","0.212963778","","","","","","","","","","75","K","2","","","127","main_expt",""
"","bandit","207","747388","0.0-169.0-0.0","46528904","wem/bandit_party_1","A1SWPK57MQMMSO","either","6","523","","","","","","","0","0","1","","0.1941215274","0.2","0.8","0.4","0.6","0.3242789072","0.3257933697","0.1941215274","0.1853882534","","","","","","","","","","","","","","75","K","2","","","128","main_expt",""
"","bandit","208","749240","0.0-170.0-0.0","46528904","wem/bandit_party_1","A1SWPK57MQMMSO","either","6","345","","","","","","","0","0","1","0.1486900389","","0.2","0.8","0.4","0.6","","","","","0.3430844202","0.2767822115","0.2093197904","0.1486900389","","","","","","","","","","76","L","3","","","129","main_expt",""
"","bandit","209","751173","0.0-171.0-0.0","46528904","wem/bandit_party_1","A1SWPK57MQMMSO","either","6","427","","","","","","","0","0","1","0.3389859305","","0.2","0.8","0.4","0.6","","","","","0.3487272729","0.3389859305","0.2325895014","0.1581202816","","","","","","","","","","74","J","1","","","130","main_expt",""
"","bandit","210","753083","0.0-172.0-0.0","46528904","wem/bandit_party_1","A1SWPK57MQMMSO","either","6","402","","","","","","","0","0","1","0.3850752379","","0.2","0.8","0.4","0.6","","","","","0.3850752379","0.2807576759","0.2680880231","0.1189605486","","","","","","","","","","72","H","0","img/none_selected.jpg","","131","main_expt",""
"","bandit","211","754889","0.0-173.0-0.0","46528904","wem/bandit_party_1","A1SWPK57MQMMSO","either","6","295","","","","","","","0","0","1","","0.2044414959","0.2","0.8","0.4","0.6","0.3547422913","0.2044414959","0.2053564998","0.08638656351","","","","","","","","","","","","","","74","J","1","","","132","main_expt",""
"","bandit","212","756804","0.0-174.0-0.0","46528904","wem/bandit_party_1","A1SWPK57MQMMSO","either","6","398","","","","","","","0","0","1","0.2102644512","","0.2","0.8","0.4","0.6","","","","","0.3256782816","0.2352631215","0.2102644512","0.104542274","","","","","","","","","","75","K","2","","","133","main_expt",""
"","bandit","213","758673","0.0-175.0-0.0","46528904","wem/bandit_party_1","A1SWPK57MQMMSO","either","6","362","","","","","","","0","0","1","0.1401790922","","0.2","0.8","0.4","0.6","","","","","0.2479378245","0.2808822736","0.2028105977","0.1401790922","","","","","","","","","","76","L","3","","","134","main_expt",""
"","bandit","214","760482","0.0-176.0-0.0","46528904","wem/bandit_party_1","A1SWPK57MQMMSO","either","6","302","","","","","","","0","0","1","","0.24301602","0.2","0.8","0.4","0.6","0.24301602","0.3053704558","0.1556880781","0.1818128853","","","","","","","","","","","","","","72","H","0","img/none_selected.jpg","","135","main_expt",""
"","bandit","215","762259","0.0-177.0-0.0","46528904","wem/bandit_party_1","A1SWPK57MQMMSO","either","6","264","","","","","","","0","0","1","","0.2630427063","0.2","0.8","0.4","0.6","0.2630427063","0.3140058771","0.1428421262","0.1583738081","","","","","","","","","","","","","","72","H","0","img/none_selected.jpg","","136","main_expt",""
"","bandit","216","764018","0.0-178.0-0.0","46528904","wem/bandit_party_1","A1SWPK57MQMMSO","either","6","251","","","","","","","0","0","1","","0.323699752","0.2","0.8","0.4","0.6","0.3053425806","0.323699752","0.1039390038","0.1497920091","","","","","","","","","","","","","","74","J","1","","","137","main_expt",""
"","bandit","217","765913","0.0-179.0-0.0","46528904","wem/bandit_party_1","A1SWPK57MQMMSO","either","6","382","","","","","","","0","0","1","0.07132433681","","0.2","0.8","0.4","0.6","","","","","0.3588623722","0.3435108126","0.07132433681","0.1128601551","","","","","","","","","","75","K","2","","","138","main_expt",""
"","bandit","218","767733","0.0-180.0-0.0","46528904","wem/bandit_party_1","A1SWPK57MQMMSO","either","6","302","","","","","","","0","0","1","0.1073604677","","0.2","0.8","0.4","0.6","","","","","0.2762704672","0.3505637202","0.1047165976","0.1073604677","","","","","","","","","","76","L","3","","","139","main_expt",""
"","bandit","219","769649","0.0-181.0-0.0","46528904","wem/bandit_party_1","A1SWPK57MQMMSO","either","6","409","","","","","","","1","0","0","0.4185251601","","0.2","0.8","0.4","0.6","","","","","0.2475753012","0.4185251601","0.09043849554","0.1376710563","","","","","","","","","","74","J","1","","","140","main_expt",""
"","bandit","220","771609","0.0-182.0-0.0","46528904","wem/bandit_party_1","A1SWPK57MQMMSO","either","6","454","","","","","","","1","0","0","0.4225289085","","0.2","0.8","0.4","0.6","","","","","0.2436306075","0.4225289085","0.05096505815","0.1412662962","","","","","","","","","","74","J","1","","","141","main_expt",""
"","bandit","221","773457","0.0-183.0-0.0","46528904","wem/bandit_party_1","A1SWPK57MQMMSO","either","6","342","","","","","","","0","0","1","","0.455259632","0.2","0.8","0.4","0.6","0.1998899021","0.455259632","0.02973759478","0.1543424817","","","","","","","","","","","","","","74","J","1","","","142","main_expt",""
"","bandit","222","775378","0.0-184.0-0.0","46528904","wem/bandit_party_1","A1SWPK57MQMMSO","either","6","408","","","","","","","1","0","0","0.2568100034","","0.2","0.8","0.4","0.6","","","","","0.2568100034","0.4287003803","0.04457260366","0.1552636118","","","","","","","","","","72","H","0","img/none_selected.jpg","","143","main_expt",""
"","bandit","223","777472","0.0-185.0-0.0","46528904","wem/bandit_party_1","A1SWPK57MQMMSO","either","6","584","","","","","","","0","0","1","","0.2859833531","0.2","0.8","0.4","0.6","0.2859833531","0.4260506414","0.04060115041","0.2241753426","","","","","","","","","","","","","","72","H","0","img/none_selected.jpg","","144","main_expt",""
"","bandit","224","779265","0.0-186.0-0.0","46528904","wem/bandit_party_1","A1SWPK57MQMMSO","either","6","285","","","","","","","0","0","1","","0.2080640158","0.2","0.8","0.4","0.6","0.2080640158","0.4202170594","0.06712401514","0.2484131349","","","","","","","","","","","","","","72","H","0","img/none_selected.jpg","","145","main_expt",""
"","bandit","225","781008","0.0-187.0-0.0","46528904","wem/bandit_party_1","A1SWPK57MQMMSO","either","6","237","","","","","","","0","0","1","","0.08780921534","0.2","0.8","0.4","0.6","0.2469639643","0.4333226383","0.08780921534","0.2905032103","","","","","","","","","","","","","","75","K","2","","","146","main_expt",""
"","bandit","226","782914","0.0-188.0-0.0","46528904","wem/bandit_party_1","A1SWPK57MQMMSO","either","6","398","","","","","","","0","0","1","","0.1333368233","0.2","0.8","0.4","0.6","0.2169279296","0.4340954059","0.1333368233","0.2846703457","","","","","","","","","","","","","","75","K","2","","","147","main_expt",""
"","bandit","227","784651","0.0-189.0-0.0","46528904","wem/bandit_party_1","A1SWPK57MQMMSO","either","6","216","","","","","","","0","0","1","0.09264147873","","0.2","0.8","0.4","0.6","","","","","0.1248284812","0.3903754431","0.09264147873","0.3010433131","","","","","","","","","","75","K","2","","","148","main_expt",""
"","bandit","228","786386","0.0-190.0-0.0","46528904","wem/bandit_party_1","A1SWPK57MQMMSO","either","6","229","","","","","","","0","0","1","","0.123708687","0.2","0.8","0.4","0.6","0.1498862571","0.4161192262","0.123708687","0.3421268102","","","","","","","","","","","","","","75","K","2","","","149","main_expt",""
"","bandit","229","788114","0.0-191.0-0.0","46528904","wem/bandit_party_1","A1SWPK57MQMMSO","either","6","220","","","","","","","0","0","1","","0.1087811601","0.2","0.8","0.4","0.6","0.2044632824","0.4545257836","0.1087811601","0.3382865341","","","","","","","","","","","","","","75","K","2","","","150","main_expt",""
"","bandit","230","789865","0.0-192.0-0.0","46528904","wem/bandit_party_1","A1SWPK57MQMMSO","either","6","240","","","","","","","0","0","1","","0.3031951358","0.2","0.8","0.4","0.6","0.1630699797","0.4553704948","0.1640336927","0.3031951358","","","","","","","","","","","","","","76","L","3","","","151","main_expt",""
"","bandit","231","791801","0.0-193.0-0.0","46528904","wem/bandit_party_1","A1SWPK57MQMMSO","either","6","429","","","","","","","0","1","0","","0.3163498213","0.2","0.8","0.4","0.6","0.1534962237","0.4692720684","0.1474195158","0.3163498213","","","","","","","","","","","","","","76","L","3","","","152","main_expt",""
"","bandit","232","793625","0.0-194.0-0.0","46528904","wem/bandit_party_1","A1SWPK57MQMMSO","either","6","318","","","","","","","0","0","1","","0.3205280093","0.2","0.8","0.4","0.6","0.1506701345","0.4794448159","0.1200421148","0.3205280093","","","","","","","","","","","","","","76","L","3","","","153","main_expt",""
"","bandit","233","795387","0.0-195.0-0.0","46528904","wem/bandit_party_1","A1SWPK57MQMMSO","either","6","251","","","","","","","1","0","0","0.2780981807","","0.2","0.8","0.4","0.6","","","","","0.1810992197","0.4762011242","0.1295208369","0.2780981807","","","","","","","","","","76","L","3","","","154","main_expt",""
"","bandit","234","797289","0.0-196.0-0.0","46528904","wem/bandit_party_1","A1SWPK57MQMMSO","either","6","391","","","","","","","0","0","1","0.2543788853","","0.2","0.8","0.4","0.6","","","","","0.2574031695","0.4797315341","0.1189574303","0.2543788853","","","","","","","","","","76","L","3","","","155","main_expt",""
"","bandit","235","799132","0.0-197.0-0.0","46528904","wem/bandit_party_1","A1SWPK57MQMMSO","either","6","333","","","","","","","1","0","0","0.2601772157","","0.2","0.8","0.4","0.6","","","","","0.1838662476","0.4815153028","0.1511338071","0.2601772157","","","","","","","","","","76","L","3","","","156","main_expt",""
"","bandit","236","800969","0.0-198.0-0.0","46528904","wem/bandit_party_1","A1SWPK57MQMMSO","either","6","329","","","","","","","1","0","0","0.27050514","","0.2","0.8","0.4","0.6","","","","","0.1951262555","0.4769669351","0.1494559257","0.27050514","","","","","","","","","","76","L","3","","","157","main_expt",""
"","bandit","237","802753","0.0-199.0-0.0","46528904","wem/bandit_party_1","A1SWPK57MQMMSO","either","6","278","","","","","","","1","0","0","0.2912044809","","0.2","0.8","0.4","0.6","","","","","0.1711173681","0.4819637572","0.1398300683","0.2912044809","","","","","","","","","","76","L","3","","","158","main_expt",""
"","bandit","238","804617","0.0-200.0-0.0","46528904","wem/bandit_party_1","A1SWPK57MQMMSO","either","6","350","","","","","","","0","0","1","","0.2863852675","0.2","0.8","0.4","0.6","0.1262927185","0.4802617926","0.1482700517","0.2863852675","","","","","","","","","","","","","","76","L","3","","","159","main_expt",""
"","bandit","239","806354","0.0-201.0-0.0","46528904","wem/bandit_party_1","A1SWPK57MQMMSO","either","6","231","","","","","","","0","0","1","0.3188379944","","0.2","0.8","0.4","0.6","","","","","0.1289005464","0.4834703177","0.1327856751","0.3188379944","","","","","","","","","","76","L","3","","","160","main_expt",""
"","bandit","240","808178","0.0-202.0-0.0","46528904","wem/bandit_party_1","A1SWPK57MQMMSO","either","6","317","","","","","","","0","0","1","","0.3918259889","0.2","0.8","0.4","0.6","0.07062595825","0.4783639554","0.1936248495","0.3918259889","","","","","","","","","","","","","","76","L","3","","","161","main_expt",""
"","bandit","241","809801","0.0-203.0-0.0","46528904","wem/bandit_party_1","A1SWPK57MQMMSO","either","6","117","","","","","","","0","0","1","0.3825352776","","0.2","0.8","0.4","0.6","","","","","0.08554885259","0.4702379588","0.1917288119","0.3825352776","","","","","","","","","","76","L","3","","","162","main_expt",""
"","bandit","242","811513","0.0-204.0-0.0","46528904","wem/bandit_party_1","A1SWPK57MQMMSO","either","6","204","","","","","","","0","0","1","0.3500114378","","0.2","0.8","0.4","0.6","","","","","0.05790820845","0.4761999765","0.2410074379","0.3500114378","","","","","","","","","","76","L","3","","","163","main_expt",""
"","bandit","243","813296","0.0-205.0-0.0","46528904","wem/bandit_party_1","A1SWPK57MQMMSO","either","6","272","","","","","","","0","0","1","0.3138306729","","0.2","0.8","0.4","0.6","","","","","0.04744410613","0.4683988395","0.2717164652","0.3138306729","","","","","","","","","","76","L","3","","","164","main_expt",""
"","bandit","244","815153","0.0-206.0-0.0","46528904","wem/bandit_party_1","A1SWPK57MQMMSO","either","6","336","","","","","","","0","1","0","","0.3066591237","0.2","0.8","0.4","0.6","0.07721988326","0.4594806004","0.3360488911","0.3066591237","","","","","","","","","","","","","","76","L","3","","","165","main_expt",""
"","bandit","245","817112","0.0-207.0-0.0","46528904","wem/bandit_party_1","A1SWPK57MQMMSO","either","6","448","","","","","","","1","0","0","0.359337808","","0.2","0.8","0.4","0.6","","","","","0.09276645858","0.4769271284","0.3288768439","0.359337808","","","","","","","","","","76","L","3","","","166","main_expt",""
"","bandit","246","818929","0.0-208.0-0.0","46528904","wem/bandit_party_1","A1SWPK57MQMMSO","either","6","307","","","","","","","1","0","0","0.3888119778","","0.2","0.8","0.4","0.6","","","","","0.1092251717","0.4824675089","0.341079324","0.3888119778","","","","","","","","","","76","L","3","","","167","main_expt",""
"","bandit","247","820794","0.0-209.0-0.0","46528904","wem/bandit_party_1","A1SWPK57MQMMSO","either","6","357","","","","","","","0","0","1","","0.3188253523","0.2","0.8","0.4","0.6","0.09704797424","0.4731218304","0.2972081376","0.3188253523","","","","","","","","","","","","","","76","L","3","","","168","main_expt",""
"","bandit","248","822667","0.0-210.0-0.0","46528904","wem/bandit_party_1","A1SWPK57MQMMSO","either","6","354","","","","","","","1","0","0","0.3035082617","","0.2","0.8","0.4","0.6","","","","","0.1131958007","0.4558692975","0.2716537329","0.3035082617","","","","","","","","","","76","L","3","","","169","main_expt",""
"","bandit","249","824430","0.0-211.0-0.0","46528904","wem/bandit_party_1","A1SWPK57MQMMSO","either","6","251","","","","","","","0","0","1","0.3540810543","","0.2","0.8","0.4","0.6","","","","","0.1636150477","0.424927817","0.3705489528","0.3540810543","","","","","","","","","","76","L","3","","","170","main_expt",""
"","bandit","250","826136","0.0-212.0-0.0","46528904","wem/bandit_party_1","A1SWPK57MQMMSO","either","6","195","","","","","","","0","1","0","","0.2912941695","0.2","0.8","0.4","0.6","0.1889182236","0.4254050478","0.3259531709","0.2912941695","","","","","","","","","","","","","","76","L","3","","","171","main_expt",""
"","bandit","251","827996","0.0-213.0-0.0","46528904","wem/bandit_party_1","A1SWPK57MQMMSO","either","6","353","","","","","","","0","0","1","0.2964718019","","0.2","0.8","0.4","0.6","","","","","0.1494540944","0.4319935488","0.3253578443","0.2964718019","","","","","","","","","","76","L","3","","","172","main_expt",""
"","bandit","252","829816","0.0-214.0-0.0","46528904","wem/bandit_party_1","A1SWPK57MQMMSO","either","6","314","","","","","","","0","0","1","0.2411205861","","0.2","0.8","0.4","0.6","","","","","0.1700291406","0.4157756128","0.3133285256","0.2411205861","","","","","","","","","","76","L","3","","","173","main_expt",""
"","bandit","253","831589","0.0-215.0-0.0","46528904","wem/bandit_party_1","A1SWPK57MQMMSO","either","6","266","","","","","","","0","0","1","0.2132737127","","0.2","0.8","0.4","0.6","","","","","0.2007600912","0.3650518631","0.3470844982","0.2132737127","","","","","","","","","","76","L","3","","","174","main_expt",""
"","bandit","254","833369","0.0-216.0-0.0","46528904","wem/bandit_party_1","A1SWPK57MQMMSO","either","6","268","","","","","","","0","0","1","0.3615725976","","0.2","0.8","0.4","0.6","","","","","0.1613291475","0.3583375904","0.3615725976","0.2722172758","","","","","","","","","","75","K","2","","","175","main_expt",""
"","bandit","255","835377","0.0-217.0-0.0","46528904","wem/bandit_party_1","A1SWPK57MQMMSO","either","6","488","","","","","","","0","0","1","","0.3849487833","0.2","0.8","0.4","0.6","0.1618540135","0.3849487833","0.3592449917","0.3158297255","","","","","","","","","","","","","","74","J","1","","","176","main_expt",""
"","bandit","256","837177","0.0-218.0-0.0","46528904","wem/bandit_party_1","A1SWPK57MQMMSO","either","6","293","","","","","","","0","1","0","","0.1337509382","0.2","0.8","0.4","0.6","0.1337509382","0.3741193846","0.3614776984","0.3033070912","","","","","","","","","","","","","","72","H","0","img/none_selected.jpg","","177","main_expt",""
"","bandit","257","839019","0.0-219.0-0.0","46528904","wem/bandit_party_1","A1SWPK57MQMMSO","either","6","334","","","","","","","0","0","1","","0.172909152","0.2","0.8","0.4","0.6","0.172909152","0.3704436283","0.4042649322","0.3070990366","","","","","","","","","","","","","","72","H","0","img/none_selected.jpg","","178","main_expt",""
"","bandit","258","840704","0.0-220.0-0.0","46528904","wem/bandit_party_1","A1SWPK57MQMMSO","either","6","179","","","","","","","1","0","0","0.3718647044","","0.2","0.8","0.4","0.6","","","","","0.2306318455","0.3718647044","0.3626499081","0.349206168","","","","","","","","","","74","J","1","","","179","main_expt",""
"","bandit","259","842876","0.0-221.0-0.0","46528904","wem/bandit_party_1","A1SWPK57MQMMSO","either","6","660","","","","","","","0","0","1","","0.2531752843","0.2","0.8","0.4","0.6","0.2531752843","0.3144845341","0.365831292","0.3533593609","","","","","","","","","","","","","","72","H","0","img/none_selected.jpg","","180","main_expt",""
"","bandit","260","844659","0.0-222.0-0.0","46528904","wem/bandit_party_1","A1SWPK57MQMMSO","either","6","275","","","","","","","0","0","1","0.3328992573","","0.2","0.8","0.4","0.6","","","","","0.2995137733","0.3328992573","0.3720079561","0.3792633926","","","","","","","","","","74","J","1","","","181","main_expt",""
"","bandit","261","846522","0.0-223.0-0.0","46528904","wem/bandit_party_1","A1SWPK57MQMMSO","either","6","347","","","","","","","0","1","0","","0.3747751333","0.2","0.8","0.4","0.6","0.2818604164","0.3443004049","0.3747751333","0.4170401524","","","","","","","","","","","","","","75","K","2","","","182","main_expt",""
"","bandit","262","848395","0.0-224.0-0.0","46528904","wem/bandit_party_1","A1SWPK57MQMMSO","either","6","355","","","","","","","0","0","1","","0.3772869326","0.2","0.8","0.4","0.6","0.2706787236","0.3572445505","0.3772869326","0.4349898381","","","","","","","","","","","","","","75","K","2","","","183","main_expt",""
"","bandit","263","850145","0.0-225.0-0.0","46528904","wem/bandit_party_1","A1SWPK57MQMMSO","either","6","244","","","","","","","0","0","1","0.4355724899","","0.2","0.8","0.4","0.6","","","","","0.2788381055","0.358140682","0.3719200221","0.4355724899","","","","","","","","","","76","L","3","","","184","main_expt",""
"","bandit","264","852160","0.0-226.0-0.0","46528904","wem/bandit_party_1","A1SWPK57MQMMSO","either","6","506","","","","","","","0","0","1","0.2938856532","","0.2","0.8","0.4","0.6","","","","","0.2591604306","0.2938856532","0.3759280431","0.443517249","","","","","","","","","","74","J","1","","","185","main_expt",""
"","bandit","265","853880","0.0-227.0-0.0","46528904","wem/bandit_party_1","A1SWPK57MQMMSO","either","6","213","","","","","","","0","0","1","0.3686405037","","0.2","0.8","0.4","0.6","","","","","0.1717283936","0.2570442146","0.3686405037","0.4185550765","","","","","","","","","","75","K","2","","","186","main_expt",""
"","bandit","266","855705","0.0-228.0-0.0","46528904","wem/bandit_party_1","A1SWPK57MQMMSO","either","6","317","","","","","","","0","0","1","","0.1399016055","0.2","0.8","0.4","0.6","0.1399016055","0.2781151114","0.3693778387","0.4582246802","","","","","","","","","","","","","","72","H","0","img/none_selected.jpg","","187","main_expt",""
"","bandit","267","857416","0.0-229.0-0.0","46528904","wem/bandit_party_1","A1SWPK57MQMMSO","either","6","204","","","","","","","0","0","1","0.2510368257","","0.2","0.8","0.4","0.6","","","","","0.116743447","0.2510368257","0.3858781765","0.4499637214","","","","","","","","","","74","J","1","","","188","main_expt",""
"","bandit","268","859249","0.0-230.0-0.0","46528904","wem/bandit_party_1","A1SWPK57MQMMSO","either","6","325","","","","","","","0","0","1","","0.353665234","0.2","0.8","0.4","0.6","0.09810356538","0.2299291889","0.353665234","0.4681283031","","","","","","","","","","","","","","75","K","2","","","189","main_expt",""
"","bandit","269","869320","0.0-231.0-0.0","46528904","wem/bandit_party_1","A1SWPK57MQMMSO","either","6","8564","","","","","","","1","0","0","0.2957770397","","0.2","0.8","0.4","0.6","","","","","0.1333212727","0.2957770397","0.3702546744","0.4672384316","","","","","","","","","","74","J","1","","","190","main_expt",""
"","bandit","270","871125","0.0-232.0-0.0","46528904","wem/bandit_party_1","A1SWPK57MQMMSO","either","6","291","","","","","","","0","0","1","0.2806998676","","0.2","0.8","0.4","0.6","","","","","0.07289491444","0.2806998676","0.3373283559","0.4633056668","","","","","","","","","","74","J","1","","","191","main_expt",""
"","bandit","271","873193","0.0-233.0-0.0","46528904","wem/bandit_party_1","A1SWPK57MQMMSO","either","6","560","","","","","","","0","0","1","","0.3717228864","0.2","0.8","0.4","0.6","0.09060717316","0.2578649702","0.3717228864","0.4701423021","","","","","","","","","","","","","","75","K","2","","","192","main_expt",""
"","bandit","272","874984","0.0-234.0-0.0","46528904","wem/bandit_party_1","A1SWPK57MQMMSO","either","6","281","","","","","","","0","0","1","0.4625827917","","0.2","0.8","0.4","0.6","","","","","0.1038106097","0.3019093773","0.3861484819","0.4625827917","","","","","","","","","","76","L","3","","","193","main_expt",""
"","bandit","273","876760","0.0-235.0-0.0","46528904","wem/bandit_party_1","A1SWPK57MQMMSO","either","6","270","","","","","","","0","0","1","0.3028603149","","0.2","0.8","0.4","0.6","","","","","0.1222204007","0.3028603149","0.3884838939","0.4480064119","","","","","","","","","","74","J","1","","","194","main_expt",""
"","bandit","274","878556","0.0-236.0-0.0","46528904","wem/bandit_party_1","A1SWPK57MQMMSO","either","6","286","","","","","","","0","0","1","","0.1230179676","0.2","0.8","0.4","0.6","0.1230179676","0.2933095063","0.4058549971","0.4263193963","","","","","","","","","","","","","","72","H","0","img/none_selected.jpg","","195","main_expt",""
"","bandit","275","880371","0.0-237.0-0.0","46528904","wem/bandit_party_1","A1SWPK57MQMMSO","either","6","297","","","","","","","0","0","1","","0.3333663608","0.2","0.8","0.4","0.6","0.1972068901","0.3333663608","0.3894648227","0.4399191733","","","","","","","","","","","","","","74","J","1","","","196","main_expt",""
"","bandit","276","882327","0.0-238.0-0.0","46528904","wem/bandit_party_1","A1SWPK57MQMMSO","either","6","449","","","","","","","0","0","1","","0.3452919481","0.2","0.8","0.4","0.6","0.2091218652","0.3472763543","0.3452919481","0.4303685687","","","","","","","","","","","","","","75","K","2","","","197","main_expt",""
"","bandit","277","884032","0.0-239.0-0.0","46528904","wem/bandit_party_1","A1SWPK57MQMMSO","either","6","197","","","","","","","0","0","1","0.4166638701","","0.2","0.8","0.4","0.6","","","","","0.2316117542","0.3420385624","0.3571156804","0.4166638701","","","","","","","","","","76","L","3","","","198","main_expt",""
"","bandit","278","885546","0.0-240.0-0.0","46528904","wem/bandit_party_1","A1SWPK57MQMMSO","either","6","5","","","","","","","0","0","1","0.3761278261","","0.2","0.8","0.4","0.6","","","","","0.1983173389","0.3009927129","0.3761278261","0.4166192342","","","","","","","","","","75","K","2","","","199","main_expt",""
"","bandit","279","887425","0.0-241.0-0.0","46528904","wem/bandit_party_1","A1SWPK57MQMMSO","either","6","372","","","","","","","0","0","1","","0.2275108597","0.2","0.8","0.4","0.6","0.2275108597","0.2834367318","0.3623939384","0.4065109498","","","","","","","","","","","","","","72","H","0","img/none_selected.jpg","","200","main_expt",""
"","bandit","280","889261","0.0-242.0-0.0","46528904","wem/bandit_party_1","A1SWPK57MQMMSO","either","6","327","","","","","","","0","0","1","0.2305195973","","0.2","0.8","0.4","0.6","","","","","0.2753755663","0.2305195973","0.3470966653","0.4210367682","","","","","","","","","","74","J","1","","","201","main_expt",""
"","bandit","281","891578","0.0-243.0-0.0","46528904","wem/bandit_party_1","A1SWPK57MQMMSO","either","6","810","","","","","","","0","0","1","","0.3738670455","0.2","0.8","0.4","0.6","0.2867984519","0.236439039","0.3738670455","0.4059774394","","","","","","","","","","","","","","75","K","2","","","202","main_expt",""
"","bandit","282","893531","0.0-244.0-0.0","46528904","wem/bandit_party_1","A1SWPK57MQMMSO","either","6","443","","","","","","","0","0","1","","0.4217634448","0.2","0.8","0.4","0.6","0.227681123","0.207292508","0.4434414113","0.4217634448","","","","","","","","","","","","","","76","L","3","","","203","main_expt",""
"","bandit","283","895266","0.0-245.0-0.0","46528904","wem/bandit_party_1","A1SWPK57MQMMSO","either","6","227","","","","","","","0","1","0","","0.4363530878","0.2","0.8","0.4","0.6","0.2421814767","0.2706274655","0.4363530878","0.417590799","","","","","","","","","","","","","","75","K","2","","","204","main_expt",""
"","bandit","284","897107","0.0-246.0-0.0","46528904","wem/bandit_party_1","A1SWPK57MQMMSO","either","6","331","","","","","","","1","0","0","0.4390009565","","0.2","0.8","0.4","0.6","","","","","0.2250127273","0.2688171721","0.4390009565","0.3892328218","","","","","","","","","","75","K","2","","","205","main_expt",""
"","bandit","285","899042","0.0-247.0-0.0","46528904","wem/bandit_party_1","A1SWPK57MQMMSO","either","6","426","","","","","","","0","0","1","","0.4606838579","0.2","0.8","0.4","0.6","0.2148063869","0.2774640617","0.4606838579","0.3877758809","","","","","","","","","","","","","","75","K","2","","","206","main_expt",""
"","bandit","286","900762","0.0-248.0-0.0","46528904","wem/bandit_party_1","A1SWPK57MQMMSO","either","6","211","","","","","","","0","1","0","","0.4679198071","0.2","0.8","0.4","0.6","0.2370073307","0.31303597","0.4679198071","0.3344078408","","","","","","","","","","","","","","75","K","2","","","207","main_expt",""
"","bandit","287","902427","0.0-249.0-0.0","46528904","wem/bandit_party_1","A1SWPK57MQMMSO","either","6","155","","","","","","","0","0","1","","0.3187850143","0.2","0.8","0.4","0.6","0.1736764344","0.3187850143","0.4731710197","0.3285414067","","","","","","","","","","","","","","74","J","1","","","208","main_expt",""
"","bandit","288","904401","0.0-250.0-0.0","46528904","wem/bandit_party_1","A1SWPK57MQMMSO","either","6","460","","","","","","","0","0","1","","0.2033963155","0.2","0.8","0.4","0.6","0.2033963155","0.3031297305","0.472507437","0.337659841","","","","","","","","","","","","","","72","H","0","img/none_selected.jpg","","209","main_expt",""
"","bandit","289","908096","0.0-251.0-0.0","46528904","wem/bandit_party_1","A1SWPK57MQMMSO","either","6","2187","","","","","","","0","1","0","","0.4759946166","0.2","0.8","0.4","0.6","0.1849029676","0.3593083662","0.4759946166","0.322880172","","","","","","","","","","","","","","75","K","2","","","210","main_expt",""
"","bandit","290","909939","0.0-252.0-0.0","46528904","wem/bandit_party_1","A1SWPK57MQMMSO","either","6","334","","","","","","","0","1","0","","0.3440981268","0.2","0.8","0.4","0.6","0.08033524441","0.3758292662","0.4838002785","0.3440981268","","","","","","","","","","","","","","76","L","3","","","211","main_expt",""
"","bandit","291","911859","0.0-253.0-0.0","46528904","wem/bandit_party_1","A1SWPK57MQMMSO","either","6","412","","","","","","","1","0","0","0.4871609062","","0.2","0.8","0.4","0.6","","","","","0.1024936548","0.3771764803","0.4871609062","0.3135232579","","","","","","","","","","75","K","2","","","212","main_expt",""
"","bandit","292","913708","0.0-254.0-0.0","46528904","wem/bandit_party_1","A1SWPK57MQMMSO","either","6","339","","","","","","","0","0","1","","0.4829725273","0.2","0.8","0.4","0.6","0.1380366818","0.3935517348","0.4829725273","0.328558382","","","","","","","","","","","","","","75","K","2","","","213","main_expt",""
"","bandit","293","915273","0.0-255.0-0.0","46528904","wem/bandit_party_1","A1SWPK57MQMMSO","either","6","59","","","","","","","0","0","1","","0.3024402918","0.2","0.8","0.4","0.6","0.1206441992","0.3792377037","0.4742933803","0.3024402918","","","","","","","","","","","","","","76","L","3","","","214","main_expt",""
"","bandit","294","917102","0.0-256.0-0.0","46528904","wem/bandit_party_1","A1SWPK57MQMMSO","either","6","320","","","","","","","1","0","0","0.4754417465","","0.2","0.8","0.4","0.6","","","","","0.1320715796","0.3364308411","0.4754417465","0.3024001881","","","","","","","","","","75","K","2","","","215","main_expt",""
"","bandit","295","919064","0.0-257.0-0.0","46528904","wem/bandit_party_1","A1SWPK57MQMMSO","either","6","452","","","","","","","0","0","1","0.3348871659","","0.2","0.8","0.4","0.6","","","","","0.1152906885","0.3348871659","0.4764866221","0.2975117226","","","","","","","","","","74","J","1","","","216","main_expt",""
"","bandit","296","920834","0.0-258.0-0.0","46528904","wem/bandit_party_1","A1SWPK57MQMMSO","either","6","260","","","","","","","0","0","1","","0.4727866334","0.2","0.8","0.4","0.6","0.1191406027","0.321293363","0.4727866334","0.3331298207","","","","","","","","","","","","","","75","K","2","","","217","main_expt",""
"","bandit","297","922555","0.0-259.0-0.0","46528904","wem/bandit_party_1","A1SWPK57MQMMSO","either","6","212","","","","","","","0","0","1","","0.2905667849","0.2","0.8","0.4","0.6","0.1177717736","0.3530973922","0.4664653133","0.2905667849","","","","","","","","","","","","","","76","L","3","","","218","main_expt",""
"","bandit","298","924315","0.0-260.0-0.0","46528904","wem/bandit_party_1","A1SWPK57MQMMSO","either","6","242","","","","","","","0","0","1","","0.1178729669","0.2","0.8","0.4","0.6","0.1178729669","0.3837093308","0.4636837267","0.2701708387","","","","","","","","","","","","","","72","H","0","img/none_selected.jpg","","219","main_expt",""
"","bandit","299","925945","0.0-261.0-0.0","46528904","wem/bandit_party_1","A1SWPK57MQMMSO","either","6","113","","","","","","","0","0","1","","0.3651541458","0.2","0.8","0.4","0.6","0.1284790336","0.3651541458","0.4599900571","0.2395453957","","","","","","","","","","","","","","74","J","1","","","220","main_expt",""
"","bandit","300","927786","0.0-262.0-0.0","46528904","wem/bandit_party_1","A1SWPK57MQMMSO","either","6","324","","","","","","","0","0","1","","0.4490722186","0.2","0.8","0.4","0.6","0.147465279","0.254085412","0.4490722186","0.2770622605","","","","","","","","","","","","","","75","K","2","","","221","main_expt",""
"","bandit","301","929360","0.0-263.0-0.0","46528904","wem/bandit_party_1","A1SWPK57MQMMSO","either","6","67","","","","","","","0","0","1","","0.3390746663","0.2","0.8","0.4","0.6","0.1441925756","0.2590796483","0.4253353094","0.3390746663","","","","","","","","","","","","","","76","L","3","","","222","main_expt",""
"","bandit","302","930890","0.0-264.0-0.0","46528904","wem/bandit_party_1","A1SWPK57MQMMSO","either","6","12","","","","","","","0","0","1","","0.4559825987","0.2","0.8","0.4","0.6","0.1731110736","0.2640852941","0.4559825987","0.384843876","","","","","","","","","","","","","","75","K","2","","","223","main_expt",""
"","bandit","303","932826","0.0-265.0-0.0","46528904","wem/bandit_party_1","A1SWPK57MQMMSO","either","6","430","","","","","","","0","0","1","0.464560515","","0.2","0.8","0.4","0.6","","","","","0.1124600034","0.2636590797","0.464560515","0.4367619307","","","","","","","","","","75","K","2","","","224","main_expt",""
"","bandit","304","934633","0.0-266.0-0.0","46528904","wem/bandit_party_1","A1SWPK57MQMMSO","either","6","301","","","","","","","0","0","1","0.3110444069","","0.2","0.8","0.4","0.6","","","","","0.1174510337","0.3110444069","0.4528378766","0.42055701","","","","","","","","","","74","J","1","","","225","main_expt",""
"","bandit","305","936434","0.0-267.0-0.0","46528904","wem/bandit_party_1","A1SWPK57MQMMSO","either","6","281","","","","","","","0","0","1","","0.1494320736","0.2","0.8","0.4","0.6","0.1494320736","0.3268768972","0.4585160156","0.4282593698","","","","","","","","","","","","","","72","H","0","img/none_selected.jpg","","226","main_expt",""
"","bandit","306","938402","0.0-268.0-0.0","46528904","wem/bandit_party_1","A1SWPK57MQMMSO","either","6","454","","","","","","","0","1","0","","0.1655037845","0.2","0.8","0.4","0.6","0.1655037845","0.3112991039","0.4525914875","0.4213985596","","","","","","","","","","","","","","72","H","0","img/none_selected.jpg","","227","main_expt",""
"","bandit","307","940528","0.0-269.0-0.0","46528904","wem/bandit_party_1","A1SWPK57MQMMSO","either","6","609","","","","","","","0","0","1","","0.1595877114","0.2","0.8","0.4","0.6","0.1595877114","0.3481066565","0.4618810074","0.4115599459","","","","","","","","","","","","","","72","H","0","img/none_selected.jpg","","228","main_expt",""
"","bandit","308","942465","0.0-270.0-0.0","46528904","wem/bandit_party_1","A1SWPK57MQMMSO","either","6","422","","","","","","","0","0","1","0.1811982871","","0.2","0.8","0.4","0.6","","","","","0.1811982871","0.3267856819","0.4661541784","0.375967734","","","","","","","","","","72","H","0","img/none_selected.jpg","","229","main_expt",""
"","bandit","309","944339","0.0-271.0-0.0","46528904","wem/bandit_party_1","A1SWPK57MQMMSO","either","6","364","","","","","","","1","0","0","0.3043034776","","0.2","0.8","0.4","0.6","","","","","0.2088208598","0.3043034776","0.4681373403","0.4172813036","","","","","","","","","","74","J","1","","","230","main_expt",""
"","bandit","310","946337","0.0-272.0-0.0","46528904","wem/bandit_party_1","A1SWPK57MQMMSO","either","6","482","","","","","","","0","0","1","","0.4733838814","0.2","0.8","0.4","0.6","0.2062946352","0.3127123154","0.4733838814","0.3871641603","","","","","","","","","","","","","","75","K","2","","","231","main_expt",""
"","bandit","311","948250","0.0-273.0-0.0","46528904","wem/bandit_party_1","A1SWPK57MQMMSO","either","6","396","","","","","","","1","0","0","0.3039198066","","0.2","0.8","0.4","0.6","","","","","0.1448621505","0.3039198066","0.455942125","0.3381606844","","","","","","","","","","74","J","1","","","232","main_expt",""
"","bandit","312","950321","0.0-274.0-0.0","46528904","wem/bandit_party_1","A1SWPK57MQMMSO","either","6","561","","","","","","","0","0","1","0.2846072758","","0.2","0.8","0.4","0.6","","","","","0.1096360744","0.2846072758","0.4523014459","0.2918198365","","","","","","","","","","74","J","1","","","233","main_expt",""
"","bandit","313","953035","0.0-275.0-0.0","46528904","wem/bandit_party_1","A1SWPK57MQMMSO","either","6","1204","","","","","","","0","1","0","","0.3016980071","0.2","0.8","0.4","0.6","0.1102272527","0.2430061478","0.4715877437","0.3016980071","","","","","","","","","","","","","","76","L","3","","","234","main_expt",""
"","bandit","314","955146","0.0-276.0-0.0","46528904","wem/bandit_party_1","A1SWPK57MQMMSO","either","6","599","","","","","","","1","0","0","0.2940059945","","0.2","0.8","0.4","0.6","","","","","0.1428859574","0.263037213","0.4667146267","0.2940059945","","","","","","","","","","76","L","3","","","235","main_expt",""
"","bandit","315","957151","0.0-277.0-0.0","46528904","wem/bandit_party_1","A1SWPK57MQMMSO","either","6","495","","","","","","","0","0","1","0.2926833733","","0.2","0.8","0.4","0.6","","","","","0.1659437887","0.2976510001","0.4638430617","0.2926833733","","","","","","","","","","76","L","3","","","236","main_expt",""
"","bandit","316","959125","0.0-278.0-0.0","46528904","wem/bandit_party_1","A1SWPK57MQMMSO","either","6","454","","","","","","","0","0","1","","0.1948695303","0.2","0.8","0.4","0.6","0.1948695303","0.2789990486","0.4584702359","0.278351659","","","","","","","","","","","","","","72","H","0","img/none_selected.jpg","","237","main_expt",""
