"consent","trial_type","trial_index","time_elapsed","internal_node_id","subjID","study","MID","cond","drift","rt","responses","button_pressed","key_press","like","value","connected","gems","bombs","no_reward","GemPrChosen","BombPrChosen","GainOverPainPr_0","GainOverPainPr_1","GainOverPainPr_2","GainOverPainPr_3","LosePr_0","LosePr_1","LosePr_2","LosePr_3","WinPr_0","WinPr_1","WinPr_2","WinPr_3","Q0","Q1","Q2","gender","age","ethnicity","label","expt_phase","target","respCharCode","respKey","respChoiceNum","respChoice","practice","trial_counter","trial_label","Q0_index"
"GDM/GDM_behavioral_consent_30min_online.html","consent","0","19220","0.0-0.0","49587770","wem/bandit_party_1","A1D35QE18L3J5Z","either","2","","","","","","","","","","","","","","","","","","","","","","","","","","","","","","","","","","","","","","","","",""
"","survey-text","1","28841","0.0-1.0","49587770","wem/bandit_party_1","A1D35QE18L3J5Z","either","2","8570","{""Q0"":""A1D35QE18L3J5Z""}","","","","","","","","","","","","","","","","","","","","","","","","","","","","","","","","","","","","","","",""
"","button-response","2","32517","0.0-2.0","49587770","wem/bandit_party_1","A1D35QE18L3J5Z","either","2","2644","","2","","","","","","","","","","","","","","","","","","","","","","","","","","","","","","","","","","","","","",""
"","text-replacement","3","53961","0.0-3.0","49587770","wem/bandit_party_1","A1D35QE18L3J5Z","either","2","20434","","","32","","","","","","","","","","","","","","","","","","","","","","","","","","","","","","","","","","","","",""
"","text-replacement","4","73361","0.0-4.0","49587770","wem/bandit_party_1","A1D35QE18L3J5Z","either","2","19396","","","32","","","","","","","","","","","","","","","","","","","","","","","","","","","","","","","","","","","","",""
"","text-replacement","5","98353","0.0-5.0-0.0","49587770","wem/bandit_party_1","A1D35QE18L3J5Z","either","2","24986","","","32","","","","","","","","","","","","","","","","","","","","","","","","","","","","","","","","","","","","",""
"","identification","6","117542","0.0-6.0-0.0","49587770","wem/bandit_party_1","A1D35QE18L3J5Z","either","2","19106","","","","3","3","3","","","","","","","","","","","","","","","","","","","","","","","","pre","identification_pre","the Republican party","","","","","","","",""
"","identification","7","124699","0.0-6.0-1.0","49587770","wem/bandit_party_1","A1D35QE18L3J5Z","either","2","6084","","","","3","3","3","","","","","","","","","","","","","","","","","","","","","","","","pre","identification_pre","the Democratic Party","","","","","","","",""
"","text-replacement","8","138399","0.0-7.0","49587770","wem/bandit_party_1","A1D35QE18L3J5Z","either","2","12680","","","32","","","","","","","","","","","","","","","","","","","","","","","","","","","","","","","","","","","","",""
"","text-replacement","9","145402","0.0-8.0","49587770","wem/bandit_party_1","A1D35QE18L3J5Z","either","2","6999","","","32","","","","","","","","","","","","","","","","","","","","","","","","","","","","","","","","","","","","",""
"","text-replacement","10","165687","0.0-9.0","49587770","wem/bandit_party_1","A1D35QE18L3J5Z","either","2","20280","","","32","","","","","","","","","","","","","","","","","","","","","","","","","","","","","","","","","","","","",""
"","text-replacement","11","171591","0.0-10.0","49587770","wem/bandit_party_1","A1D35QE18L3J5Z","either","2","5898","","","32","","","","","","","","","","","","","","","","","","","","","","","","","","","","","","","","","","","","",""
"","text-replacement","12","179252","0.0-11.0","49587770","wem/bandit_party_1","A1D35QE18L3J5Z","either","2","7657","","","32","","","","","","","","","","","","","","","","","","","","","","","","","","","","","","","","","","","","",""
"","bandit","13","185805","0.0-12.0-0.0","49587770","wem/bandit_party_1","A1D35QE18L3J5Z","either","2","5011","","","","","","","0","0","1","0","0","","","","","0","","","","0","","","","","","","","","","","","","74","J","0","img/none_selected_demo.jpg","true","0","",""
"","bandit","14","188259","0.0-13.0-0.0","49587770","wem/bandit_party_1","A1D35QE18L3J5Z","either","2","934","","","","","","","0","0","1","0","0","","","","","0","","","","0","","","","","","","","","","","","","75","K","0","img/none_selected_demo.jpg","true","0","",""
"","text-replacement","15","195251","0.0-14.0","49587770","wem/bandit_party_1","A1D35QE18L3J5Z","either","2","6986","","","32","","","","","","","","","","","","","","","","","","","","","","","","","","","","","","","","","","","","",""
"","text-replacement","16","206137","0.0-15.0","49587770","wem/bandit_party_1","A1D35QE18L3J5Z","either","2","10882","","","32","","","","","","","","","","","","","","","","","","","","","","","","","","","","","","","","","","","","",""
"","text-replacement","17","215349","0.0-16.0","49587770","wem/bandit_party_1","A1D35QE18L3J5Z","either","2","9207","","","32","","","","","","","","","","","","","","","","","","","","","","","","","","","","","","","","","","","","",""
"","text-replacement","18","220263","0.0-17.0","49587770","wem/bandit_party_1","A1D35QE18L3J5Z","either","2","4909","","","32","","","","","","","","","","","","","","","","","","","","","","","","","","","","","","","","","","","","",""
"","bandit","19","223496","0.0-18.0-0.0","49587770","wem/bandit_party_1","A1D35QE18L3J5Z","either","2","1711","","","","","","","0","1","0","","0.8","0.5","0.5","","","0.8","0.2","","","","","","","","","","","","","","","","74","J","0","img/none_selected_demo.jpg","true","0","80_20_practice",""
"","bandit","20","225681","0.0-18.0-1.0","49587770","wem/bandit_party_1","A1D35QE18L3J5Z","either","2","640","","","","","","","0","1","0","","0.8","0.5","0.5","","","0.8","0.2","","","","","","","","","","","","","","","","74","J","0","img/none_selected_demo.jpg","true","0","80_20_practice",""
"","bandit","21","228972","0.0-18.0-2.0","49587770","wem/bandit_party_1","A1D35QE18L3J5Z","either","2","1736","","","","","","","1","0","0","0.8","","0.5","0.5","","","","","","","0.8","0.2","","","","","","","","","","","","74","J","0","img/none_selected_demo.jpg","true","0","80_20_practice",""
"","bandit","22","231050","0.0-18.0-3.0","49587770","wem/bandit_party_1","A1D35QE18L3J5Z","either","2","550","","","","","","","0","1","0","","0.8","0.5","0.5","","","0.8","0.2","","","","","","","","","","","","","","","","74","J","0","img/none_selected_demo.jpg","true","0","80_20_practice",""
"","bandit","23","232965","0.0-18.0-4.0","49587770","wem/bandit_party_1","A1D35QE18L3J5Z","either","2","385","","","","","","","0","0","1","0.2","","0.5","0.5","","","","","","","0.8","0.2","","","","","","","","","","","","75","K","1","","true","0","80_20_practice",""
"","bandit","24","235040","0.0-18.0-5.0","49587770","wem/bandit_party_1","A1D35QE18L3J5Z","either","2","552","","","","","","","1","0","0","0.8","","0.5","0.5","","","","","","","0.8","0.2","","","","","","","","","","","","74","J","0","img/none_selected_demo.jpg","true","0","80_20_practice",""
"","bandit","25","237361","0.0-18.0-6.0","49587770","wem/bandit_party_1","A1D35QE18L3J5Z","either","2","780","","","","","","","0","1","0","","0.8","0.5","0.5","","","0.8","0.2","","","","","","","","","","","","","","","","74","J","0","img/none_selected_demo.jpg","true","0","80_20_practice",""
"","bandit","26","239281","0.0-18.0-7.0","49587770","wem/bandit_party_1","A1D35QE18L3J5Z","either","2","391","","","","","","","0","1","0","","0.8","0.5","0.5","","","0.8","0.2","","","","","","","","","","","","","","","","74","J","0","img/none_selected_demo.jpg","true","0","80_20_practice",""
"","bandit","27","241358","0.0-18.0-8.0","49587770","wem/bandit_party_1","A1D35QE18L3J5Z","either","2","538","","","","","","","0","1","0","","0.8","0.5","0.5","","","0.8","0.2","","","","","","","","","","","","","","","","74","J","0","img/none_selected_demo.jpg","true","0","80_20_practice",""
"","bandit","28","243406","0.0-18.0-9.0","49587770","wem/bandit_party_1","A1D35QE18L3J5Z","either","2","513","","","","","","","1","0","0","0.8","","0.5","0.5","","","","","","","0.8","0.2","","","","","","","","","","","","74","J","0","img/none_selected_demo.jpg","true","0","80_20_practice",""
"","bandit","29","245536","0.0-18.0-10.0","49587770","wem/bandit_party_1","A1D35QE18L3J5Z","either","2","607","","","","","","","0","0","1","0.8","","0.5","0.5","","","","","","","0.8","0.2","","","","","","","","","","","","74","J","0","img/none_selected_demo.jpg","true","0","80_20_practice",""
"","bandit","30","247565","0.0-18.0-11.0","49587770","wem/bandit_party_1","A1D35QE18L3J5Z","either","2","488","","","","","","","0","1","0","","0.8","0.5","0.5","","","0.8","0.2","","","","","","","","","","","","","","","","74","J","0","img/none_selected_demo.jpg","true","0","80_20_practice",""
"","bandit","31","249503","0.0-18.0-12.0","49587770","wem/bandit_party_1","A1D35QE18L3J5Z","either","2","412","","","","","","","1","0","0","0.8","","0.5","0.5","","","","","","","0.8","0.2","","","","","","","","","","","","74","J","0","img/none_selected_demo.jpg","true","0","80_20_practice",""
"","bandit","32","251997","0.0-18.0-13.0","49587770","wem/bandit_party_1","A1D35QE18L3J5Z","either","2","954","","","","","","","0","1","0","","0.8","0.5","0.5","","","0.8","0.2","","","","","","","","","","","","","","","","74","J","0","img/none_selected_demo.jpg","true","0","80_20_practice",""
"","bandit","33","253902","0.0-18.0-14.0","49587770","wem/bandit_party_1","A1D35QE18L3J5Z","either","2","384","","","","","","","0","1","0","","0.8","0.5","0.5","","","0.8","0.2","","","","","","","","","","","","","","","","74","J","0","img/none_selected_demo.jpg","true","0","80_20_practice",""
"","bandit","34","255853","0.0-18.0-15.0","49587770","wem/bandit_party_1","A1D35QE18L3J5Z","either","2","418","","","","","","","0","1","0","","0.8","0.5","0.5","","","0.8","0.2","","","","","","","","","","","","","","","","74","J","0","img/none_selected_demo.jpg","true","0","80_20_practice",""
"","bandit","35","257896","0.0-18.0-16.0","49587770","wem/bandit_party_1","A1D35QE18L3J5Z","either","2","499","","","","","","","1","0","0","0.8","","0.5","0.5","","","","","","","0.8","0.2","","","","","","","","","","","","74","J","0","img/none_selected_demo.jpg","true","0","80_20_practice",""
"","bandit","36","259693","0.0-18.0-17.0","49587770","wem/bandit_party_1","A1D35QE18L3J5Z","either","2","268","","","","","","","1","0","0","0.8","","0.5","0.5","","","","","","","0.8","0.2","","","","","","","","","","","","74","J","0","img/none_selected_demo.jpg","true","0","80_20_practice",""
"","bandit","37","261507","0.0-18.0-18.0","49587770","wem/bandit_party_1","A1D35QE18L3J5Z","either","2","290","","","","","","","0","1","0","","0.8","0.5","0.5","","","0.8","0.2","","","","","","","","","","","","","","","","74","J","0","img/none_selected_demo.jpg","true","0","80_20_practice",""
"","bandit","38","264027","0.0-18.0-19.0","49587770","wem/bandit_party_1","A1D35QE18L3J5Z","either","2","994","","","","","","","1","0","0","0.8","","0.5","0.5","","","","","","","0.8","0.2","","","","","","","","","","","","74","J","0","img/none_selected_demo.jpg","true","0","80_20_practice",""
"","text-replacement","39","269605","0.0-19.0","49587770","wem/bandit_party_1","A1D35QE18L3J5Z","either","2","5573","","","32","","","","","","","","","","","","","","","","","","","","","","","","","","","","","","","","","","","","",""
"","bandit","40","272559","0.0-20.0-0.0","49587770","wem/bandit_party_1","A1D35QE18L3J5Z","either","2","1420","","","","","","","1","0","0","1","0","","","","","0","1","","","1","0","","","","","","","","","","","","74","J","0","img/none_selected_demo.jpg","true","0","",""
"","text-replacement","41","281975","0.0-21.0","49587770","wem/bandit_party_1","A1D35QE18L3J5Z","either","2","9410","","","32","","","","","","","","","","","","","","","","","","","","","","","","","","","","","","","","","","","","",""
"","text-replacement","42","285866","0.0-22.0","49587770","wem/bandit_party_1","A1D35QE18L3J5Z","either","2","3885","","","32","","","","","","","","","","","","","","","","","","","","","","","","","","","","","","","","","","","","",""
"","text-replacement","43","289620","0.0-23.0","49587770","wem/bandit_party_1","A1D35QE18L3J5Z","either","2","3748","","","32","","","","","","","","","","","","","","","","","","","","","","","","","","","","","","","","","","","","",""
"","text-replacement","44","296617","0.0-24.0","49587770","wem/bandit_party_1","A1D35QE18L3J5Z","either","2","6992","","","32","","","","","","","","","","","","","","","","","","","","","","","","","","","","","","","","","","","","",""
"","text-replacement","45","309779","0.0-25.0","49587770","wem/bandit_party_1","A1D35QE18L3J5Z","either","2","13157","","","32","","","","","","","","","","","","","","","","","","","","","","","","","","","","","","","","","","","","",""
"","text-replacement","46","313964","0.0-26.0","49587770","wem/bandit_party_1","A1D35QE18L3J5Z","either","2","4179","","","32","","","","","","","","","","","","","","","","","","","","","","","","","","","","","","","","","","","","",""
"","text-replacement","47","318419","0.0-27.0","49587770","wem/bandit_party_1","A1D35QE18L3J5Z","either","2","4450","","","32","","","","","","","","","","","","","","","","","","","","","","","","","","","","","","","","","","","","",""
"","text-replacement","48","327717","0.0-28.0","49587770","wem/bandit_party_1","A1D35QE18L3J5Z","either","2","9294","","","32","","","","","","","","","","","","","","","","","","","","","","","","","","","","","","","","","","","","",""
"","text-replacement","49","332449","0.0-29.0","49587770","wem/bandit_party_1","A1D35QE18L3J5Z","either","2","4726","","","32","","","","","","","","","","","","","","","","","","","","","","","","","","","","","","","","","","","","",""
"","text-replacement","50","335081","0.0-30.0","49587770","wem/bandit_party_1","A1D35QE18L3J5Z","either","2","2616","","","32","","","","","","","","","","","","","","","","","","","","","","","","","","","","","","","","","","","","",""
"","text-replacement","51","337596","0.0-31.0","49587770","wem/bandit_party_1","A1D35QE18L3J5Z","either","2","2510","","","32","","","","","","","","","","","","","","","","","","","","","","","","","","","","","","","","","","","","",""
"","bandit","52","339806","0.0-32.0-0.0","49587770","wem/bandit_party_1","A1D35QE18L3J5Z","either","2","673","","","","","","","0","1","0","","0.8","0.5","0.5","0.5","0.5","0.8","0.2","0.6","0.2","","","","","","","","","","","","","","72","H","0","img/none_selected.jpg","true","0","full_practice",""
"","bandit","53","342896","0.0-32.0-1.0","49587770","wem/bandit_party_1","A1D35QE18L3J5Z","either","2","1544","","","","","","","1","0","0","0.8","","0.5","0.5","0.5","0.5","","","","","0.8","0.2","0.6","0.2","","","","","","","","","","72","H","0","img/none_selected.jpg","true","0","full_practice",""
"","bandit","54","344715","0.0-32.0-2.0","49587770","wem/bandit_party_1","A1D35QE18L3J5Z","either","2","280","","","","","","","0","0","1","0.2","","0.5","0.5","0.5","0.5","","","","","0.8","0.2","0.6","0.2","","","","","","","","","","74","J","1","","true","0","full_practice",""
"","bandit","55","346602","0.0-32.0-3.0","49587770","wem/bandit_party_1","A1D35QE18L3J5Z","either","2","365","","","","","","","0","0","1","0.6","","0.5","0.5","0.5","0.5","","","","","0.8","0.2","0.6","0.2","","","","","","","","","","75","K","2","","true","0","full_practice",""
"","bandit","56","348399","0.0-32.0-4.0","49587770","wem/bandit_party_1","A1D35QE18L3J5Z","either","2","272","","","","","","","0","0","1","0.2","","0.5","0.5","0.5","0.5","","","","","0.8","0.2","0.6","0.2","","","","","","","","","","76","L","3","","true","0","full_practice",""
"","bandit","57","350237","0.0-32.0-5.0","49587770","wem/bandit_party_1","A1D35QE18L3J5Z","either","2","299","","","","","","","0","0","1","0.2","","0.5","0.5","0.5","0.5","","","","","0.8","0.2","0.6","0.2","","","","","","","","","","76","L","3","","true","0","full_practice",""
"","bandit","58","352246","0.0-32.0-6.0","49587770","wem/bandit_party_1","A1D35QE18L3J5Z","either","2","470","","","","","","","0","0","1","","0.6","0.5","0.5","0.5","0.5","0.8","0.2","0.6","0.2","","","","","","","","","","","","","","75","K","2","","true","0","full_practice",""
"","bandit","59","354149","0.0-32.0-7.0","49587770","wem/bandit_party_1","A1D35QE18L3J5Z","either","2","380","","","","","","","0","0","1","0.2","","0.5","0.5","0.5","0.5","","","","","0.8","0.2","0.6","0.2","","","","","","","","","","74","J","1","","true","0","full_practice",""
"","bandit","60","356208","0.0-32.0-8.0","49587770","wem/bandit_party_1","A1D35QE18L3J5Z","either","2","507","","","","","","","1","0","0","0.8","","0.5","0.5","0.5","0.5","","","","","0.8","0.2","0.6","0.2","","","","","","","","","","72","H","0","img/none_selected.jpg","true","0","full_practice",""
"","bandit","61","358685","0.0-32.0-9.0","49587770","wem/bandit_party_1","A1D35QE18L3J5Z","either","2","947","","","","","","","1","0","0","0.8","","0.5","0.5","0.5","0.5","","","","","0.8","0.2","0.6","0.2","","","","","","","","","","72","H","0","img/none_selected.jpg","true","0","full_practice",""
"","bandit","62","360634","0.0-32.0-10.0","49587770","wem/bandit_party_1","A1D35QE18L3J5Z","either","2","413","","","","","","","1","0","0","0.2","","0.5","0.5","0.5","0.5","","","","","0.8","0.2","0.6","0.2","","","","","","","","","","74","J","1","","true","0","full_practice",""
"","bandit","63","362694","0.0-32.0-11.0","49587770","wem/bandit_party_1","A1D35QE18L3J5Z","either","2","490","","","","","","","1","0","0","0.6","","0.5","0.5","0.5","0.5","","","","","0.8","0.2","0.6","0.2","","","","","","","","","","75","K","2","","true","0","full_practice",""
"","bandit","64","364993","0.0-32.0-12.0","49587770","wem/bandit_party_1","A1D35QE18L3J5Z","either","2","739","","","","","","","1","0","0","0.2","","0.5","0.5","0.5","0.5","","","","","0.8","0.2","0.6","0.2","","","","","","","","","","76","L","3","","true","0","full_practice",""
"","bandit","65","366909","0.0-32.0-13.0","49587770","wem/bandit_party_1","A1D35QE18L3J5Z","either","2","379","","","","","","","0","0","1","0.2","","0.5","0.5","0.5","0.5","","","","","0.8","0.2","0.6","0.2","","","","","","","","","","76","L","3","","true","0","full_practice",""
"","bandit","66","368854","0.0-32.0-14.0","49587770","wem/bandit_party_1","A1D35QE18L3J5Z","either","2","419","","","","","","","0","0","1","0.6","","0.5","0.5","0.5","0.5","","","","","0.8","0.2","0.6","0.2","","","","","","","","","","75","K","2","","true","0","full_practice",""
"","bandit","67","370641","0.0-32.0-15.0","49587770","wem/bandit_party_1","A1D35QE18L3J5Z","either","2","261","","","","","","","0","0","1","","0.2","0.5","0.5","0.5","0.5","0.8","0.2","0.6","0.2","","","","","","","","","","","","","","74","J","1","","true","0","full_practice",""
"","bandit","68","372306","0.0-32.0-16.0","49587770","wem/bandit_party_1","A1D35QE18L3J5Z","either","2","134","","","","","","","1","0","0","0.8","","0.5","0.5","0.5","0.5","","","","","0.8","0.2","0.6","0.2","","","","","","","","","","72","H","0","img/none_selected.jpg","true","0","full_practice",""
"","bandit","69","374144","0.0-32.0-17.0","49587770","wem/bandit_party_1","A1D35QE18L3J5Z","either","2","316","","","","","","","0","0","1","","0.2","0.5","0.5","0.5","0.5","0.8","0.2","0.6","0.2","","","","","","","","","","","","","","74","J","1","","true","0","full_practice",""
"","bandit","70","376741","0.0-32.0-18.0","49587770","wem/bandit_party_1","A1D35QE18L3J5Z","either","2","1059","","","","","","","0","1","0","","0.8","0.5","0.5","0.5","0.5","0.8","0.2","0.6","0.2","","","","","","","","","","","","","","72","H","0","img/none_selected.jpg","true","0","full_practice",""
"","bandit","71","378893","0.0-32.0-19.0","49587770","wem/bandit_party_1","A1D35QE18L3J5Z","either","2","600","","","","","","","1","0","0","0.8","","0.5","0.5","0.5","0.5","","","","","0.8","0.2","0.6","0.2","","","","","","","","","","72","H","0","img/none_selected.jpg","true","0","full_practice",""
"","text","72","383704","0.0-33.0","49587770","wem/bandit_party_1","A1D35QE18L3J5Z","either","2","4797","","","32","","","","","","","","","","","","","","","","","","","","","","","","","","","","","","","","","","","","",""
"","text-replacement","73","398286","0.0-34.0","49587770","wem/bandit_party_1","A1D35QE18L3J5Z","either","2","13563","","","32","","","","","","","","","","","","","","","","","","","","","","","","","","","","","","","","","","","","",""
"","text-replacement","74","407019","0.0-35.0","49587770","wem/bandit_party_1","A1D35QE18L3J5Z","either","2","8724","","","32","","","","","","","","","","","","","","","","","","","","","","","","","","","","","","","","","","","","",""
"","text-replacement","75","412548","0.0-36.0","49587770","wem/bandit_party_1","A1D35QE18L3J5Z","either","2","5522","","","32","","","","","","","","","","","","","","","","","","","","","","","","","","","","","","","","","","","","",""
"","text-replacement","76","418690","0.0-37.0","49587770","wem/bandit_party_1","A1D35QE18L3J5Z","either","2","6135","","","32","","","","","","","","","","","","","","","","","","","","","","","","","","","","","","","","","","","","",""
"","text-replacement","77","421384","0.0-38.0","49587770","wem/bandit_party_1","A1D35QE18L3J5Z","either","2","2688","","","32","","","","","","","","","","","","","","","","","","","","","","","","","","","","","","","","","","","","",""
"","survey-multi-choice-replacement","78","430291","0.0-39.0-0.0","49587770","wem/bandit_party_1","A1D35QE18L3J5Z","either","2","8879","","","","","","","","","","","","","","","","","","","","","","","","Money will be added to the pool for <span style='color:red;'>REPUBLICANS</span>","","","","","","","attn_check","","","","","","","","","0"
"","survey-multi-choice-replacement","79","435908","0.0-40.0-0.0","49587770","wem/bandit_party_1","A1D35QE18L3J5Z","either","2","4572","","","","","","","","","","","","","","","","","","","","","","","","Equal amounts of money will be added to the pool for <span style='color:red;'>REPUBLICANS</span> and subtracted from the pool for <span style='color:blue;'>DEMOCRATS</span>","","","","","","","attn_check","","","","","","","","","2"
"","survey-multi-choice-replacement","80","441013","0.0-41.0-0.0","49587770","wem/bandit_party_1","A1D35QE18L3J5Z","either","2","4067","","","","","","","","","","","","","","","","","","","","","","","","No money will be added to either pool","","","","","","","attn_check","","","","","","","","","3"
"","bandit","81","445890","0.0-42.0-0.0","49587770","wem/bandit_party_1","A1D35QE18L3J5Z","either","2","2314","","","","","","","0","0","1","0.3653736811","","0.4","0.2","0.8","0.6","","","","","0.3653736811","0.4781977867","0.326135308","0.362799796","","","","","","","","","","72","H","0","img/none_selected.jpg","","1","main_expt",""
"","bandit","82","447989","0.0-43.0-0.0","49587770","wem/bandit_party_1","A1D35QE18L3J5Z","either","2","557","","","","","","","0","1","0","","0.4765481994","0.4","0.2","0.8","0.6","0.3999069229","0.4765481994","0.3564958201","0.3891507205","","","","","","","","","","","","","","74","J","1","","","2","main_expt",""
"","bandit","83","450074","0.0-44.0-0.0","49587770","wem/bandit_party_1","A1D35QE18L3J5Z","either","2","555","","","","","","","0","1","0","","0.4722158263","0.4","0.2","0.8","0.6","0.4363582421","0.4722158263","0.3309056029","0.3151339382","","","","","","","","","","","","","","74","J","1","","","3","main_expt",""
"","bandit","84","452316","0.0-45.0-0.0","49587770","wem/bandit_party_1","A1D35QE18L3J5Z","either","2","706","","","","","","","0","0","1","","0.4609570051","0.4","0.2","0.8","0.6","0.4300921111","0.4609570051","0.308467875","0.250648122","","","","","","","","","","","","","","74","J","1","","","4","main_expt",""
"","bandit","85","454333","0.0-46.0-0.0","49587770","wem/bandit_party_1","A1D35QE18L3J5Z","either","2","471","","","","","","","0","0","1","0.3349995635","","0.4","0.2","0.8","0.6","","","","","0.3863220662","0.4707799186","0.3349995635","0.2382585344","","","","","","","","","","75","K","2","","","5","main_expt",""
"","bandit","86","456479","0.0-47.0-0.0","49587770","wem/bandit_party_1","A1D35QE18L3J5Z","either","2","607","","","","","","","0","0","1","","0.2088101903","0.4","0.2","0.8","0.6","0.4192648028","0.4676743975","0.3743101545","0.2088101903","","","","","","","","","","","","","","76","L","3","","","6","main_expt",""
"","bandit","87","458316","0.0-48.0-0.0","49587770","wem/bandit_party_1","A1D35QE18L3J5Z","either","2","317","","","","","","","0","1","0","","0.4767364015","0.4","0.2","0.8","0.6","0.4218548145","0.4767364015","0.377506125","0.1884279889","","","","","","","","","","","","","","74","J","1","","","7","main_expt",""
"","bandit","88","460349","0.0-49.0-0.0","49587770","wem/bandit_party_1","A1D35QE18L3J5Z","either","2","509","","","","","","","0","1","0","","0.4837409877","0.4","0.2","0.8","0.6","0.4298914749","0.4837409877","0.3452849142","0.2297930851","","","","","","","","","","","","","","74","J","1","","","8","main_expt",""
"","bandit","89","462421","0.0-50.0-0.0","49587770","wem/bandit_party_1","A1D35QE18L3J5Z","either","2","545","","","","","","","0","0","1","0.4825212187","","0.4","0.2","0.8","0.6","","","","","0.4215440671","0.4825212187","0.2713567333","0.2219539873","","","","","","","","","","74","J","1","","","9","main_expt",""
"","bandit","90","464325","0.0-51.0-0.0","49587770","wem/bandit_party_1","A1D35QE18L3J5Z","either","2","360","","","","","","","0","0","1","","0.4791264729","0.4","0.2","0.8","0.6","0.3991616263","0.4791264729","0.2712708503","0.2398128751","","","","","","","","","","","","","","74","J","1","","","10","main_expt",""
"","bandit","91","466152","0.0-52.0-0.0","49587770","wem/bandit_party_1","A1D35QE18L3J5Z","either","2","301","","","","","","","1","0","0","0.2635531688","","0.4","0.2","0.8","0.6","","","","","0.4002673883","0.4762013833","0.2635531688","0.2551733424","","","","","","","","","","75","K","2","","","11","main_expt",""
"","bandit","92","468304","0.0-53.0-0.0","49587770","wem/bandit_party_1","A1D35QE18L3J5Z","either","2","623","","","","","","","0","0","1","","0.2669056975","0.4","0.2","0.8","0.6","0.368629831","0.4729837645","0.2669056975","0.2593424883","","","","","","","","","","","","","","75","K","2","","","12","main_expt",""
"","bandit","93","470025","0.0-54.0-0.0","49587770","wem/bandit_party_1","A1D35QE18L3J5Z","either","2","183","","","","","","","0","1","0","","0.4189726289","0.4","0.2","0.8","0.6","0.4189726289","0.4749786695","0.3204456557","0.2493591627","","","","","","","","","","","","","","72","H","0","img/none_selected.jpg","","13","main_expt",""
"","bandit","94","471892","0.0-55.0-0.0","49587770","wem/bandit_party_1","A1D35QE18L3J5Z","either","2","331","","","","","","","1","0","0","0.2686446846","","0.4","0.2","0.8","0.6","","","","","0.4352425359","0.4810115094","0.3466526728","0.2686446846","","","","","","","","","","76","L","3","","","14","main_expt",""
"","bandit","95","473814","0.0-56.0-0.0","49587770","wem/bandit_party_1","A1D35QE18L3J5Z","either","2","378","","","","","","","0","1","0","","0.4705329286","0.4","0.2","0.8","0.6","0.3819090161","0.4705329286","0.3736671224","0.2690169042","","","","","","","","","","","","","","74","J","1","","","15","main_expt",""
"","bandit","96","475876","0.0-57.0-0.0","49587770","wem/bandit_party_1","A1D35QE18L3J5Z","either","2","519","","","","","","","1","0","0","0.3778143907","","0.4","0.2","0.8","0.6","","","","","0.3737760256","0.4687419894","0.3778143907","0.2518303543","","","","","","","","","","75","K","2","","","16","main_expt",""
"","bandit","97","480039","0.0-58.0-0.0","49587770","wem/bandit_party_1","A1D35QE18L3J5Z","either","2","2626","","","","","","","0","0","1","0.4151791473","","0.4","0.2","0.8","0.6","","","","","0.4151791473","0.4594180265","0.3845750066","0.2406549936","","","","","","","","","","72","H","0","img/none_selected.jpg","","17","main_expt",""
"","bandit","98","481961","0.0-59.0-0.0","49587770","wem/bandit_party_1","A1D35QE18L3J5Z","either","2","393","","","","","","","0","0","1","","0.2670149403","0.4","0.2","0.8","0.6","0.4137363134","0.425397146","0.4041286345","0.2670149403","","","","","","","","","","","","","","76","L","3","","","18","main_expt",""
"","bandit","99","483652","0.0-60.0-0.0","49587770","wem/bandit_party_1","A1D35QE18L3J5Z","either","2","158","","","","","","","0","1","0","","0.4201246927","0.4","0.2","0.8","0.6","0.4084056464","0.4201246927","0.4127350431","0.2658482338","","","","","","","","","","","","","","74","J","1","","","19","main_expt",""
"","bandit","100","485955","0.0-61.0-0.0","49587770","wem/bandit_party_1","A1D35QE18L3J5Z","either","2","762","","","","","","","0","0","1","0.4107359536","","0.4","0.2","0.8","0.6","","","","","0.4129175496","0.3954271328","0.4107359536","0.2452433766","","","","","","","","","","75","K","2","","","20","main_expt",""
"","bandit","101","487872","0.0-62.0-0.0","49587770","wem/bandit_party_1","A1D35QE18L3J5Z","either","2","379","","","","","","","0","0","1","","0.4196431029","0.4","0.2","0.8","0.6","0.3888488162","0.4196431029","0.3954861765","0.2298761452","","","","","","","","","","","","","","74","J","1","","","21","main_expt",""
"","bandit","102","489737","0.0-63.0-0.0","49587770","wem/bandit_party_1","A1D35QE18L3J5Z","either","2","335","","","","","","","0","1","0","","0.3843335182","0.4","0.2","0.8","0.6","0.3873149631","0.3843335182","0.3805979297","0.266827693","","","","","","","","","","","","","","74","J","1","","","22","main_expt",""
"","bandit","103","491833","0.0-64.0-0.0","49587770","wem/bandit_party_1","A1D35QE18L3J5Z","either","2","555","","","","","","","1","0","0","0.425451992","","0.4","0.2","0.8","0.6","","","","","0.3659772031","0.3839977458","0.425451992","0.2519769849","","","","","","","","","","75","K","2","","","23","main_expt",""
"","bandit","104","494887","0.0-65.0-0.0","49587770","wem/bandit_party_1","A1D35QE18L3J5Z","either","2","1527","","","","","","","0","0","1","","0.3338939571","0.4","0.2","0.8","0.6","0.3594327093","0.3338939571","0.4699447661","0.2447613107","","","","","","","","","","","","","","74","J","1","","","24","main_expt",""
"","bandit","105","497211","0.0-66.0-0.0","49587770","wem/bandit_party_1","A1D35QE18L3J5Z","either","2","796","","","","","","","0","1","0","","0.4484050393","0.4","0.2","0.8","0.6","0.3719143394","0.324486952","0.4484050393","0.2350413847","","","","","","","","","","","","","","75","K","2","","","25","main_expt",""
"","bandit","106","499236","0.0-67.0-0.0","49587770","wem/bandit_party_1","A1D35QE18L3J5Z","either","2","496","","","","","","","1","0","0","0.4190234423","","0.4","0.2","0.8","0.6","","","","","0.3690014044","0.3095710384","0.4190234423","0.207774486","","","","","","","","","","75","K","2","","","26","main_expt",""
"","bandit","107","502115","0.0-68.0-0.0","49587770","wem/bandit_party_1","A1D35QE18L3J5Z","either","2","1343","","","","","","","0","0","1","0.4251478254","","0.4","0.2","0.8","0.6","","","","","0.3940030818","0.3355629191","0.4251478254","0.2164182795","","","","","","","","","","75","K","2","","","27","main_expt",""
"","bandit","108","507348","0.0-69.0-0.0","49587770","wem/bandit_party_1","A1D35QE18L3J5Z","either","2","3685","","","","","","","0","1","0","","0.4111080327","0.4","0.2","0.8","0.6","0.4111080327","0.3668681485","0.4287328697","0.2164031865","","","","","","","","","","","","","","72","H","0","img/none_selected.jpg","","28","main_expt",""
"","bandit","109","510592","0.0-70.0-0.0","49587770","wem/bandit_party_1","A1D35QE18L3J5Z","either","2","1706","","","","","","","0","0","1","0.2770000278","","0.4","0.2","0.8","0.6","","","","","0.41290056","0.343198694","0.4106025245","0.2770000278","","","","","","","","","","76","L","3","","","29","main_expt",""
"","bandit","110","513704","0.0-71.0-0.0","49587770","wem/bandit_party_1","A1D35QE18L3J5Z","either","2","1587","","","","","","","0","0","1","","0.3937480262","0.4","0.2","0.8","0.6","0.3937480262","0.326069126","0.3942494676","0.2354797847","","","","","","","","","","","","","","72","H","0","img/none_selected.jpg","","30","main_expt",""
"","bandit","111","515621","0.0-72.0-0.0","49587770","wem/bandit_party_1","A1D35QE18L3J5Z","either","2","386","","","","","","","0","0","1","","0.3390127419","0.4","0.2","0.8","0.6","0.3997016236","0.3390127419","0.4285056211","0.2692030882","","","","","","","","","","","","","","74","J","1","","","31","main_expt",""
"","bandit","112","517495","0.0-73.0-0.0","49587770","wem/bandit_party_1","A1D35QE18L3J5Z","either","2","347","","","","","","","0","0","1","0.3360649894","","0.4","0.2","0.8","0.6","","","","","0.3574295763","0.3360649894","0.4249454459","0.2471118655","","","","","","","","","","74","J","1","","","32","main_expt",""
"","bandit","113","519114","0.0-74.0-0.0","49587770","wem/bandit_party_1","A1D35QE18L3J5Z","either","2","91","","","","","","","0","1","0","","0.3052602024","0.4","0.2","0.8","0.6","0.3877818659","0.3052602024","0.416417765","0.2879199001","","","","","","","","","","","","","","74","J","1","","","33","main_expt",""
"","bandit","114","522894","0.0-75.0-0.0","49587770","wem/bandit_party_1","A1D35QE18L3J5Z","either","2","2256","","","","","","","0","0","1","","0.3594788954","0.4","0.2","0.8","0.6","0.3799496232","0.3594788954","0.4623714429","0.3180115212","","","","","","","","","","","","","","74","J","1","","","34","main_expt",""
"","bandit","115","524829","0.0-76.0-0.0","49587770","wem/bandit_party_1","A1D35QE18L3J5Z","either","2","409","","","","","","","1","0","0","0.4591977302","","0.4","0.2","0.8","0.6","","","","","0.3577573403","0.380235832","0.4591977302","0.2524306687","","","","","","","","","","75","K","2","","","35","main_expt",""
"","bandit","116","526741","0.0-77.0-0.0","49587770","wem/bandit_party_1","A1D35QE18L3J5Z","either","2","383","","","","","","","0","0","1","0.4686235256","","0.4","0.2","0.8","0.6","","","","","0.3895375856","0.3459989602","0.4686235256","0.2351869563","","","","","","","","","","75","K","2","","","36","main_expt",""
"","bandit","117","528567","0.0-78.0-0.0","49587770","wem/bandit_party_1","A1D35QE18L3J5Z","either","2","285","","","","","","","0","1","0","","0.4571547709","0.4","0.2","0.8","0.6","0.3783527007","0.3320905149","0.4571547709","0.2629170466","","","","","","","","","","","","","","75","K","2","","","37","main_expt",""
"","bandit","118","530454","0.0-79.0-0.0","49587770","wem/bandit_party_1","A1D35QE18L3J5Z","either","2","352","","","","","","","0","0","1","0.4688430709","","0.4","0.2","0.8","0.6","","","","","0.284076782","0.3471020919","0.4688430709","0.3090194305","","","","","","","","","","75","K","2","","","38","main_expt",""
"","bandit","119","532301","0.0-80.0-0.0","49587770","wem/bandit_party_1","A1D35QE18L3J5Z","either","2","312","","","","","","","0","0","1","0.4612923778","","0.4","0.2","0.8","0.6","","","","","0.3388972186","0.3401763967","0.4612923778","0.2845371228","","","","","","","","","","75","K","2","","","39","main_expt",""
"","bandit","120","534281","0.0-81.0-0.0","49587770","wem/bandit_party_1","A1D35QE18L3J5Z","either","2","454","","","","","","","0","1","0","","0.3076259244","0.4","0.2","0.8","0.6","0.2663655232","0.3260487483","0.4576194683","0.3076259244","","","","","","","","","","","","","","76","L","3","","","40","main_expt",""
"","bandit","121","536123","0.0-82.0-0.0","49587770","wem/bandit_party_1","A1D35QE18L3J5Z","either","2","307","","","","","","","0","0","1","","0.2888769276","0.4","0.2","0.8","0.6","0.2608266697","0.3390218734","0.4473921051","0.2888769276","","","","","","","","","","","","","","76","L","3","","","41","main_expt",""
"","bandit","122","537671","0.0-83.0-0.0","49587770","wem/bandit_party_1","A1D35QE18L3J5Z","either","2","18","","","","","","","0","0","1","0.2639198141","","0.4","0.2","0.8","0.6","","","","","0.2287676803","0.2889680017","0.425470286","0.2639198141","","","","","","","","","","76","L","3","","","42","main_expt",""
"","bandit","123","539872","0.0-84.0-0.0","49587770","wem/bandit_party_1","A1D35QE18L3J5Z","either","2","668","","","","","","","0","0","1","","0.2255441472","0.4","0.2","0.8","0.6","0.2043112358","0.2784828801","0.4030522017","0.2255441472","","","","","","","","","","","","","","76","L","3","","","43","main_expt",""
"","bandit","124","541792","0.0-85.0-0.0","49587770","wem/bandit_party_1","A1D35QE18L3J5Z","either","2","396","","","","","","","0","0","1","","0.1957049551","0.4","0.2","0.8","0.6","0.1957049551","0.2805729819","0.4106315797","0.2050272072","","","","","","","","","","","","","","72","H","0","img/none_selected.jpg","","44","main_expt",""
"","bandit","125","543751","0.0-86.0-0.0","49587770","wem/bandit_party_1","A1D35QE18L3J5Z","either","2","434","","","","","","","0","0","1","0.2207366272","","0.4","0.2","0.8","0.6","","","","","0.2207366272","0.2195119073","0.4258527362","0.239455925","","","","","","","","","","72","H","0","img/none_selected.jpg","","45","main_expt",""
"","bandit","126","545761","0.0-87.0-0.0","49587770","wem/bandit_party_1","A1D35QE18L3J5Z","either","2","479","","","","","","","0","0","1","0.1727988076","","0.4","0.2","0.8","0.6","","","","","0.1727988076","0.2657932304","0.4425966235","0.2414778298","","","","","","","","","","72","H","0","img/none_selected.jpg","","46","main_expt",""
"","bandit","127","548035","0.0-88.0-0.0","49587770","wem/bandit_party_1","A1D35QE18L3J5Z","either","2","730","","","","","","","0","1","0","","0.2678398397","0.4","0.2","0.8","0.6","0.1446735631","0.2678398397","0.4428977597","0.1884211613","","","","","","","","","","","","","","74","J","1","","","47","main_expt",""
"","bandit","128","550121","0.0-89.0-0.0","49587770","wem/bandit_party_1","A1D35QE18L3J5Z","either","2","555","","","","","","","0","0","1","","0.2866904938","0.4","0.2","0.8","0.6","0.1681765936","0.2866904938","0.4479964269","0.1755274282","","","","","","","","","","","","","","74","J","1","","","48","main_expt",""
"","bandit","129","552117","0.0-90.0-0.0","49587770","wem/bandit_party_1","A1D35QE18L3J5Z","either","2","466","","","","","","","0","0","1","","0.2803848884","0.4","0.2","0.8","0.6","0.1473883531","0.2803848884","0.4660387519","0.1646396384","","","","","","","","","","","","","","74","J","1","","","49","main_expt",""
"","bandit","130","553984","0.0-91.0-0.0","49587770","wem/bandit_party_1","A1D35QE18L3J5Z","either","2","335","","","","","","","0","0","1","0.4345757832","","0.4","0.2","0.8","0.6","","","","","0.1378170987","0.2587411269","0.4345757832","0.2024226619","","","","","","","","","","75","K","2","","","50","main_expt",""
"","bandit","131","555837","0.0-92.0-0.0","49587770","wem/bandit_party_1","A1D35QE18L3J5Z","either","2","328","","","","","","","1","0","0","0.4450950844","","0.4","0.2","0.8","0.6","","","","","0.1430360168","0.2212901065","0.4450950844","0.1976760068","","","","","","","","","","75","K","2","","","51","main_expt",""
"","bandit","132","558586","0.0-93.0-0.0","49587770","wem/bandit_party_1","A1D35QE18L3J5Z","either","2","1212","","","","","","","0","0","1","0.236006857","","0.4","0.2","0.8","0.6","","","","","0.1731798725","0.236006857","0.4475354499","0.1796352224","","","","","","","","","","74","J","1","","","52","main_expt",""
"","bandit","133","560692","0.0-94.0-0.0","49587770","wem/bandit_party_1","A1D35QE18L3J5Z","either","2","581","","","","","","","0","0","1","0.2660825342","","0.4","0.2","0.8","0.6","","","","","0.1312409056","0.2660825342","0.4627294295","0.2451732725","","","","","","","","","","74","J","1","","","53","main_expt",""
"","bandit","134","562585","0.0-95.0-0.0","49587770","wem/bandit_party_1","A1D35QE18L3J5Z","either","2","350","","","","","","","0","0","1","0.44829207","","0.4","0.2","0.8","0.6","","","","","0.1862053218","0.2458345041","0.44829207","0.2621482643","","","","","","","","","","75","K","2","","","54","main_expt",""
"","bandit","135","565292","0.0-96.0-0.0","49587770","wem/bandit_party_1","A1D35QE18L3J5Z","either","2","1167","","","","","","","1","0","0","0.4505537928","","0.4","0.2","0.8","0.6","","","","","0.1733563037","0.2265690781","0.4505537928","0.2441780383","","","","","","","","","","75","K","2","","","55","main_expt",""
"","bandit","136","568759","0.0-97.0-0.0","49587770","wem/bandit_party_1","A1D35QE18L3J5Z","either","2","1927","","","","","","","0","1","0","","0.4686400132","0.4","0.2","0.8","0.6","0.1728369204","0.2741820357","0.4686400132","0.199729785","","","","","","","","","","","","","","75","K","2","","","56","main_expt",""
"","bandit","137","572575","0.0-98.0-0.0","49587770","wem/bandit_party_1","A1D35QE18L3J5Z","either","2","2283","","","","","","","0","0","1","0.4572679106","","0.4","0.2","0.8","0.6","","","","","0.09176359954","0.2937641054","0.4572679106","0.1945085845","","","","","","","","","","75","K","2","","","57","main_expt",""
"","bandit","138","574553","0.0-99.0-0.0","49587770","wem/bandit_party_1","A1D35QE18L3J5Z","either","2","447","","","","","","","1","0","0","0.4300169527","","0.4","0.2","0.8","0.6","","","","","0.04991422033","0.2949827607","0.4300169527","0.2614759052","","","","","","","","","","75","K","2","","","58","main_expt",""
"","bandit","139","579195","0.0-100.0-0.0","49587770","wem/bandit_party_1","A1D35QE18L3J5Z","either","2","3115","","","","","","","0","0","1","0.4050829606","","0.4","0.2","0.8","0.6","","","","","0.053239915","0.2710075273","0.4050829606","0.2426118991","","","","","","","","","","75","K","2","","","59","main_expt",""
"","bandit","140","584020","0.0-101.0-0.0","49587770","wem/bandit_party_1","A1D35QE18L3J5Z","either","2","3299","","","","","","","0","0","1","0.4070720156","","0.4","0.2","0.8","0.6","","","","","0.06994226662","0.2766623035","0.4070720156","0.2623750897","","","","","","","","","","75","K","2","","","60","main_expt",""
"","bandit","141","590833","0.0-102.0-0.0","49587770","wem/bandit_party_1","A1D35QE18L3J5Z","either","2","5281","","","","","","","0","0","1","0.3895400789","","0.4","0.2","0.8","0.6","","","","","0.07064832373","0.2574592035","0.3895400789","0.2139103784","","","","","","","","","","75","K","2","","","61","main_expt",""
"","bandit","142","597240","0.0-103.0-0.0","49587770","wem/bandit_party_1","A1D35QE18L3J5Z","either","2","4869","","","","","","","0","0","1","0.4050708951","","0.4","0.2","0.8","0.6","","","","","0.08925217872","0.2425209234","0.4050708951","0.2566580444","","","","","","","","","","75","K","2","","","62","main_expt",""
"","bandit","143","599487","0.0-104.0-0.0","49587770","wem/bandit_party_1","A1D35QE18L3J5Z","either","2","711","","","","","","","0","0","1","0.2294211584","","0.4","0.2","0.8","0.6","","","","","0.08505035955","0.2294211584","0.3765761212","0.2393402704","","","","","","","","","","74","J","1","","","63","main_expt",""
"","bandit","144","601702","0.0-105.0-0.0","49587770","wem/bandit_party_1","A1D35QE18L3J5Z","either","2","686","","","","","","","0","0","1","","0.2350173232","0.4","0.2","0.8","0.6","0.09892528285","0.2350173232","0.3859881554","0.300105392","","","","","","","","","","","","","","74","J","1","","","64","main_expt",""
"","bandit","145","603615","0.0-106.0-0.0","49587770","wem/bandit_party_1","A1D35QE18L3J5Z","either","2","381","","","","","","","0","0","1","0.2584268813","","0.4","0.2","0.8","0.6","","","","","0.1428545766","0.2775473173","0.3817039273","0.2584268813","","","","","","","","","","76","L","3","","","65","main_expt",""
"","bandit","146","605435","0.0-107.0-0.0","49587770","wem/bandit_party_1","A1D35QE18L3J5Z","either","2","278","","","","","","","0","0","1","","0.3622232449","0.4","0.2","0.8","0.6","0.120440259","0.298861572","0.3622232449","0.2536378703","","","","","","","","","","","","","","75","K","2","","","66","main_expt",""
"","bandit","147","607408","0.0-108.0-0.0","49587770","wem/bandit_party_1","A1D35QE18L3J5Z","either","2","447","","","","","","","0","0","1","","0.2019700983","0.4","0.2","0.8","0.6","0.2019700983","0.3043747659","0.3768721334","0.2548884231","","","","","","","","","","","","","","72","H","0","img/none_selected.jpg","","67","main_expt",""
"","bandit","148","609319","0.0-109.0-0.0","49587770","wem/bandit_party_1","A1D35QE18L3J5Z","either","2","382","","","","","","","0","0","1","","0.2533072519","0.4","0.2","0.8","0.6","0.1467862533","0.2533072519","0.3826604183","0.2105458193","","","","","","","","","","","","","","74","J","1","","","68","main_expt",""
"","bandit","149","611163","0.0-110.0-0.0","49587770","wem/bandit_party_1","A1D35QE18L3J5Z","either","2","318","","","","","","","0","1","0","","0.2451677402","0.4","0.2","0.8","0.6","0.09022805221","0.2451677402","0.3981811202","0.2901666962","","","","","","","","","","","","","","74","J","1","","","69","main_expt",""
"","bandit","150","613088","0.0-111.0-0.0","49587770","wem/bandit_party_1","A1D35QE18L3J5Z","either","2","396","","","","","","","0","0","1","","0.3936557204","0.4","0.2","0.8","0.6","0.1128827508","0.2403061491","0.3936557204","0.2973761433","","","","","","","","","","","","","","75","K","2","","","70","main_expt",""
"","bandit","151","614941","0.0-112.0-0.0","49587770","wem/bandit_party_1","A1D35QE18L3J5Z","either","2","321","","","","","","","0","0","1","0.3949471057","","0.4","0.2","0.8","0.6","","","","","0.1184182172","0.1917576795","0.3949471057","0.2737706179","","","","","","","","","","75","K","2","","","71","main_expt",""
"","bandit","152","616787","0.0-113.0-0.0","49587770","wem/bandit_party_1","A1D35QE18L3J5Z","either","2","314","","","","","","","0","0","1","0.1894079546","","0.4","0.2","0.8","0.6","","","","","0.1038133506","0.1894079546","0.3888869603","0.3005227265","","","","","","","","","","74","J","1","","","72","main_expt",""
"","bandit","153","618342","0.0-114.0-0.0","49587770","wem/bandit_party_1","A1D35QE18L3J5Z","either","2","18","","","","","","","0","0","1","","0.3205676235","0.4","0.2","0.8","0.6","0.07830871569","0.235909594","0.4015056825","0.3205676235","","","","","","","","","","","","","","76","L","3","","","73","main_expt",""
"","bandit","154","620951","0.0-115.0-0.0","49587770","wem/bandit_party_1","A1D35QE18L3J5Z","either","2","1064","","","","","","","0","0","1","","0.09226686474","0.4","0.2","0.8","0.6","0.09226686474","0.2772030277","0.4200542591","0.3040473008","","","","","","","","","","","","","","72","H","0","img/none_selected.jpg","","74","main_expt",""
"","bandit","155","622958","0.0-116.0-0.0","49587770","wem/bandit_party_1","A1D35QE18L3J5Z","either","2","471","","","","","","","0","0","1","","0.2237268092","0.4","0.2","0.8","0.6","0.07948082514","0.2237268092","0.4353174817","0.2686744794","","","","","","","","","","","","","","74","J","1","","","75","main_expt",""
"","bandit","156","624877","0.0-117.0-0.0","49587770","wem/bandit_party_1","A1D35QE18L3J5Z","either","2","386","","","","","","","0","1","0","","0.1739375455","0.4","0.2","0.8","0.6","0.1279570505","0.1739375455","0.4196821318","0.258707356","","","","","","","","","","","","","","74","J","1","","","76","main_expt",""
"","bandit","157","626877","0.0-118.0-0.0","49587770","wem/bandit_party_1","A1D35QE18L3J5Z","either","2","459","","","","","","","0","0","1","0.3787369199","","0.4","0.2","0.8","0.6","","","","","0.1202820049","0.1648796623","0.3787369199","0.3010070056","","","","","","","","","","75","K","2","","","77","main_expt",""
"","bandit","158","628633","0.0-119.0-0.0","49587770","wem/bandit_party_1","A1D35QE18L3J5Z","either","2","196","","","","","","","0","0","1","0.4314930014","","0.4","0.2","0.8","0.6","","","","","0.1054071572","0.1637798684","0.4314930014","0.2648586626","","","","","","","","","","75","K","2","","","78","main_expt",""
"","bandit","159","630889","0.0-120.0-0.0","49587770","wem/bandit_party_1","A1D35QE18L3J5Z","either","2","709","","","","","","","0","0","1","","0.4155078174","0.4","0.2","0.8","0.6","0.1403095361","0.1490076182","0.4155078174","0.1984114041","","","","","","","","","","","","","","75","K","2","","","79","main_expt",""
"","bandit","160","632609","0.0-121.0-0.0","49587770","wem/bandit_party_1","A1D35QE18L3J5Z","either","2","189","","","","","","","0","0","1","0.4226243671","","0.4","0.2","0.8","0.6","","","","","0.1891235553","0.1093198388","0.4226243671","0.180325551","","","","","","","","","","75","K","2","","","80","main_expt",""
"","bandit","161","634777","0.0-122.0-0.0","49587770","wem/bandit_party_1","A1D35QE18L3J5Z","either","2","629","","","","","","","0","0","1","","0.08868186825","0.4","0.2","0.8","0.6","0.1858030354","0.08868186825","0.4474166549","0.224531153","","","","","","","","","","","","","","74","J","1","","","81","main_expt",""
"","bandit","162","636997","0.0-123.0-0.0","49587770","wem/bandit_party_1","A1D35QE18L3J5Z","either","2","683","","","","","","","0","0","1","","0.1073880826","0.4","0.2","0.8","0.6","0.2476542501","0.1073880826","0.4636297045","0.221125015","","","","","","","","","","","","","","74","J","1","","","82","main_expt",""
"","bandit","163","640255","0.0-124.0-0.0","49587770","wem/bandit_party_1","A1D35QE18L3J5Z","either","2","1727","","","","","","","0","0","1","","0.1022587498","0.4","0.2","0.8","0.6","0.2188241074","0.1022587498","0.467509749","0.2143237207","","","","","","","","","","","","","","74","J","1","","","83","main_expt",""
"","bandit","164","644186","0.0-125.0-0.0","49587770","wem/bandit_party_1","A1D35QE18L3J5Z","either","2","2404","","","","","","","0","0","1","0.2097367537","","0.4","0.2","0.8","0.6","","","","","0.2754771977","0.1085807699","0.4551111531","0.2097367537","","","","","","","","","","76","L","3","","","84","main_expt",""
"","bandit","165","649076","0.0-126.0-0.0","49587770","wem/bandit_party_1","A1D35QE18L3J5Z","either","2","3347","","","","","","","0","0","1","","0.1661536269","0.4","0.2","0.8","0.6","0.2965575968","0.1263918358","0.4621419017","0.1661536269","","","","","","","","","","","","","","76","L","3","","","85","main_expt",""
"","bandit","166","652537","0.0-127.0-0.0","49587770","wem/bandit_party_1","A1D35QE18L3J5Z","either","2","1933","","","","","","","0","0","1","","0.257129161","0.4","0.2","0.8","0.6","0.257129161","0.1481941301","0.4612050897","0.1364458955","","","","","","","","","","","","","","72","H","0","img/none_selected.jpg","","86","main_expt",""
"","bandit","167","657607","0.0-128.0-0.0","49587770","wem/bandit_party_1","A1D35QE18L3J5Z","either","2","3530","","","","","","","0","0","1","","0.2338967043","0.4","0.2","0.8","0.6","0.2338967043","0.1447872846","0.4334675206","0.08235553135","","","","","","","","","","","","","","72","H","0","img/none_selected.jpg","","87","main_expt",""
"","bandit","168","661526","0.0-129.0-0.0","49587770","wem/bandit_party_1","A1D35QE18L3J5Z","either","2","2366","","","","","","","0","0","1","0.2161535794","","0.4","0.2","0.8","0.6","","","","","0.2161535794","0.1391637727","0.4397617206","0.0754832669","","","","","","","","","","72","H","0","img/none_selected.jpg","","88","main_expt",""
"","bandit","169","666127","0.0-130.0-0.0","49587770","wem/bandit_party_1","A1D35QE18L3J5Z","either","2","3070","","","","","","","0","1","0","","0.2043146745","0.4","0.2","0.8","0.6","0.2043146745","0.1476089376","0.4635478967","0.109361408","","","","","","","","","","","","","","72","H","0","img/none_selected.jpg","","89","main_expt",""
"","bandit","170","671563","0.0-131.0-0.0","49587770","wem/bandit_party_1","A1D35QE18L3J5Z","either","2","3908","","","","","","","0","1","0","","0.2346009907","0.4","0.2","0.8","0.6","0.2346009907","0.2081489191","0.4234969579","0.07391079866","","","","","","","","","","","","","","72","H","0","img/none_selected.jpg","","90","main_expt",""
"","bandit","171","676118","0.0-132.0-0.0","49587770","wem/bandit_party_1","A1D35QE18L3J5Z","either","2","3023","","","","","","","0","0","1","","0.1834039029","0.4","0.2","0.8","0.6","0.2333967219","0.1834039029","0.4267507071","0.1164594673","","","","","","","","","","","","","","74","J","1","","","91","main_expt",""
"","bandit","172","678613","0.0-133.0-0.0","49587770","wem/bandit_party_1","A1D35QE18L3J5Z","either","2","965","","","","","","","0","0","1","0.4089505196","","0.4","0.2","0.8","0.6","","","","","0.2150480475","0.2027314649","0.4089505196","0.113043345","","","","","","","","","","75","K","2","","","92","main_expt",""
"","bandit","173","681611","0.0-134.0-0.0","49587770","wem/bandit_party_1","A1D35QE18L3J5Z","either","2","1470","","","","","","","0","0","1","0.4112501448","","0.4","0.2","0.8","0.6","","","","","0.2588080464","0.1738894496","0.4112501448","0.1714352716","","","","","","","","","","75","K","2","","","93","main_expt",""
"","bandit","174","685122","0.0-135.0-0.0","49587770","wem/bandit_party_1","A1D35QE18L3J5Z","either","2","1975","","","","","","","0","0","1","0.2484708832","","0.4","0.2","0.8","0.6","","","","","0.2748849181","0.2484708832","0.452415855","0.1253024032","","","","","","","","","","74","J","1","","","94","main_expt",""
"","bandit","175","690938","0.0-136.0-0.0","49587770","wem/bandit_party_1","A1D35QE18L3J5Z","either","2","4274","","","","","","","0","0","1","","0.2914685715","0.4","0.2","0.8","0.6","0.2791739054","0.2914685715","0.4589197587","0.1401284447","","","","","","","","","","","","","","74","J","1","","","95","main_expt",""
"","bandit","176","695516","0.0-137.0-0.0","49587770","wem/bandit_party_1","A1D35QE18L3J5Z","either","2","3043","","","","","","","0","0","1","0.2417524935","","0.4","0.2","0.8","0.6","","","","","0.3149564315","0.2417524935","0.4481870348","0.1320491369","","","","","","","","","","74","J","1","","","96","main_expt",""
"","bandit","177","700274","0.0-138.0-0.0","49587770","wem/bandit_party_1","A1D35QE18L3J5Z","either","2","3228","","","","","","","0","1","0","","0.4597072186","0.4","0.2","0.8","0.6","0.372564007","0.2492821404","0.4597072186","0.1518453759","","","","","","","","","","","","","","75","K","2","","","97","main_expt",""
"","bandit","178","704080","0.0-139.0-0.0","49587770","wem/bandit_party_1","A1D35QE18L3J5Z","either","2","2270","","","","","","","0","0","1","","0.3002958449","0.4","0.2","0.8","0.6","0.393328365","0.3002958449","0.4705619112","0.2173959583","","","","","","","","","","","","","","74","J","1","","","98","main_expt",""
"","bandit","179","706619","0.0-140.0-0.0","49587770","wem/bandit_party_1","A1D35QE18L3J5Z","either","2","988","","","","","","","1","0","0","0.4800968761","","0.4","0.2","0.8","0.6","","","","","0.421239771","0.3544832656","0.4800968761","0.2618725657","","","","","","","","","","75","K","2","","","99","main_expt",""
"","bandit","180","709468","0.0-141.0-0.0","49587770","wem/bandit_party_1","A1D35QE18L3J5Z","either","2","1311","","","","","","","1","0","0","0.4780143146","","0.4","0.2","0.8","0.6","","","","","0.4130759476","0.3810954338","0.4780143146","0.2487788848","","","","","","","","","","75","K","2","","","100","main_expt",""
"","bandit","181","713824","0.0-142.0-0.0","49587770","wem/bandit_party_1","A1D35QE18L3J5Z","either","2","2809","","","","","","","1","0","0","0.4849002763","","0.4","0.2","0.8","0.6","","","","","0.4089462913","0.4042362267","0.4849002763","0.2890792313","","","","","","","","","","75","K","2","","","101","main_expt",""
"","bandit","182","719716","0.0-143.0-0.0","49587770","wem/bandit_party_1","A1D35QE18L3J5Z","either","2","4339","","","","","","","1","0","0","0.3136369757","","0.4","0.2","0.8","0.6","","","","","0.370330464","0.4594696392","0.4886078379","0.3136369757","","","","","","","","","","76","L","3","","","102","main_expt",""
"","bandit","183","722825","0.0-144.0-0.0","49587770","wem/bandit_party_1","A1D35QE18L3J5Z","either","2","1572","","","","","","","1","0","0","0.47121906","","0.4","0.2","0.8","0.6","","","","","0.3306315663","0.4588766667","0.47121906","0.2364671533","","","","","","","","","","75","K","2","","","103","main_expt",""
"","bandit","184","762114","0.0-145.0-0.0","49587770","wem/bandit_party_1","A1D35QE18L3J5Z","either","2","37755","","","","","","","0","0","1","0.4760763377","","0.4","0.2","0.8","0.6","","","","","0.354634178","0.4372785745","0.4760763377","0.2202486688","","","","","","","","","","75","K","2","","","104","main_expt",""
"","bandit","185","764812","0.0-146.0-0.0","49587770","wem/bandit_party_1","A1D35QE18L3J5Z","either","2","1156","","","","","","","0","1","0","","0.4063887309","0.4","0.2","0.8","0.6","0.3896605338","0.4063887309","0.4701389446","0.1854418088","","","","","","","","","","","","","","74","J","1","","","105","main_expt",""
"","bandit","186","771041","0.0-147.0-0.0","49587770","wem/bandit_party_1","A1D35QE18L3J5Z","either","2","4689","","","","","","","1","0","0","0.471324938","","0.4","0.2","0.8","0.6","","","","","0.414339711","0.3778019321","0.471324938","0.1596754559","","","","","","","","","","75","K","2","","","106","main_expt",""
"","bandit","187","777545","0.0-148.0-0.0","49587770","wem/bandit_party_1","A1D35QE18L3J5Z","either","2","4965","","","","","","","0","1","0","","0.3614143111","0.4","0.2","0.8","0.6","0.4164239898","0.3614143111","0.4786694594","0.137099288","","","","","","","","","","","","","","74","J","1","","","107","main_expt",""
"","bandit","188","787095","0.0-149.0-0.0","49587770","wem/bandit_party_1","A1D35QE18L3J5Z","either","2","8022","","","","","","","0","1","0","","0.3681250399","0.4","0.2","0.8","0.6","0.3836571442","0.3681250399","0.4810065258","0.1443984823","","","","","","","","","","","","","","74","J","1","","","108","main_expt",""
"","bandit","189","790261","0.0-150.0-0.0","49587770","wem/bandit_party_1","A1D35QE18L3J5Z","either","2","1634","","","","","","","0","0","1","","0.3446081275","0.4","0.2","0.8","0.6","0.3881214568","0.3446081275","0.4816764674","0.1409511773","","","","","","","","","","","","","","74","J","1","","","109","main_expt",""
"","bandit","190","792518","0.0-151.0-0.0","49587770","wem/bandit_party_1","A1D35QE18L3J5Z","either","2","723","","","","","","","0","0","1","","0.3681270965","0.4","0.2","0.8","0.6","0.4266873791","0.3681270965","0.4882082215","0.1787750665","","","","","","","","","","","","","","74","J","1","","","110","main_expt",""
"","bandit","191","810284","0.0-152.0-0.0","49587770","wem/bandit_party_1","A1D35QE18L3J5Z","either","2","16228","","","","","","","0","0","1","0.478642168","","0.4","0.2","0.8","0.6","","","","","0.4475699482","0.391379093","0.478642168","0.1862786225","","","","","","","","","","75","K","2","","","111","main_expt",""
"","bandit","192","812497","0.0-153.0-0.0","49587770","wem/bandit_party_1","A1D35QE18L3J5Z","either","2","670","","","","","","","0","0","1","","0.4131544452","0.4","0.2","0.8","0.6","0.4190314983","0.4131544452","0.4841415165","0.1654620982","","","","","","","","","","","","","","74","J","1","","","112","main_expt",""
"","bandit","193","814527","0.0-154.0-0.0","49587770","wem/bandit_party_1","A1D35QE18L3J5Z","either","2","497","","","","","","","0","0","1","","0.3963985948","0.4","0.2","0.8","0.6","0.3666128881","0.3963985948","0.4883212127","0.1582981878","","","","","","","","","","","","","","74","J","1","","","113","main_expt",""
"","bandit","194","836901","0.0-155.0-0.0","49587770","wem/bandit_party_1","A1D35QE18L3J5Z","either","2","20835","","","","","","","1","0","0","0.4883790739","","0.4","0.2","0.8","0.6","","","","","0.3866259854","0.4117985871","0.4883790739","0.1922757069","","","","","","","","","","75","K","2","","","114","main_expt",""
"","bandit","195","845472","0.0-156.0-0.0","49587770","wem/bandit_party_1","A1D35QE18L3J5Z","either","2","7036","","","","","","","0","0","1","","0.394381103","0.4","0.2","0.8","0.6","0.354161152","0.394381103","0.4902011966","0.185618385","","","","","","","","","","","","","","74","J","1","","","115","main_expt",""
"","bandit","196","854959","0.0-157.0-0.0","49587770","wem/bandit_party_1","A1D35QE18L3J5Z","either","2","7940","","","","","","","0","0","1","","0.4844723045","0.4","0.2","0.8","0.6","0.3170745426","0.3762408663","0.4844723045","0.2057277395","","","","","","","","","","","","","","75","K","2","","","116","main_expt",""
"","bandit","197","876787","0.0-158.0-0.0","49587770","wem/bandit_party_1","A1D35QE18L3J5Z","either","2","20286","","","","","","","0","1","0","","0.3823674378","0.4","0.2","0.8","0.6","0.304536318","0.3823674378","0.4895589844","0.2288411079","","","","","","","","","","","","","","74","J","1","","","117","main_expt",""
"","bandit","198","887871","0.0-159.0-0.0","49587770","wem/bandit_party_1","A1D35QE18L3J5Z","either","2","9529","","","","","","","0","0","1","","0.3411026949","0.4","0.2","0.8","0.6","0.3411026949","0.4050195855","0.4899729034","0.2207517482","","","","","","","","","","","","","","72","H","0","img/none_selected.jpg","","118","main_expt",""
"","bandit","199","890571","0.0-160.0-0.0","49587770","wem/bandit_party_1","A1D35QE18L3J5Z","either","2","1154","","","","","","","0","1","0","","0.4227562767","0.4","0.2","0.8","0.6","0.3447942488","0.4227562767","0.4947041593","0.1955286499","","","","","","","","","","","","","","74","J","1","","","119","main_expt",""
"","bandit","200","896475","0.0-161.0-0.0","49587770","wem/bandit_party_1","A1D35QE18L3J5Z","either","2","4359","","","","","","","1","0","0","0.2427950695","","0.4","0.2","0.8","0.6","","","","","0.3686185352","0.4163810796","0.4916865355","0.2427950695","","","","","","","","","","76","L","3","","","120","main_expt",""
"","bandit","201","899865","0.0-162.0-0.0","49587770","wem/bandit_party_1","A1D35QE18L3J5Z","either","2","1859","","","","","","","0","0","1","","0.4860386064","0.4","0.2","0.8","0.6","0.3547669752","0.406821829","0.4860386064","0.2479682904","","","","","","","","","","","","","","75","K","2","","","121","main_expt",""
"","bandit","202","907744","0.0-163.0-0.0","49587770","wem/bandit_party_1","A1D35QE18L3J5Z","either","2","6327","","","","","","","0","0","1","0.365994073","","0.4","0.2","0.8","0.6","","","","","0.365994073","0.3999449125","0.483083859","0.3081985406","","","","","","","","","","72","H","0","img/none_selected.jpg","","122","main_expt",""
"","bandit","203","910498","0.0-164.0-0.0","49587770","wem/bandit_party_1","A1D35QE18L3J5Z","either","2","1222","","","","","","","0","0","1","0.366626489","","0.4","0.2","0.8","0.6","","","","","0.3120596142","0.366626489","0.4791491275","0.3089359708","","","","","","","","","","74","J","1","","","123","main_expt",""
"","bandit","204","917393","0.0-165.0-0.0","49587770","wem/bandit_party_1","A1D35QE18L3J5Z","either","2","5356","","","","","","","0","0","1","0.4776777384","","0.4","0.2","0.8","0.6","","","","","0.302161917","0.3706278578","0.4776777384","0.3298338218","","","","","","","","","","75","K","2","","","124","main_expt",""
"","bandit","205","924835","0.0-166.0-0.0","49587770","wem/bandit_party_1","A1D35QE18L3J5Z","either","2","5910","","","","","","","0","0","1","","0.3545504723","0.4","0.2","0.8","0.6","0.2794370347","0.3545504723","0.478983255","0.2795250441","","","","","","","","","","","","","","74","J","1","","","125","main_expt",""
"","bandit","206","929779","0.0-167.0-0.0","49587770","wem/bandit_party_1","A1D35QE18L3J5Z","either","2","3396","","","","","","","1","0","0","0.4724726719","","0.4","0.2","0.8","0.6","","","","","0.2466154908","0.3106298006","0.4724726719","0.2184127205","","","","","","","","","","75","K","2","","","126","main_expt",""
"","bandit","207","937792","0.0-168.0-0.0","49587770","wem/bandit_party_1","A1D35QE18L3J5Z","either","2","6460","","","","","","","0","0","1","0.4796244369","","0.4","0.2","0.8","0.6","","","","","0.2712823261","0.3351405197","0.4796244369","0.2488858907","","","","","","","","","","75","K","2","","","127","main_expt",""
"","bandit","208","952344","0.0-169.0-0.0","49587770","wem/bandit_party_1","A1D35QE18L3J5Z","either","2","13015","","","","","","","0","0","1","0.2984422464","","0.4","0.2","0.8","0.6","","","","","0.2095517986","0.2984422464","0.4825212971","0.2850827173","","","","","","","","","","74","J","1","","","128","main_expt",""
"","bandit","209","958933","0.0-170.0-0.0","49587770","wem/bandit_party_1","A1D35QE18L3J5Z","either","2","5052","","","","","","","1","0","0","0.4877535013","","0.4","0.2","0.8","0.6","","","","","0.1986866195","0.2027892291","0.4877535013","0.2867242009","","","","","","","","","","75","K","2","","","129","main_expt",""
"","bandit","210","961906","0.0-171.0-0.0","49587770","wem/bandit_party_1","A1D35QE18L3J5Z","either","2","1444","","","","","","","1","0","0","0.4833646461","","0.4","0.2","0.8","0.6","","","","","0.172959111","0.13768179","0.4833646461","0.2509552002","","","","","","","","","","75","K","2","","","130","main_expt",""
"","bandit","211","968555","0.0-172.0-0.0","49587770","wem/bandit_party_1","A1D35QE18L3J5Z","either","2","5117","","","","","","","0","0","1","","0.1352832961","0.4","0.2","0.8","0.6","0.163172462","0.1352832961","0.4790990265","0.2172434631","","","","","","","","","","","","","","74","J","1","","","131","main_expt",""
"","bandit","212","971022","0.0-173.0-0.0","49587770","wem/bandit_party_1","A1D35QE18L3J5Z","either","2","931","","","","","","","1","0","0","0.4882311922","","0.4","0.2","0.8","0.6","","","","","0.161148659","0.08660982753","0.4882311922","0.158295755","","","","","","","","","","75","K","2","","","132","main_expt",""
"","bandit","213","974756","0.0-174.0-0.0","49587770","wem/bandit_party_1","A1D35QE18L3J5Z","either","2","2198","","","","","","","0","0","1","0.1020907376","","0.4","0.2","0.8","0.6","","","","","0.1735641072","0.1020907376","0.4889625365","0.185310911","","","","","","","","","","74","J","1","","","133","main_expt",""
"","bandit","214","996773","0.0-175.0-0.0","49587770","wem/bandit_party_1","A1D35QE18L3J5Z","either","2","20464","","","","","","","0","0","1","","0.1597390633","0.4","0.2","0.8","0.6","0.1597390633","0.1231499397","0.4916783795","0.1966535246","","","","","","","","","","","","","","72","H","0","img/none_selected.jpg","","134","main_expt",""
"","bandit","215","1003403","0.0-176.0-0.0","49587770","wem/bandit_party_1","A1D35QE18L3J5Z","either","2","5097","","","","","","","0","0","1","","0.1524236556","0.4","0.2","0.8","0.6","0.1460070414","0.1524236556","0.4904315354","0.2290191974","","","","","","","","","","","","","","74","J","1","","","135","main_expt",""
"","bandit","216","1009858","0.0-177.0-0.0","49587770","wem/bandit_party_1","A1D35QE18L3J5Z","either","2","4904","","","","","","","1","0","0","0.491666595","","0.4","0.2","0.8","0.6","","","","","0.105474526","0.1954247664","0.491666595","0.2929229053","","","","","","","","","","75","K","2","","","136","main_expt",""
"","bandit","217","1017116","0.0-178.0-0.0","49587770","wem/bandit_party_1","A1D35QE18L3J5Z","either","2","5720","","","","","","","0","0","1","","0.1833989084","0.4","0.2","0.8","0.6","0.08835118593","0.1833989084","0.4917142499","0.2780805385","","","","","","","","","","","","","","74","J","1","","","137","main_expt",""
"","bandit","218","1020010","0.0-179.0-0.0","49587770","wem/bandit_party_1","A1D35QE18L3J5Z","either","2","1346","","","","","","","1","0","0","0.4870170403","","0.4","0.2","0.8","0.6","","","","","0.06418360449","0.1490533902","0.4870170403","0.217224157","","","","","","","","","","75","K","2","","","138","main_expt",""
"","bandit","219","1043338","0.0-180.0-0.0","49587770","wem/bandit_party_1","A1D35QE18L3J5Z","either","2","21776","","","","","","","0","0","1","","0.1318817547","0.4","0.2","0.8","0.6","0.03554325754","0.1318817547","0.4834992155","0.2323391466","","","","","","","","","","","","","","74","J","1","","","139","main_expt",""
"","bandit","220","1055587","0.0-181.0-0.0","49587770","wem/bandit_party_1","A1D35QE18L3J5Z","either","2","10717","","","","","","","0","0","1","0.04477370895","","0.4","0.2","0.8","0.6","","","","","0.04477370895","0.1877412345","0.4927392517","0.244475209","","","","","","","","","","72","H","0","img/none_selected.jpg","","140","main_expt",""
"","bandit","221","1060158","0.0-182.0-0.0","49587770","wem/bandit_party_1","A1D35QE18L3J5Z","either","2","3037","","","","","","","0","0","1","0.232604034","","0.4","0.2","0.8","0.6","","","","","0.03780119019","0.2363671377","0.4872377518","0.232604034","","","","","","","","","","76","L","3","","","141","main_expt",""
"","bandit","222","1062675","0.0-183.0-0.0","49587770","wem/bandit_party_1","A1D35QE18L3J5Z","either","2","985","","","","","","","0","0","1","0.4846254936","","0.4","0.2","0.8","0.6","","","","","0.03149913875","0.2546402356","0.4846254936","0.2447345556","","","","","","","","","","75","K","2","","","142","main_expt",""
"","bandit","223","1065210","0.0-184.0-0.0","49587770","wem/bandit_party_1","A1D35QE18L3J5Z","either","2","994","","","","","","","0","0","1","0.2825544685","","0.4","0.2","0.8","0.6","","","","","0.04191513266","0.2825544685","0.4815328815","0.26413271","","","","","","","","","","74","J","1","","","143","main_expt",""
"","bandit","224","1068266","0.0-185.0-0.0","49587770","wem/bandit_party_1","A1D35QE18L3J5Z","either","2","1506","","","","","","","1","0","0","0.4854048375","","0.4","0.2","0.8","0.6","","","","","0.05613120157","0.2731230023","0.4854048375","0.1988203511","","","","","","","","","","75","K","2","","","144","main_expt",""
"","bandit","225","1091130","0.0-186.0-0.0","49587770","wem/bandit_party_1","A1D35QE18L3J5Z","either","2","21321","","","","","","","0","0","1","","0.03827589539","0.4","0.2","0.8","0.6","0.03827589539","0.2943814715","0.4813029389","0.217822638","","","","","","","","","","","","","","72","H","0","img/none_selected.jpg","","145","main_expt",""
"","bandit","226","1095430","0.0-187.0-0.0","49587770","wem/bandit_party_1","A1D35QE18L3J5Z","either","2","2761","","","","","","","0","1","0","","0.328634005","0.4","0.2","0.8","0.6","0.02861175853","0.328634005","0.4884824202","0.2009042904","","","","","","","","","","","","","","74","J","1","","","146","main_expt",""
"","bandit","227","1113945","0.0-188.0-0.0","49587770","wem/bandit_party_1","A1D35QE18L3J5Z","either","2","16983","","","","","","","1","0","0","0.3511209141","","0.4","0.2","0.8","0.6","","","","","0.02140640811","0.3511209141","0.4835291327","0.2080446297","","","","","","","","","","74","J","1","","","147","main_expt",""
"","bandit","228","1119574","0.0-189.0-0.0","49587770","wem/bandit_party_1","A1D35QE18L3J5Z","either","2","4085","","","","","","","0","0","1","","0.4716003481","0.4","0.2","0.8","0.6","0.0202041473","0.3874996206","0.4716003481","0.1536700415","","","","","","","","","","","","","","75","K","2","","","148","main_expt",""
"","bandit","229","1123641","0.0-190.0-0.0","49587770","wem/bandit_party_1","A1D35QE18L3J5Z","either","2","2532","","","","","","","0","0","1","","0.3476646045","0.4","0.2","0.8","0.6","0.01154190459","0.3476646045","0.4341886607","0.1593661633","","","","","","","","","","","","","","74","J","1","","","149","main_expt",""
"","bandit","230","1125699","0.0-191.0-0.0","49587770","wem/bandit_party_1","A1D35QE18L3J5Z","either","2","507","","","","","","","1","0","0","0.4014438172","","0.4","0.2","0.8","0.6","","","","","0.01291237021","0.3323010919","0.4014438172","0.144955896","","","","","","","","","","75","K","2","","","150","main_expt",""
"","bandit","231","1128858","0.0-192.0-0.0","49587770","wem/bandit_party_1","A1D35QE18L3J5Z","either","2","1628","","","","","","","0","0","1","","0.3980713407","0.4","0.2","0.8","0.6","0.0137789916","0.3954477196","0.3980713407","0.2123564028","","","","","","","","","","","","","","75","K","2","","","151","main_expt",""
"","bandit","232","1130997","0.0-193.0-0.0","49587770","wem/bandit_party_1","A1D35QE18L3J5Z","either","2","592","","","","","","","0","0","1","","0.4002357887","0.4","0.2","0.8","0.6","0.01985271471","0.4186327087","0.4002357887","0.2301890466","","","","","","","","","","","","","","75","K","2","","","152","main_expt",""
"","bandit","233","1133104","0.0-194.0-0.0","49587770","wem/bandit_party_1","A1D35QE18L3J5Z","either","2","553","","","","","","","0","0","1","","0.4029566754","0.4","0.2","0.8","0.6","0.02951100453","0.4029566754","0.388677987","0.2295153641","","","","","","","","","","","","","","74","J","1","","","153","main_expt",""
"","bandit","234","1136542","0.0-195.0-0.0","49587770","wem/bandit_party_1","A1D35QE18L3J5Z","either","2","1902","","","","","","","1","0","0","0.3817747688","","0.4","0.2","0.8","0.6","","","","","0.02325572033","0.4037751878","0.3817747688","0.2163321136","","","","","","","","","","75","K","2","","","154","main_expt",""
"","bandit","235","1140853","0.0-196.0-0.0","49587770","wem/bandit_party_1","A1D35QE18L3J5Z","either","2","2754","","","","","","","0","0","1","0.4078727314","","0.4","0.2","0.8","0.6","","","","","0.03925092562","0.4078727314","0.327727533","0.2257858177","","","","","","","","","","74","J","1","","","155","main_expt",""
"","bandit","236","1144593","0.0-197.0-0.0","49587770","wem/bandit_party_1","A1D35QE18L3J5Z","either","2","2206","","","","","","","0","0","1","0.2821504166","","0.4","0.2","0.8","0.6","","","","","0.05532081832","0.3941681487","0.2821504166","0.2077891775","","","","","","","","","","75","K","2","","","156","main_expt",""
"","bandit","237","1147474","0.0-198.0-0.0","49587770","wem/bandit_party_1","A1D35QE18L3J5Z","either","2","1347","","","","","","","0","0","1","","0.3417147062","0.4","0.2","0.8","0.6","0.05983660039","0.3417147062","0.2784527126","0.1742908387","","","","","","","","","","","","","","74","J","1","","","157","main_expt",""
"","bandit","238","1152937","0.0-199.0-0.0","49587770","wem/bandit_party_1","A1D35QE18L3J5Z","either","2","3928","","","","","","","0","0","1","0.2857058734","","0.4","0.2","0.8","0.6","","","","","0.09347744845","0.2963220618","0.2857058734","0.162057643","","","","","","","","","","75","K","2","","","158","main_expt",""
"","bandit","239","1156523","0.0-200.0-0.0","49587770","wem/bandit_party_1","A1D35QE18L3J5Z","either","2","2036","","","","","","","0","0","1","","0.09649648717","0.4","0.2","0.8","0.6","0.09649648717","0.2961528309","0.2349295223","0.1805514511","","","","","","","","","","","","","","72","H","0","img/none_selected.jpg","","159","main_expt",""
"","bandit","240","1158241","0.0-201.0-0.0","49587770","wem/bandit_party_1","A1D35QE18L3J5Z","either","2","167","","","","","","","1","0","0","0.2275717407","","0.4","0.2","0.8","0.6","","","","","0.08382429791","0.2842772575","0.2275717407","0.1724629995","","","","","","","","","","75","K","2","","","160","main_expt",""
"","bandit","241","1160949","0.0-202.0-0.0","49587770","wem/bandit_party_1","A1D35QE18L3J5Z","either","2","1174","","","","","","","0","0","1","","0.2747674873","0.4","0.2","0.8","0.6","0.1466352983","0.2747674873","0.2559884592","0.1660992999","","","","","","","","","","","","","","74","J","1","","","161","main_expt",""
"","bandit","242","1165420","0.0-203.0-0.0","49587770","wem/bandit_party_1","A1D35QE18L3J5Z","either","2","2921","","","","","","","0","0","1","","0.2993190406","0.4","0.2","0.8","0.6","0.1569467617","0.2993190406","0.2670526618","0.2281832109","","","","","","","","","","","","","","74","J","1","","","162","main_expt",""
"","bandit","243","1171371","0.0-204.0-0.0","49587770","wem/bandit_party_1","A1D35QE18L3J5Z","either","2","4408","","","","","","","1","0","0","0.2618894379","","0.4","0.2","0.8","0.6","","","","","0.1437935099","0.3102408377","0.2618894379","0.2144285545","","","","","","","","","","75","K","2","","","163","main_expt",""
"","bandit","244","1174612","0.0-205.0-0.0","49587770","wem/bandit_party_1","A1D35QE18L3J5Z","either","2","1706","","","","","","","0","0","1","0.2977476978","","0.4","0.2","0.8","0.6","","","","","0.1503677763","0.2607878409","0.2977476978","0.2131293933","","","","","","","","","","75","K","2","","","164","main_expt",""
"","bandit","245","1178709","0.0-206.0-0.0","49587770","wem/bandit_party_1","A1D35QE18L3J5Z","either","2","2563","","","","","","","0","0","1","0.3138636066","","0.4","0.2","0.8","0.6","","","","","0.1574825995","0.2470054868","0.3138636066","0.251698227","","","","","","","","","","75","K","2","","","165","main_expt",""
"","bandit","246","1180313","0.0-207.0-0.0","49587770","wem/bandit_party_1","A1D35QE18L3J5Z","either","2","58","","","","","","","0","1","0","","0.2629624785","0.4","0.2","0.8","0.6","0.1500633275","0.2629624785","0.3204338644","0.2831539445","","","","","","","","","","","","","","74","J","1","","","166","main_expt",""
"","bandit","247","1186765","0.0-208.0-0.0","49587770","wem/bandit_party_1","A1D35QE18L3J5Z","either","2","4908","","","","","","","0","0","1","","0.2745713682","0.4","0.2","0.8","0.6","0.1137242654","0.2745713682","0.3600517585","0.2496169508","","","","","","","","","","","","","","74","J","1","","","167","main_expt",""
"","bandit","248","1188741","0.0-209.0-0.0","49587770","wem/bandit_party_1","A1D35QE18L3J5Z","either","2","430","","","","","","","0","0","1","0.3678373827","","0.4","0.2","0.8","0.6","","","","","0.145192941","0.2557249153","0.3678373827","0.2315540067","","","","","","","","","","75","K","2","","","168","main_expt",""
"","bandit","249","1190814","0.0-210.0-0.0","49587770","wem/bandit_party_1","A1D35QE18L3J5Z","either","2","541","","","","","","","0","0","1","","0.2016321063","0.4","0.2","0.8","0.6","0.1863479632","0.2016321063","0.3421512568","0.1825517174","","","","","","","","","","","","","","74","J","1","","","169","main_expt",""
"","bandit","250","1208549","0.0-211.0-0.0","49587770","wem/bandit_party_1","A1D35QE18L3J5Z","either","2","16187","","","","","","","0","0","1","","0.2210696627","0.4","0.2","0.8","0.6","0.142304713","0.2210696627","0.3917895485","0.2535959064","","","","","","","","","","","","","","74","J","1","","","170","main_expt",""
"","bandit","251","1215577","0.0-212.0-0.0","49587770","wem/bandit_party_1","A1D35QE18L3J5Z","either","2","5491","","","","","","","0","0","1","0.3206692194","","0.4","0.2","0.8","0.6","","","","","0.1739768979","0.1627904758","0.3206692194","0.3004284576","","","","","","","","","","75","K","2","","","171","main_expt",""
"","bandit","252","1222868","0.0-213.0-0.0","49587770","wem/bandit_party_1","A1D35QE18L3J5Z","either","2","5751","","","","","","","1","0","0","0.3198600846","","0.4","0.2","0.8","0.6","","","","","0.2172659048","0.1421076649","0.3198600846","0.2716191145","","","","","","","","","","75","K","2","","","172","main_expt",""
"","bandit","253","1225999","0.0-214.0-0.0","49587770","wem/bandit_party_1","A1D35QE18L3J5Z","either","2","1587","","","","","","","0","0","1","0.2419731025","","0.4","0.2","0.8","0.6","","","","","0.2419731025","0.165050165","0.2641483633","0.3253138029","","","","","","","","","","72","H","0","img/none_selected.jpg","","173","main_expt",""
"","bandit","254","1229771","0.0-215.0-0.0","49587770","wem/bandit_party_1","A1D35QE18L3J5Z","either","2","2211","","","","","","","0","0","1","0.2248062597","","0.4","0.2","0.8","0.6","","","","","0.2239571331","0.1406738207","0.2248062597","0.3419591401","","","","","","","","","","75","K","2","","","174","main_expt",""
"","bandit","255","1231980","0.0-216.0-0.0","49587770","wem/bandit_party_1","A1D35QE18L3J5Z","either","2","652","","","","","","","0","0","1","0.3442692367","","0.4","0.2","0.8","0.6","","","","","0.2311410243","0.138310495","0.2370379408","0.3442692367","","","","","","","","","","76","L","3","","","175","main_expt",""
"","bandit","256","1235126","0.0-217.0-0.0","49587770","wem/bandit_party_1","A1D35QE18L3J5Z","either","2","1614","","","","","","","0","1","0","","0.2610077479","0.4","0.2","0.8","0.6","0.2610077479","0.1675243642","0.2157433706","0.3397266539","","","","","","","","","","","","","","72","H","0","img/none_selected.jpg","","176","main_expt",""
"","bandit","257","1238359","0.0-218.0-0.0","49587770","wem/bandit_party_1","A1D35QE18L3J5Z","either","2","1697","","","","","","","0","0","1","0.1919885971","","0.4","0.2","0.8","0.6","","","","","0.2780938204","0.1919885971","0.2014791824","0.2997078274","","","","","","","","","","74","J","1","","","177","main_expt",""
"","bandit","258","1260691","0.0-219.0-0.0","49587770","wem/bandit_party_1","A1D35QE18L3J5Z","either","2","20783","","","","","","","0","0","1","0.3151752793","","0.4","0.2","0.8","0.6","","","","","0.3151752793","0.2365392944","0.1913564418","0.3064007527","","","","","","","","","","72","H","0","img/none_selected.jpg","","178","main_expt",""
"","bandit","259","1279823","0.0-220.0-0.0","49587770","wem/bandit_party_1","A1D35QE18L3J5Z","either","2","17587","","","","","","","0","0","1","","0.2509455726","0.4","0.2","0.8","0.6","0.2799621139","0.2509455726","0.1980728016","0.3533432679","","","","","","","","","","","","","","74","J","1","","","179","main_expt",""
"","bandit","260","1285976","0.0-221.0-0.0","49587770","wem/bandit_party_1","A1D35QE18L3J5Z","either","2","4613","","","","","","","0","0","1","0.3170936092","","0.4","0.2","0.8","0.6","","","","","0.3170936092","0.2767223981","0.1833491223","0.3652522579","","","","","","","","","","72","H","0","img/none_selected.jpg","","180","main_expt",""
"","bandit","261","1291146","0.0-222.0-0.0","49587770","wem/bandit_party_1","A1D35QE18L3J5Z","either","2","3627","","","","","","","0","0","1","","0.314600373","0.4","0.2","0.8","0.6","0.28101752","0.314600373","0.1342686697","0.3383156657","","","","","","","","","","","","","","74","J","1","","","181","main_expt",""
"","bandit","262","1294367","0.0-223.0-0.0","49587770","wem/bandit_party_1","A1D35QE18L3J5Z","either","2","1665","","","","","","","0","0","1","0.1636660304","","0.4","0.2","0.8","0.6","","","","","0.3043342224","0.3943610609","0.1636660304","0.2902116232","","","","","","","","","","75","K","2","","","182","main_expt",""
"","bandit","263","1296413","0.0-224.0-0.0","49587770","wem/bandit_party_1","A1D35QE18L3J5Z","either","2","513","","","","","","","0","1","0","","0.3586422101","0.4","0.2","0.8","0.6","0.3192524042","0.3586422101","0.136761637","0.3026157476","","","","","","","","","","","","","","74","J","1","","","183","main_expt",""
"","bandit","264","1298782","0.0-225.0-0.0","49587770","wem/bandit_party_1","A1D35QE18L3J5Z","either","2","812","","","","","","","1","0","0","0.3879999062","","0.4","0.2","0.8","0.6","","","","","0.3332516821","0.3879999062","0.1685989701","0.3360229169","","","","","","","","","","74","J","1","","","184","main_expt",""
"","bandit","265","1305249","0.0-226.0-0.0","49587770","wem/bandit_party_1","A1D35QE18L3J5Z","either","2","4921","","","","","","","0","0","1","","0.3831340227","0.4","0.2","0.8","0.6","0.3228184693","0.3831340227","0.1663529744","0.3336456265","","","","","","","","","","","","","","74","J","1","","","185","main_expt",""
"","bandit","266","1307756","0.0-227.0-0.0","49587770","wem/bandit_party_1","A1D35QE18L3J5Z","either","2","973","","","","","","","0","0","1","0.1916836285","","0.4","0.2","0.8","0.6","","","","","0.3111703144","0.3999004662","0.1916836285","0.3308881938","","","","","","","","","","75","K","2","","","186","main_expt",""
"","bandit","267","1310063","0.0-228.0-0.0","49587770","wem/bandit_party_1","A1D35QE18L3J5Z","either","2","770","","","","","","","0","1","0","","0.3875363153","0.4","0.2","0.8","0.6","0.3353611299","0.3875363153","0.1686829448","0.325530054","","","","","","","","","","","","","","74","J","1","","","187","main_expt",""
"","bandit","268","1312310","0.0-229.0-0.0","49587770","wem/bandit_party_1","A1D35QE18L3J5Z","either","2","693","","","","","","","0","1","0","","0.3875691392","0.4","0.2","0.8","0.6","0.3646937268","0.3875691392","0.1461675531","0.3055482451","","","","","","","","","","","","","","74","J","1","","","188","main_expt",""
"","bandit","269","1315283","0.0-230.0-0.0","49587770","wem/bandit_party_1","A1D35QE18L3J5Z","either","2","1425","","","","","","","0","1","0","","0.4166866882","0.4","0.2","0.8","0.6","0.3891323825","0.4166866882","0.1382971047","0.3002345065","","","","","","","","","","","","","","74","J","1","","","189","main_expt",""
"","bandit","270","1317598","0.0-231.0-0.0","49587770","wem/bandit_party_1","A1D35QE18L3J5Z","either","2","772","","","","","","","0","1","0","","0.4124474499","0.4","0.2","0.8","0.6","0.3860741766","0.4124474499","0.1898135375","0.2693931213","","","","","","","","","","","","","","74","J","1","","","190","main_expt",""
"","bandit","271","1319797","0.0-232.0-0.0","49587770","wem/bandit_party_1","A1D35QE18L3J5Z","either","2","666","","","","","","","1","0","0","0.3638199534","","0.4","0.2","0.8","0.6","","","","","0.3864243721","0.3638199534","0.1264917812","0.3009284261","","","","","","","","","","74","J","1","","","191","main_expt",""
"","bandit","272","1346979","0.0-233.0-0.0","49587770","wem/bandit_party_1","A1D35QE18L3J5Z","either","2","25639","","","","","","","0","0","1","","0.3711146034","0.4","0.2","0.8","0.6","0.400448014","0.3711146034","0.1185409567","0.3157917784","","","","","","","","","","","","","","74","J","1","","","192","main_expt",""
"","bandit","273","1350057","0.0-234.0-0.0","49587770","wem/bandit_party_1","A1D35QE18L3J5Z","either","2","1512","","","","","","","0","0","1","0.09837948322","","0.4","0.2","0.8","0.6","","","","","0.3895367297","0.3654165885","0.09837948322","0.2999212614","","","","","","","","","","75","K","2","","","193","main_expt",""
"","bandit","274","1352095","0.0-235.0-0.0","49587770","wem/bandit_party_1","A1D35QE18L3J5Z","either","2","488","","","","","","","0","0","1","","0.3537818584","0.4","0.2","0.8","0.6","0.4032313792","0.3537818584","0.137690802","0.3287494418","","","","","","","","","","","","","","74","J","1","","","194","main_expt",""
"","bandit","275","1355352","0.0-236.0-0.0","49587770","wem/bandit_party_1","A1D35QE18L3J5Z","either","2","1721","","","","","","","0","0","1","","0.3597494918","0.4","0.2","0.8","0.6","0.337234763","0.3597494918","0.1683354775","0.3031978913","","","","","","","","","","","","","","74","J","1","","","195","main_expt",""
"","bandit","276","1360421","0.0-237.0-0.0","49587770","wem/bandit_party_1","A1D35QE18L3J5Z","either","2","3531","","","","","","","0","0","1","0.1561951964","","0.4","0.2","0.8","0.6","","","","","0.3950764453","0.3479121901","0.1561951964","0.2901303692","","","","","","","","","","75","K","2","","","196","main_expt",""
"","bandit","277","1364060","0.0-238.0-0.0","49587770","wem/bandit_party_1","A1D35QE18L3J5Z","either","2","2089","","","","","","","0","0","1","0.1329868482","","0.4","0.2","0.8","0.6","","","","","0.4193743727","0.3596292454","0.1329868482","0.2444781728","","","","","","","","","","75","K","2","","","197","main_expt",""
"","bandit","278","1369313","0.0-239.0-0.0","49587770","wem/bandit_party_1","A1D35QE18L3J5Z","either","2","3710","","","","","","","0","0","1","","0.3555371828","0.4","0.2","0.8","0.6","0.4375347816","0.3555371828","0.1730826789","0.2140047665","","","","","","","","","","","","","","74","J","1","","","198","main_expt",""
"","bandit","279","1372974","0.0-240.0-0.0","49587770","wem/bandit_party_1","A1D35QE18L3J5Z","either","2","2101","","","","","","","0","0","1","0.4016486285","","0.4","0.2","0.8","0.6","","","","","0.4315030007","0.4016486285","0.1385649096","0.2077842613","","","","","","","","","","74","J","1","","","199","main_expt",""
"","bandit","280","1377952","0.0-241.0-0.0","49587770","wem/bandit_party_1","A1D35QE18L3J5Z","either","2","3441","","","","","","","1","0","0","0.1941139053","","0.4","0.2","0.8","0.6","","","","","0.4340108373","0.3871107612","0.1941139053","0.180488049","","","","","","","","","","75","K","2","","","200","main_expt",""
"","bandit","281","1384351","0.0-242.0-0.0","49587770","wem/bandit_party_1","A1D35QE18L3J5Z","either","2","4853","","","","","","","1","0","0","0.2084987087","","0.4","0.2","0.8","0.6","","","","","0.441078118","0.3856539452","0.1825013029","0.2084987087","","","","","","","","","","76","L","3","","","201","main_expt",""
"","bandit","282","1390791","0.0-243.0-0.0","49587770","wem/bandit_party_1","A1D35QE18L3J5Z","either","2","4905","","","","","","","0","0","1","0.162440572","","0.4","0.2","0.8","0.6","","","","","0.4143682719","0.358588673","0.162440572","0.1869669721","","","","","","","","","","75","K","2","","","202","main_expt",""
"","bandit","283","1394707","0.0-244.0-0.0","49587770","wem/bandit_party_1","A1D35QE18L3J5Z","either","2","2364","","","","","","","0","0","1","0.1914238456","","0.4","0.2","0.8","0.6","","","","","0.4280720422","0.3460881607","0.1914238456","0.1383076553","","","","","","","","","","75","K","2","","","203","main_expt",""
"","bandit","284","1396908","0.0-245.0-0.0","49587770","wem/bandit_party_1","A1D35QE18L3J5Z","either","2","661","","","","","","","0","0","1","0.1849793247","","0.4","0.2","0.8","0.6","","","","","0.4113524858","0.3091432968","0.1849793247","0.1656187697","","","","","","","","","","75","K","2","","","204","main_expt",""
"","bandit","285","1400680","0.0-246.0-0.0","49587770","wem/bandit_party_1","A1D35QE18L3J5Z","either","2","2232","","","","","","","0","0","1","0.1722293799","","0.4","0.2","0.8","0.6","","","","","0.4151465815","0.3016396897","0.1722293799","0.1699285253","","","","","","","","","","75","K","2","","","205","main_expt",""
"","bandit","286","1402837","0.0-247.0-0.0","49587770","wem/bandit_party_1","A1D35QE18L3J5Z","either","2","619","","","","","","","0","0","1","0.1625694713","","0.4","0.2","0.8","0.6","","","","","0.4002359997","0.3300702997","0.1625694713","0.161732949","","","","","","","","","","75","K","2","","","206","main_expt",""
"","bandit","287","1404774","0.0-248.0-0.0","49587770","wem/bandit_party_1","A1D35QE18L3J5Z","either","2","395","","","","","","","0","0","1","","0.1079769143","0.4","0.2","0.8","0.6","0.3692387261","0.2648848683","0.1079769143","0.1699017951","","","","","","","","","","","","","","75","K","2","","","207","main_expt",""
"","bandit","288","1407159","0.0-249.0-0.0","49587770","wem/bandit_party_1","A1D35QE18L3J5Z","either","2","847","","","","","","","0","0","1","","0.1380178959","0.4","0.2","0.8","0.6","0.3283471685","0.2502792914","0.1380178959","0.1592107695","","","","","","","","","","","","","","75","K","2","","","208","main_expt",""
"","bandit","289","1409191","0.0-250.0-0.0","49587770","wem/bandit_party_1","A1D35QE18L3J5Z","either","2","486","","","","","","","1","0","0","0.1538506734","","0.4","0.2","0.8","0.6","","","","","0.2924758898","0.2770073026","0.1538506734","0.1659907122","","","","","","","","","","75","K","2","","","209","main_expt",""
"","bandit","290","1411408","0.0-251.0-0.0","49587770","wem/bandit_party_1","A1D35QE18L3J5Z","either","2","674","","","","","","","0","1","0","","0.1406222791","0.4","0.2","0.8","0.6","0.2279470939","0.3451435735","0.1406222791","0.229525517","","","","","","","","","","","","","","75","K","2","","","210","main_expt",""
"","bandit","291","1413626","0.0-252.0-0.0","49587770","wem/bandit_party_1","A1D35QE18L3J5Z","either","2","682","","","","","","","0","0","1","0.08987887408","","0.4","0.2","0.8","0.6","","","","","0.2131844406","0.3514478275","0.08987887408","0.2434605193","","","","","","","","","","75","K","2","","","211","main_expt",""
"","bandit","292","1415775","0.0-253.0-0.0","49587770","wem/bandit_party_1","A1D35QE18L3J5Z","either","2","611","","","","","","","0","0","1","0.1277875359","","0.4","0.2","0.8","0.6","","","","","0.1601793481","0.3579324364","0.1277875359","0.1633214123","","","","","","","","","","75","K","2","","","212","main_expt",""
"","bandit","293","1417934","0.0-254.0-0.0","49587770","wem/bandit_party_1","A1D35QE18L3J5Z","either","2","619","","","","","","","0","0","1","0.134271297","","0.4","0.2","0.8","0.6","","","","","0.1354109392","0.3231243524","0.134271297","0.1014835246","","","","","","","","","","75","K","2","","","213","main_expt",""
"","bandit","294","1419540","0.0-255.0-0.0","49587770","wem/bandit_party_1","A1D35QE18L3J5Z","either","2","68","","","","","","","0","0","1","","0.1385204111","0.4","0.2","0.8","0.6","0.1142105534","0.2798540136","0.1385204111","0.09587264096","","","","","","","","","","","","","","75","K","2","","","214","main_expt",""
"","bandit","295","1421547","0.0-256.0-0.0","49587770","wem/bandit_party_1","A1D35QE18L3J5Z","either","2","468","","","","","","","0","0","1","0.1089132689","","0.4","0.2","0.8","0.6","","","","","0.1031311673","0.2469391402","0.1089132689","0.08342689115","","","","","","","","","","75","K","2","","","215","main_expt",""
"","bandit","296","1427987","0.0-257.0-0.0","49587770","wem/bandit_party_1","A1D35QE18L3J5Z","either","2","4881","","","","","","","0","0","1","0.1031732366","","0.4","0.2","0.8","0.6","","","","","0.1031732366","0.3211823944","0.1299508563","0.05361264496","","","","","","","","","","72","H","0","img/none_selected.jpg","","216","main_expt",""
"","bandit","297","1430756","0.0-258.0-0.0","49587770","wem/bandit_party_1","A1D35QE18L3J5Z","either","2","1228","","","","","","","0","0","1","","0.3545519007","0.4","0.2","0.8","0.6","0.1188097379","0.3545519007","0.131109262","0.09912420903","","","","","","","","","","","","","","74","J","1","","","217","main_expt",""
"","bandit","298","1433924","0.0-259.0-0.0","49587770","wem/bandit_party_1","A1D35QE18L3J5Z","either","2","1630","","","","","","","0","0","1","","0.1039495344","0.4","0.2","0.8","0.6","0.1096623481","0.3781539282","0.1039495344","0.1021137889","","","","","","","","","","","","","","75","K","2","","","218","main_expt",""
"","bandit","299","1439403","0.0-260.0-0.0","49587770","wem/bandit_party_1","A1D35QE18L3J5Z","either","2","3920","","","","","","","0","0","1","0.09488552944","","0.4","0.2","0.8","0.6","","","","","0.08679630722","0.3674409598","0.09488552944","0.1025207236","","","","","","","","","","75","K","2","","","219","main_expt",""
"","bandit","300","1441680","0.0-261.0-0.0","49587770","wem/bandit_party_1","A1D35QE18L3J5Z","either","2","739","","","","","","","0","1","0","","0.315237632","0.4","0.2","0.8","0.6","0.1482089448","0.315237632","0.1311925698","0.1049734862","","","","","","","","","","","","","","74","J","1","","","220","main_expt",""
"","bandit","301","1445456","0.0-262.0-0.0","49587770","wem/bandit_party_1","A1D35QE18L3J5Z","either","2","2236","","","","","","","0","0","1","0.08224132258","","0.4","0.2","0.8","0.6","","","","","0.217172314","0.3572442142","0.08224132258","0.08244295151","","","","","","","","","","75","K","2","","","221","main_expt",""
"","bandit","302","1448172","0.0-263.0-0.0","49587770","wem/bandit_party_1","A1D35QE18L3J5Z","either","2","1181","","","","","","","0","0","1","0.2227738938","","0.4","0.2","0.8","0.6","","","","","0.2227738938","0.2796125419","0.06870998364","0.09815111748","","","","","","","","","","72","H","0","img/none_selected.jpg","","222","main_expt",""
"","bandit","303","1451233","0.0-264.0-0.0","49587770","wem/bandit_party_1","A1D35QE18L3J5Z","either","2","1524","","","","","","","0","0","1","","0.2265565182","0.4","0.2","0.8","0.6","0.2768694491","0.2265565182","0.111762886","0.09925351505","","","","","","","","","","","","","","74","J","1","","","223","main_expt",""
"","bandit","304","1453469","0.0-265.0-0.0","49587770","wem/bandit_party_1","A1D35QE18L3J5Z","either","2","682","","","","","","","0","0","1","0.09652303785","","0.4","0.2","0.8","0.6","","","","","0.2895694018","0.1727872262","0.09652303785","0.07842644678","","","","","","","","","","75","K","2","","","224","main_expt",""
"","bandit","305","1455725","0.0-266.0-0.0","49587770","wem/bandit_party_1","A1D35QE18L3J5Z","either","2","715","","","","","","","0","0","1","","0.1580797834","0.4","0.2","0.8","0.6","0.3515154126","0.1580797834","0.09424892582","0.05284632075","","","","","","","","","","","","","","74","J","1","","","225","main_expt",""
"","bandit","306","1458659","0.0-267.0-0.0","49587770","wem/bandit_party_1","A1D35QE18L3J5Z","either","2","1392","","","","","","","0","0","1","0.1094697254","","0.4","0.2","0.8","0.6","","","","","0.3960872924","0.1206031336","0.1094697254","0.06788221328","","","","","","","","","","75","K","2","","","226","main_expt",""
"","bandit","307","1461536","0.0-268.0-0.0","49587770","wem/bandit_party_1","A1D35QE18L3J5Z","either","2","1342","","","","","","","0","0","1","","0.1218099769","0.4","0.2","0.8","0.6","0.3301105445","0.1218099769","0.1055794081","0.04226868229","","","","","","","","","","","","","","74","J","1","","","227","main_expt",""
"","bandit","308","1464076","0.0-269.0-0.0","49587770","wem/bandit_party_1","A1D35QE18L3J5Z","either","2","982","","","","","","","0","0","1","","0.1210232629","0.4","0.2","0.8","0.6","0.3679650562","0.08458740206","0.1210232629","0.06174471126","","","","","","","","","","","","","","75","K","2","","","228","main_expt",""
"","bandit","309","1466187","0.0-270.0-0.0","49587770","wem/bandit_party_1","A1D35QE18L3J5Z","either","2","560","","","","","","","0","0","1","0.06311990622","","0.4","0.2","0.8","0.6","","","","","0.3413725311","0.06311990622","0.1249199002","0.06122033102","","","","","","","","","","74","J","1","","","229","main_expt",""
"","bandit","310","1468286","0.0-271.0-0.0","49587770","wem/bandit_party_1","A1D35QE18L3J5Z","either","2","548","","","","","","","0","0","1","0.1423167866","","0.4","0.2","0.8","0.6","","","","","0.3652503211","0.04674316758","0.1423167866","0.09369367087","","","","","","","","","","75","K","2","","","230","main_expt",""
"","bandit","311","1470722","0.0-272.0-0.0","49587770","wem/bandit_party_1","A1D35QE18L3J5Z","either","2","890","","","","","","","0","0","1","","0.06697327866","0.4","0.2","0.8","0.6","0.3774172636","0.06697327866","0.1441411413","0.1378364932","","","","","","","","","","","","","","74","J","1","","","231","main_expt",""
"","bandit","312","1474266","0.0-273.0-0.0","49587770","wem/bandit_party_1","A1D35QE18L3J5Z","either","2","1996","","","","","","","0","0","1","","0.1132866493","0.4","0.2","0.8","0.6","0.3507397895","0.08617656909","0.1132866493","0.1138343256","","","","","","","","","","","","","","75","K","2","","","232","main_expt",""
"","bandit","313","1476830","0.0-274.0-0.0","49587770","wem/bandit_party_1","A1D35QE18L3J5Z","either","2","1016","","","","","","","0","0","1","0.08388286328","","0.4","0.2","0.8","0.6","","","","","0.3228668676","0.08388286328","0.07587191469","0.1602674987","","","","","","","","","","74","J","1","","","233","main_expt",""
"","bandit","314","1478960","0.0-275.0-0.0","49587770","wem/bandit_party_1","A1D35QE18L3J5Z","either","2","595","","","","","","","0","0","1","0.08330376307","","0.4","0.2","0.8","0.6","","","","","0.3219168209","0.08303297831","0.08330376307","0.1399599793","","","","","","","","","","75","K","2","","","234","main_expt",""
"","bandit","315","1482182","0.0-276.0-0.0","49587770","wem/bandit_party_1","A1D35QE18L3J5Z","either","2","1675","","","","","","","0","0","1","0.07960395758","","0.4","0.2","0.8","0.6","","","","","0.2907257894","0.08228619446","0.07960395758","0.1577883936","","","","","","","","","","75","K","2","","","235","main_expt",""
"","bandit","316","1486044","0.0-277.0-0.0","49587770","wem/bandit_party_1","A1D35QE18L3J5Z","either","2","2323","","","","","","","0","0","1","0.06703487678","","0.4","0.2","0.8","0.6","","","","","0.2879125653","0.07856112713","0.06703487678","0.1206463377","","","","","","","","","","75","K","2","","","236","main_expt",""
"","bandit","317","1488986","0.0-278.0-0.0","49587770","wem/bandit_party_1","A1D35QE18L3J5Z","either","2","1402","","","","","","","0","0","1","","0.09394336493","0.4","0.2","0.8","0.6","0.3055933028","0.09394336493","0.07970276757","0.1224948263","","","","","","","","","","","","","","74","J","1","","","237","main_expt",""
