"consent","trial_type","trial_index","time_elapsed","internal_node_id","subjID","study","MID","cond","drift","rt","responses","button_pressed","key_press","like","value","connected","gems","bombs","no_reward","GemPrChosen","BombPrChosen","GainOverPainPr_0","GainOverPainPr_1","GainOverPainPr_2","GainOverPainPr_3","LosePr_0","LosePr_1","LosePr_2","LosePr_3","WinPr_0","WinPr_1","WinPr_2","WinPr_3","Q0","Q1","Q2","gender","age","ethnicity","label","expt_phase","target","respCharCode","respKey","respChoiceNum","respChoice","practice","trial_counter","trial_label","Q0_index"
"GDM/GDM_behavioral_consent_30min_online.html","consent","0","12386","0.0-0.0","50293848","wem/bandit_party_1","A1HCTAULAAOC8A","either","3","","","","","","","","","","","","","","","","","","","","","","","","","","","","","","","","","","","","","","","","",""
"","survey-text","1","22703","0.0-1.0","50293848","wem/bandit_party_1","A1HCTAULAAOC8A","either","3","9303","{""Q0"":""A1HCTAULAAOC8A""}","","","","","","","","","","","","","","","","","","","","","","","","","","","","","","","","","","","","","","",""
"","button-response","2","26165","0.0-2.0","50293848","wem/bandit_party_1","A1HCTAULAAOC8A","either","3","2448","","1","","","","","","","","","","","","","","","","","","","","","","","","","","","","","","","","","","","","","",""
"","text-replacement","3","52519","0.0-3.0","50293848","wem/bandit_party_1","A1HCTAULAAOC8A","either","3","25344","","","32","","","","","","","","","","","","","","","","","","","","","","","","","","","","","","","","","","","","",""
"","text-replacement","4","70921","0.0-4.0","50293848","wem/bandit_party_1","A1HCTAULAAOC8A","either","3","18396","","","32","","","","","","","","","","","","","","","","","","","","","","","","","","","","","","","","","","","","",""
"","identification","5","77451","0.0-6.0-0.0","50293848","wem/bandit_party_1","A1HCTAULAAOC8A","either","3","6496","","","","0","0","0","","","","","","","","","","","","","","","","","","","","","","","","pre","identification_pre","the Republican party","","","","","","","",""
"","identification","6","83114","0.0-6.0-1.0","50293848","wem/bandit_party_1","A1HCTAULAAOC8A","either","3","4616","","","","6","6","6","","","","","","","","","","","","","","","","","","","","","","","","pre","identification_pre","the Democratic Party","","","","","","","",""
"","text-replacement","7","95329","0.0-7.0","50293848","wem/bandit_party_1","A1HCTAULAAOC8A","either","3","11208","","","32","","","","","","","","","","","","","","","","","","","","","","","","","","","","","","","","","","","","",""
"","text-replacement","8","105527","0.0-8.0","50293848","wem/bandit_party_1","A1HCTAULAAOC8A","either","3","10194","","","32","","","","","","","","","","","","","","","","","","","","","","","","","","","","","","","","","","","","",""
"","text-replacement","9","116650","0.0-9.0","50293848","wem/bandit_party_1","A1HCTAULAAOC8A","either","3","11118","","","32","","","","","","","","","","","","","","","","","","","","","","","","","","","","","","","","","","","","",""
"","text-replacement","10","127048","0.0-10.0","50293848","wem/bandit_party_1","A1HCTAULAAOC8A","either","3","10394","","","32","","","","","","","","","","","","","","","","","","","","","","","","","","","","","","","","","","","","",""
"","text-replacement","11","139335","0.0-11.0","50293848","wem/bandit_party_1","A1HCTAULAAOC8A","either","3","12283","","","32","","","","","","","","","","","","","","","","","","","","","","","","","","","","","","","","","","","","",""
"","bandit","12","145231","0.0-12.0-0.0","50293848","wem/bandit_party_1","A1HCTAULAAOC8A","either","3","4380","","","","","","","0","0","1","0","0","","","","","0","","","","0","","","","","","","","","","","","","74","J","0","img/none_selected_demo.jpg","true","0","",""
"","bandit","13","147875","0.0-13.0-0.0","50293848","wem/bandit_party_1","A1HCTAULAAOC8A","either","3","1119","","","","","","","0","0","1","0","0","","","","","0","","","","0","","","","","","","","","","","","","75","K","0","img/none_selected_demo.jpg","true","0","",""
"","text-replacement","14","159697","0.0-14.0","50293848","wem/bandit_party_1","A1HCTAULAAOC8A","either","3","11815","","","32","","","","","","","","","","","","","","","","","","","","","","","","","","","","","","","","","","","","",""
"","text-replacement","15","168244","0.0-15.0","50293848","wem/bandit_party_1","A1HCTAULAAOC8A","either","3","8543","","","32","","","","","","","","","","","","","","","","","","","","","","","","","","","","","","","","","","","","",""
"","text-replacement","16","183981","0.0-16.0","50293848","wem/bandit_party_1","A1HCTAULAAOC8A","either","3","15731","","","32","","","","","","","","","","","","","","","","","","","","","","","","","","","","","","","","","","","","",""
"","text-replacement","17","195635","0.0-17.0","50293848","wem/bandit_party_1","A1HCTAULAAOC8A","either","3","11650","","","32","","","","","","","","","","","","","","","","","","","","","","","","","","","","","","","","","","","","",""
"","bandit","18","197857","0.0-18.0-0.0","50293848","wem/bandit_party_1","A1HCTAULAAOC8A","either","3","709","","","","","","","1","0","0","0.8","","0.5","0.5","","","","","","","0.8","0.2","","","","","","","","","","","","74","J","0","img/none_selected_demo.jpg","true","0","80_20_practice",""
"","bandit","19","199670","0.0-18.0-1.0","50293848","wem/bandit_party_1","A1HCTAULAAOC8A","either","3","302","","","","","","","0","1","0","","0.8","0.5","0.5","","","0.8","0.2","","","","","","","","","","","","","","","","74","J","0","img/none_selected_demo.jpg","true","0","80_20_practice",""
"","bandit","20","201484","0.0-18.0-2.0","50293848","wem/bandit_party_1","A1HCTAULAAOC8A","either","3","299","","","","","","","1","0","0","0.8","","0.5","0.5","","","","","","","0.8","0.2","","","","","","","","","","","","74","J","0","img/none_selected_demo.jpg","true","0","80_20_practice",""
"","bandit","21","203285","0.0-18.0-3.0","50293848","wem/bandit_party_1","A1HCTAULAAOC8A","either","3","285","","","","","","","1","0","0","0.8","","0.5","0.5","","","","","","","0.8","0.2","","","","","","","","","","","","74","J","0","img/none_selected_demo.jpg","true","0","80_20_practice",""
"","bandit","22","205083","0.0-18.0-4.0","50293848","wem/bandit_party_1","A1HCTAULAAOC8A","either","3","285","","","","","","","0","0","1","","0.8","0.5","0.5","","","0.8","0.2","","","","","","","","","","","","","","","","74","J","0","img/none_selected_demo.jpg","true","0","80_20_practice",""
"","bandit","23","207092","0.0-18.0-5.0","50293848","wem/bandit_party_1","A1HCTAULAAOC8A","either","3","490","","","","","","","0","1","0","","0.8","0.5","0.5","","","0.8","0.2","","","","","","","","","","","","","","","","74","J","0","img/none_selected_demo.jpg","true","0","80_20_practice",""
"","bandit","24","209029","0.0-18.0-6.0","50293848","wem/bandit_party_1","A1HCTAULAAOC8A","either","3","423","","","","","","","1","0","0","0.8","","0.5","0.5","","","","","","","0.8","0.2","","","","","","","","","","","","74","J","0","img/none_selected_demo.jpg","true","0","80_20_practice",""
"","bandit","25","211236","0.0-18.0-7.0","50293848","wem/bandit_party_1","A1HCTAULAAOC8A","either","3","695","","","","","","","1","0","0","0.8","","0.5","0.5","","","","","","","0.8","0.2","","","","","","","","","","","","74","J","0","img/none_selected_demo.jpg","true","0","80_20_practice",""
"","bandit","26","213090","0.0-18.0-8.0","50293848","wem/bandit_party_1","A1HCTAULAAOC8A","either","3","342","","","","","","","0","1","0","","0.8","0.5","0.5","","","0.8","0.2","","","","","","","","","","","","","","","","74","J","0","img/none_selected_demo.jpg","true","0","80_20_practice",""
"","bandit","27","214878","0.0-18.0-9.0","50293848","wem/bandit_party_1","A1HCTAULAAOC8A","either","3","276","","","","","","","0","1","0","","0.8","0.5","0.5","","","0.8","0.2","","","","","","","","","","","","","","","","74","J","0","img/none_selected_demo.jpg","true","0","80_20_practice",""
"","bandit","28","216429","0.0-18.0-10.0","50293848","wem/bandit_party_1","A1HCTAULAAOC8A","either","3","33","","","","","","","1","0","0","0.8","","0.5","0.5","","","","","","","0.8","0.2","","","","","","","","","","","","74","J","0","img/none_selected_demo.jpg","true","0","80_20_practice",""
"","bandit","29","218806","0.0-18.0-11.0","50293848","wem/bandit_party_1","A1HCTAULAAOC8A","either","3","859","","","","","","","0","0","1","0.2","","0.5","0.5","","","","","","","0.8","0.2","","","","","","","","","","","","75","K","1","","true","0","80_20_practice",""
"","bandit","30","220697","0.0-18.0-12.0","50293848","wem/bandit_party_1","A1HCTAULAAOC8A","either","3","375","","","","","","","0","0","1","","0.2","0.5","0.5","","","0.8","0.2","","","","","","","","","","","","","","","","75","K","1","","true","0","80_20_practice",""
"","bandit","31","222405","0.0-18.0-13.0","50293848","wem/bandit_party_1","A1HCTAULAAOC8A","either","3","187","","","","","","","0","1","0","","0.8","0.5","0.5","","","0.8","0.2","","","","","","","","","","","","","","","","74","J","0","img/none_selected_demo.jpg","true","0","80_20_practice",""
"","bandit","32","224225","0.0-18.0-14.0","50293848","wem/bandit_party_1","A1HCTAULAAOC8A","either","3","303","","","","","","","1","0","0","0.8","","0.5","0.5","","","","","","","0.8","0.2","","","","","","","","","","","","74","J","0","img/none_selected_demo.jpg","true","0","80_20_practice",""
"","bandit","33","225974","0.0-18.0-15.0","50293848","wem/bandit_party_1","A1HCTAULAAOC8A","either","3","230","","","","","","","0","1","0","","0.8","0.5","0.5","","","0.8","0.2","","","","","","","","","","","","","","","","74","J","0","img/none_selected_demo.jpg","true","0","80_20_practice",""
"","bandit","34","227745","0.0-18.0-16.0","50293848","wem/bandit_party_1","A1HCTAULAAOC8A","either","3","253","","","","","","","0","1","0","","0.8","0.5","0.5","","","0.8","0.2","","","","","","","","","","","","","","","","74","J","0","img/none_selected_demo.jpg","true","0","80_20_practice",""
"","bandit","35","229377","0.0-18.0-17.0","50293848","wem/bandit_party_1","A1HCTAULAAOC8A","either","3","120","","","","","","","1","0","0","0.8","","0.5","0.5","","","","","","","0.8","0.2","","","","","","","","","","","","74","J","0","img/none_selected_demo.jpg","true","0","80_20_practice",""
"","bandit","36","231047","0.0-18.0-18.0","50293848","wem/bandit_party_1","A1HCTAULAAOC8A","either","3","160","","","","","","","0","0","1","0.8","","0.5","0.5","","","","","","","0.8","0.2","","","","","","","","","","","","74","J","0","img/none_selected_demo.jpg","true","0","80_20_practice",""
"","bandit","37","233531","0.0-18.0-19.0","50293848","wem/bandit_party_1","A1HCTAULAAOC8A","either","3","971","","","","","","","0","1","0","","0.8","0.5","0.5","","","0.8","0.2","","","","","","","","","","","","","","","","74","J","0","img/none_selected_demo.jpg","true","0","80_20_practice",""
"","text-replacement","38","238446","0.0-19.0","50293848","wem/bandit_party_1","A1HCTAULAAOC8A","either","3","4906","","","32","","","","","","","","","","","","","","","","","","","","","","","","","","","","","","","","","","","","",""
"","bandit","39","241309","0.0-20.0-0.0","50293848","wem/bandit_party_1","A1HCTAULAAOC8A","either","3","1350","","","","","","","1","0","0","1","0","","","","","0","1","","","1","0","","","","","","","","","","","","74","J","0","img/none_selected_demo.jpg","true","0","",""
"","text-replacement","40","251275","0.0-21.0","50293848","wem/bandit_party_1","A1HCTAULAAOC8A","either","3","9961","","","32","","","","","","","","","","","","","","","","","","","","","","","","","","","","","","","","","","","","",""
"","text-replacement","41","255508","0.0-22.0","50293848","wem/bandit_party_1","A1HCTAULAAOC8A","either","3","4228","","","32","","","","","","","","","","","","","","","","","","","","","","","","","","","","","","","","","","","","",""
"","text-replacement","42","259489","0.0-23.0","50293848","wem/bandit_party_1","A1HCTAULAAOC8A","either","3","3973","","","32","","","","","","","","","","","","","","","","","","","","","","","","","","","","","","","","","","","","",""
"","text-replacement","43","269928","0.0-24.0","50293848","wem/bandit_party_1","A1HCTAULAAOC8A","either","3","10429","","","32","","","","","","","","","","","","","","","","","","","","","","","","","","","","","","","","","","","","",""
"","text-replacement","44","290323","0.0-25.0","50293848","wem/bandit_party_1","A1HCTAULAAOC8A","either","3","20390","","","32","","","","","","","","","","","","","","","","","","","","","","","","","","","","","","","","","","","","",""
"","text-replacement","45","296481","0.0-26.0","50293848","wem/bandit_party_1","A1HCTAULAAOC8A","either","3","6154","","","32","","","","","","","","","","","","","","","","","","","","","","","","","","","","","","","","","","","","",""
"","text-replacement","46","304663","0.0-27.0","50293848","wem/bandit_party_1","A1HCTAULAAOC8A","either","3","8177","","","32","","","","","","","","","","","","","","","","","","","","","","","","","","","","","","","","","","","","",""
"","text-replacement","47","310748","0.0-28.0","50293848","wem/bandit_party_1","A1HCTAULAAOC8A","either","3","6079","","","32","","","","","","","","","","","","","","","","","","","","","","","","","","","","","","","","","","","","",""
"","text-replacement","48","329166","0.0-29.0","50293848","wem/bandit_party_1","A1HCTAULAAOC8A","either","3","18408","","","32","","","","","","","","","","","","","","","","","","","","","","","","","","","","","","","","","","","","",""
"","text-replacement","49","332077","0.0-30.0","50293848","wem/bandit_party_1","A1HCTAULAAOC8A","either","3","2903","","","32","","","","","","","","","","","","","","","","","","","","","","","","","","","","","","","","","","","","",""
"","text-replacement","50","335456","0.0-31.0","50293848","wem/bandit_party_1","A1HCTAULAAOC8A","either","3","3372","","","32","","","","","","","","","","","","","","","","","","","","","","","","","","","","","","","","","","","","",""
"","bandit","51","338225","0.0-32.0-0.0","50293848","wem/bandit_party_1","A1HCTAULAAOC8A","either","3","1258","","","","","","","0","0","1","","0.2","0.5","0.5","0.5","0.5","0.8","0.2","0.6","0.2","","","","","","","","","","","","","","74","J","1","","true","0","full_practice",""
"","bandit","52","341766","0.0-32.0-1.0","50293848","wem/bandit_party_1","A1HCTAULAAOC8A","either","3","2030","","","","","","","0","1","0","","0.8","0.5","0.5","0.5","0.5","0.8","0.2","0.6","0.2","","","","","","","","","","","","","","72","H","0","img/none_selected.jpg","true","0","full_practice",""
"","bandit","53","343567","0.0-32.0-2.0","50293848","wem/bandit_party_1","A1HCTAULAAOC8A","either","3","285","","","","","","","0","0","1","","0.2","0.5","0.5","0.5","0.5","0.8","0.2","0.6","0.2","","","","","","","","","","","","","","74","J","1","","true","0","full_practice",""
"","bandit","54","345317","0.0-32.0-3.0","50293848","wem/bandit_party_1","A1HCTAULAAOC8A","either","3","232","","","","","","","0","0","1","0.2","","0.5","0.5","0.5","0.5","","","","","0.8","0.2","0.6","0.2","","","","","","","","","","74","J","1","","true","0","full_practice",""
"","bandit","55","347073","0.0-32.0-4.0","50293848","wem/bandit_party_1","A1HCTAULAAOC8A","either","3","233","","","","","","","0","0","1","0.2","","0.5","0.5","0.5","0.5","","","","","0.8","0.2","0.6","0.2","","","","","","","","","","74","J","1","","true","0","full_practice",""
"","bandit","56","348959","0.0-32.0-5.0","50293848","wem/bandit_party_1","A1HCTAULAAOC8A","either","3","363","","","","","","","0","1","0","","0.8","0.5","0.5","0.5","0.5","0.8","0.2","0.6","0.2","","","","","","","","","","","","","","72","H","0","img/none_selected.jpg","true","0","full_practice",""
"","bandit","57","350751","0.0-32.0-6.0","50293848","wem/bandit_party_1","A1HCTAULAAOC8A","either","3","271","","","","","","","0","1","0","","0.8","0.5","0.5","0.5","0.5","0.8","0.2","0.6","0.2","","","","","","","","","","","","","","72","H","0","img/none_selected.jpg","true","0","full_practice",""
"","bandit","58","352607","0.0-32.0-7.0","50293848","wem/bandit_party_1","A1HCTAULAAOC8A","either","3","340","","","","","","","1","0","0","0.8","","0.5","0.5","0.5","0.5","","","","","0.8","0.2","0.6","0.2","","","","","","","","","","72","H","0","img/none_selected.jpg","true","0","full_practice",""
"","bandit","59","354362","0.0-32.0-8.0","50293848","wem/bandit_party_1","A1HCTAULAAOC8A","either","3","241","","","","","","","1","0","0","0.6","","0.5","0.5","0.5","0.5","","","","","0.8","0.2","0.6","0.2","","","","","","","","","","75","K","2","","true","0","full_practice",""
"","bandit","60","356135","0.0-32.0-9.0","50293848","wem/bandit_party_1","A1HCTAULAAOC8A","either","3","254","","","","","","","1","0","0","0.6","","0.5","0.5","0.5","0.5","","","","","0.8","0.2","0.6","0.2","","","","","","","","","","75","K","2","","true","0","full_practice",""
"","bandit","61","357934","0.0-32.0-10.0","50293848","wem/bandit_party_1","A1HCTAULAAOC8A","either","3","274","","","","","","","0","0","1","","0.6","0.5","0.5","0.5","0.5","0.8","0.2","0.6","0.2","","","","","","","","","","","","","","75","K","2","","true","0","full_practice",""
"","bandit","62","359727","0.0-32.0-11.0","50293848","wem/bandit_party_1","A1HCTAULAAOC8A","either","3","273","","","","","","","1","0","0","0.6","","0.5","0.5","0.5","0.5","","","","","0.8","0.2","0.6","0.2","","","","","","","","","","75","K","2","","true","0","full_practice",""
"","bandit","63","361502","0.0-32.0-12.0","50293848","wem/bandit_party_1","A1HCTAULAAOC8A","either","3","241","","","","","","","0","1","0","","0.2","0.5","0.5","0.5","0.5","0.8","0.2","0.6","0.2","","","","","","","","","","","","","","76","L","3","","true","0","full_practice",""
"","bandit","64","363077","0.0-32.0-13.0","50293848","wem/bandit_party_1","A1HCTAULAAOC8A","either","3","54","","","","","","","0","1","0","","0.2","0.5","0.5","0.5","0.5","0.8","0.2","0.6","0.2","","","","","","","","","","","","","","76","L","3","","true","0","full_practice",""
"","bandit","65","364838","0.0-32.0-14.0","50293848","wem/bandit_party_1","A1HCTAULAAOC8A","either","3","248","","","","","","","1","0","0","0.2","","0.5","0.5","0.5","0.5","","","","","0.8","0.2","0.6","0.2","","","","","","","","","","76","L","3","","true","0","full_practice",""
"","bandit","66","366677","0.0-32.0-15.0","50293848","wem/bandit_party_1","A1HCTAULAAOC8A","either","3","321","","","","","","","1","0","0","0.8","","0.5","0.5","0.5","0.5","","","","","0.8","0.2","0.6","0.2","","","","","","","","","","72","H","0","img/none_selected.jpg","true","0","full_practice",""
"","bandit","67","368417","0.0-32.0-16.0","50293848","wem/bandit_party_1","A1HCTAULAAOC8A","either","3","224","","","","","","","0","1","0","","0.8","0.5","0.5","0.5","0.5","0.8","0.2","0.6","0.2","","","","","","","","","","","","","","72","H","0","img/none_selected.jpg","true","0","full_practice",""
"","bandit","68","370166","0.0-32.0-17.0","50293848","wem/bandit_party_1","A1HCTAULAAOC8A","either","3","225","","","","","","","1","0","0","0.8","","0.5","0.5","0.5","0.5","","","","","0.8","0.2","0.6","0.2","","","","","","","","","","72","H","0","img/none_selected.jpg","true","0","full_practice",""
"","bandit","69","371868","0.0-32.0-18.0","50293848","wem/bandit_party_1","A1HCTAULAAOC8A","either","3","186","","","","","","","0","0","1","","0.8","0.5","0.5","0.5","0.5","0.8","0.2","0.6","0.2","","","","","","","","","","","","","","72","H","0","img/none_selected.jpg","true","0","full_practice",""
"","bandit","70","373699","0.0-32.0-19.0","50293848","wem/bandit_party_1","A1HCTAULAAOC8A","either","3","309","","","","","","","1","0","0","0.8","","0.5","0.5","0.5","0.5","","","","","0.8","0.2","0.6","0.2","","","","","","","","","","72","H","0","img/none_selected.jpg","true","0","full_practice",""
"","text","71","378031","0.0-33.0","50293848","wem/bandit_party_1","A1HCTAULAAOC8A","either","3","4303","","","32","","","","","","","","","","","","","","","","","","","","","","","","","","","","","","","","","","","","",""
"","text-replacement","72","393542","0.0-34.0","50293848","wem/bandit_party_1","A1HCTAULAAOC8A","either","3","14502","","","32","","","","","","","","","","","","","","","","","","","","","","","","","","","","","","","","","","","","",""
"","text-replacement","73","411905","0.0-35.0","50293848","wem/bandit_party_1","A1HCTAULAAOC8A","either","3","18355","","","32","","","","","","","","","","","","","","","","","","","","","","","","","","","","","","","","","","","","",""
"","text-replacement","74","420601","0.0-36.0","50293848","wem/bandit_party_1","A1HCTAULAAOC8A","either","3","8689","","","32","","","","","","","","","","","","","","","","","","","","","","","","","","","","","","","","","","","","",""
"","text-replacement","75","430761","0.0-37.0","50293848","wem/bandit_party_1","A1HCTAULAAOC8A","either","3","10150","","","32","","","","","","","","","","","","","","","","","","","","","","","","","","","","","","","","","","","","",""
"","text-replacement","76","442897","0.0-38.0","50293848","wem/bandit_party_1","A1HCTAULAAOC8A","either","3","12129","","","32","","","","","","","","","","","","","","","","","","","","","","","","","","","","","","","","","","","","",""
"","survey-multi-choice-replacement","77","448965","0.0-39.0-0.0","50293848","wem/bandit_party_1","A1HCTAULAAOC8A","either","3","6049","","","","","","","","","","","","","","","","","","","","","","","","Money will be added to the pool for <span style='color:blue;'>DEMOCRATS</span>","","","","","","","attn_check","","","","","","","","","0"
"","survey-multi-choice-replacement","78","463070","0.0-40.0-0.0","50293848","wem/bandit_party_1","A1HCTAULAAOC8A","either","3","13068","","","","","","","","","","","","","","","","","","","","","","","","Equal amounts of money will be added to the pool for <span style='color:blue;'>DEMOCRATS</span> and subtracted from the pool for <span style='color:red;'>REPUBLICANS</span>","","","","","","","attn_check","","","","","","","","","2"
"","survey-multi-choice-replacement","79","467827","0.0-41.0-0.0","50293848","wem/bandit_party_1","A1HCTAULAAOC8A","either","3","3723","","","","","","","","","","","","","","","","","","","","","","","","No money will be added to either pool","","","","","","","attn_check","","","","","","","","","3"
"","bandit","80","473492","0.0-42.0-0.0","50293848","wem/bandit_party_1","A1HCTAULAAOC8A","either","3","3133","","","","","","","0","0","1","0.1426046982","","0.6","0.2","0.8","0.4","","","","","0.1426046982","0.4870892339","0.1646489015","0.07685641067","","","","","","","","","","72","H","0","img/none_selected.jpg","","1","main_expt",""
"","bandit","81","475473","0.0-43.0-0.0","50293848","wem/bandit_party_1","A1HCTAULAAOC8A","either","3","461","","","","","","","1","0","0","0.1597004976","","0.6","0.2","0.8","0.4","","","","","0.1597004976","0.4875162112","0.2180431119","0.08388143876","","","","","","","","","","72","H","0","img/none_selected.jpg","","2","main_expt",""
"","bandit","82","477256","0.0-44.0-0.0","50293848","wem/bandit_party_1","A1HCTAULAAOC8A","either","3","253","","","","","","","0","0","1","","0.1381850853","0.6","0.2","0.8","0.4","0.1381850853","0.4909945117","0.2294217256","0.06528774038","","","","","","","","","","","","","","72","H","0","img/none_selected.jpg","","3","main_expt",""
"","bandit","83","479071","0.0-45.0-0.0","50293848","wem/bandit_party_1","A1HCTAULAAOC8A","either","3","291","","","","","","","0","1","0","","0.482579304","0.6","0.2","0.8","0.4","0.1787932262","0.482579304","0.2162119515","0.07987899881","","","","","","","","","","","","","","74","J","1","","","4","main_expt",""
"","bandit","84","480820","0.0-46.0-0.0","50293848","wem/bandit_party_1","A1HCTAULAAOC8A","either","3","228","","","","","","","0","0","1","","0.4887913002","0.6","0.2","0.8","0.4","0.1795032464","0.4887913002","0.2246316054","0.0432391811","","","","","","","","","","","","","","74","J","1","","","5","main_expt",""
"","bandit","85","482609","0.0-47.0-0.0","50293848","wem/bandit_party_1","A1HCTAULAAOC8A","either","3","271","","","","","","","0","0","1","","0.4887860333","0.6","0.2","0.8","0.4","0.164375756","0.4887860333","0.2061018479","0.03467601655","","","","","","","","","","","","","","74","J","1","","","6","main_expt",""
"","bandit","86","484459","0.0-48.0-0.0","50293848","wem/bandit_party_1","A1HCTAULAAOC8A","either","3","329","","","","","","","0","0","1","0.1795347326","","0.6","0.2","0.8","0.4","","","","","0.204957223","0.4901971563","0.1795347326","0.05033951668","","","","","","","","","","75","K","2","","","7","main_expt",""
"","bandit","87","486318","0.0-49.0-0.0","50293848","wem/bandit_party_1","A1HCTAULAAOC8A","either","3","345","","","","","","","0","0","1","0.1290452752","","0.6","0.2","0.8","0.4","","","","","0.2162036531","0.4862230721","0.1290452752","0.07676355645","","","","","","","","","","75","K","2","","","8","main_expt",""
"","bandit","88","488135","0.0-50.0-0.0","50293848","wem/bandit_party_1","A1HCTAULAAOC8A","either","3","292","","","","","","","0","0","1","0.1559184374","","0.6","0.2","0.8","0.4","","","","","0.2167418122","0.4759730645","0.1559184374","0.08620859221","","","","","","","","","","75","K","2","","","9","main_expt",""
"","bandit","89","489911","0.0-51.0-0.0","50293848","wem/bandit_party_1","A1HCTAULAAOC8A","either","3","237","","","","","","","0","0","1","0.1103839657","","0.6","0.2","0.8","0.4","","","","","0.1607923637","0.4560980466","0.1381514788","0.1103839657","","","","","","","","","","76","L","3","","","10","main_expt",""
"","bandit","90","491688","0.0-52.0-0.0","50293848","wem/bandit_party_1","A1HCTAULAAOC8A","either","3","260","","","","","","","0","0","1","","0.1334948588","0.6","0.2","0.8","0.4","0.1386410957","0.4775116046","0.1271140015","0.1334948588","","","","","","","","","","","","","","76","L","3","","","11","main_expt",""
"","bandit","91","493520","0.0-53.0-0.0","50293848","wem/bandit_party_1","A1HCTAULAAOC8A","either","3","310","","","","","","","0","0","1","","0.1535602519","0.6","0.2","0.8","0.4","0.1718380738","0.4705073552","0.1854664659","0.1535602519","","","","","","","","","","","","","","76","L","3","","","12","main_expt",""
"","bandit","92","495236","0.0-54.0-0.0","50293848","wem/bandit_party_1","A1HCTAULAAOC8A","either","3","187","","","","","","","0","1","0","","0.4851887342","0.6","0.2","0.8","0.4","0.1686303413","0.4851887342","0.1869952656","0.127854239","","","","","","","","","","","","","","74","J","1","","","13","main_expt",""
"","bandit","93","497001","0.0-55.0-0.0","50293848","wem/bandit_party_1","A1HCTAULAAOC8A","either","3","243","","","","","","","1","0","0","0.4731273917","","0.6","0.2","0.8","0.4","","","","","0.1460019496","0.4731273917","0.2035171393","0.1507911491","","","","","","","","","","74","J","1","","","14","main_expt",""
"","bandit","94","498843","0.0-56.0-0.0","50293848","wem/bandit_party_1","A1HCTAULAAOC8A","either","3","316","","","","","","","0","0","1","","0.4585867004","0.6","0.2","0.8","0.4","0.1667614464","0.4585867004","0.2800299461","0.1741212098","","","","","","","","","","","","","","74","J","1","","","15","main_expt",""
"","bandit","95","500604","0.0-57.0-0.0","50293848","wem/bandit_party_1","A1HCTAULAAOC8A","either","3","231","","","","","","","0","0","1","","0.4366533258","0.6","0.2","0.8","0.4","0.1973644546","0.4366533258","0.2725454461","0.1918308831","","","","","","","","","","","","","","74","J","1","","","16","main_expt",""
"","bandit","96","502362","0.0-58.0-0.0","50293848","wem/bandit_party_1","A1HCTAULAAOC8A","either","3","232","","","","","","","0","0","1","","0.4405228744","0.6","0.2","0.8","0.4","0.1873415792","0.4405228744","0.1570621471","0.1950212473","","","","","","","","","","","","","","74","J","1","","","17","main_expt",""
"","bandit","97","504101","0.0-59.0-0.0","50293848","wem/bandit_party_1","A1HCTAULAAOC8A","either","3","217","","","","","","","0","1","0","","0.1875860444","0.6","0.2","0.8","0.4","0.1875860444","0.4678551263","0.1968188506","0.2094813194","","","","","","","","","","","","","","72","H","0","img/none_selected.jpg","","18","main_expt",""
"","bandit","98","505930","0.0-60.0-0.0","50293848","wem/bandit_party_1","A1HCTAULAAOC8A","either","3","303","","","","","","","0","0","1","","0.1988439388","0.6","0.2","0.8","0.4","0.1988439388","0.466140525","0.2439518204","0.2628959394","","","","","","","","","","","","","","72","H","0","img/none_selected.jpg","","19","main_expt",""
"","bandit","99","507712","0.0-61.0-0.0","50293848","wem/bandit_party_1","A1HCTAULAAOC8A","either","3","256","","","","","","","0","0","1","0.1813993393","","0.6","0.2","0.8","0.4","","","","","0.1813993393","0.4094087999","0.2806117898","0.2116504525","","","","","","","","","","72","H","0","img/none_selected.jpg","","20","main_expt",""
"","bandit","100","509489","0.0-62.0-0.0","50293848","wem/bandit_party_1","A1HCTAULAAOC8A","either","3","248","","","","","","","0","0","1","0.2012004452","","0.6","0.2","0.8","0.4","","","","","0.2012004452","0.4386974508","0.2658005831","0.1904426465","","","","","","","","","","72","H","0","img/none_selected.jpg","","21","main_expt",""
"","bandit","101","511060","0.0-63.0-0.0","50293848","wem/bandit_party_1","A1HCTAULAAOC8A","either","3","48","","","","","","","0","0","1","","0.1581796968","0.6","0.2","0.8","0.4","0.1958646163","0.4505723784","0.2774390086","0.1581796968","","","","","","","","","","","","","","76","L","3","","","22","main_expt",""
"","bandit","102","512815","0.0-64.0-0.0","50293848","wem/bandit_party_1","A1HCTAULAAOC8A","either","3","237","","","","","","","1","0","0","0.2039009352","","0.6","0.2","0.8","0.4","","","","","0.2626819079","0.4568000239","0.2795917474","0.2039009352","","","","","","","","","","76","L","3","","","23","main_expt",""
"","bandit","103","514574","0.0-65.0-0.0","50293848","wem/bandit_party_1","A1HCTAULAAOC8A","either","3","239","","","","","","","0","0","1","","0.228339491","0.6","0.2","0.8","0.4","0.2906682881","0.4518339256","0.2981059477","0.228339491","","","","","","","","","","","","","","76","L","3","","","24","main_expt",""
"","bandit","104","516413","0.0-66.0-0.0","50293848","wem/bandit_party_1","A1HCTAULAAOC8A","either","3","324","","","","","","","1","0","0","0.2602465224","","0.6","0.2","0.8","0.4","","","","","0.3270173502","0.4120159309","0.3272059922","0.2602465224","","","","","","","","","","76","L","3","","","25","main_expt",""
"","bandit","105","518190","0.0-67.0-0.0","50293848","wem/bandit_party_1","A1HCTAULAAOC8A","either","3","260","","","","","","","1","0","0","0.1939420306","","0.6","0.2","0.8","0.4","","","","","0.2951289915","0.4134154185","0.3369826645","0.1939420306","","","","","","","","","","76","L","3","","","26","main_expt",""
"","bandit","106","519927","0.0-68.0-0.0","50293848","wem/bandit_party_1","A1HCTAULAAOC8A","either","3","211","","","","","","","0","0","1","","0.2387331149","0.6","0.2","0.8","0.4","0.3520126272","0.4031068294","0.2531212506","0.2387331149","","","","","","","","","","","","","","76","L","3","","","27","main_expt",""
"","bandit","107","521700","0.0-69.0-0.0","50293848","wem/bandit_party_1","A1HCTAULAAOC8A","either","3","258","","","","","","","0","0","1","","0.2183458617","0.6","0.2","0.8","0.4","0.3369287003","0.4305883772","0.2170461037","0.2183458617","","","","","","","","","","","","","","76","L","3","","","28","main_expt",""
"","bandit","108","523507","0.0-70.0-0.0","50293848","wem/bandit_party_1","A1HCTAULAAOC8A","either","3","277","","","","","","","0","1","0","","0.2151501268","0.6","0.2","0.8","0.4","0.3591799128","0.4383329838","0.2346211465","0.2151501268","","","","","","","","","","","","","","76","L","3","","","29","main_expt",""
"","bandit","109","525318","0.0-71.0-0.0","50293848","wem/bandit_party_1","A1HCTAULAAOC8A","either","3","295","","","","","","","0","0","1","","0.2267233056","0.6","0.2","0.8","0.4","0.3324285477","0.4233276099","0.2450860663","0.2267233056","","","","","","","","","","","","","","76","L","3","","","30","main_expt",""
"","bandit","110","527087","0.0-72.0-0.0","50293848","wem/bandit_party_1","A1HCTAULAAOC8A","either","3","245","","","","","","","0","0","1","","0.2663701676","0.6","0.2","0.8","0.4","0.327032362","0.4016185005","0.2141169407","0.2663701676","","","","","","","","","","","","","","76","L","3","","","31","main_expt",""
"","bandit","111","529088","0.0-73.0-0.0","50293848","wem/bandit_party_1","A1HCTAULAAOC8A","either","3","475","","","","","","","0","0","1","0.275969473","","0.6","0.2","0.8","0.4","","","","","0.3230905041","0.4134940178","0.2347854155","0.275969473","","","","","","","","","","76","L","3","","","32","main_expt",""
"","bandit","112","530910","0.0-74.0-0.0","50293848","wem/bandit_party_1","A1HCTAULAAOC8A","either","3","301","","","","","","","0","0","1","0.246596708","","0.6","0.2","0.8","0.4","","","","","0.2969008969","0.4331174495","0.246596708","0.3365270118","","","","","","","","","","75","K","2","","","33","main_expt",""
"","bandit","113","532687","0.0-75.0-0.0","50293848","wem/bandit_party_1","A1HCTAULAAOC8A","either","3","251","","","","","","","0","0","1","","0.1914370393","0.6","0.2","0.8","0.4","0.2536392951","0.4454497031","0.1914370393","0.2916301021","","","","","","","","","","","","","","75","K","2","","","34","main_expt",""
"","bandit","114","534615","0.0-76.0-0.0","50293848","wem/bandit_party_1","A1HCTAULAAOC8A","either","3","407","","","","","","","0","0","1","0.1408207185","","0.6","0.2","0.8","0.4","","","","","0.2336030597","0.4419706984","0.1408207185","0.3236538836","","","","","","","","","","75","K","2","","","35","main_expt",""
"","bandit","115","537114","0.0-77.0-0.0","50293848","wem/bandit_party_1","A1HCTAULAAOC8A","either","3","982","","","","","","","0","1","0","","0.4205940312","0.6","0.2","0.8","0.4","0.3110392291","0.4205940312","0.09539735145","0.3317439785","","","","","","","","","","","","","","74","J","1","","","36","main_expt",""
"","bandit","116","538986","0.0-78.0-0.0","50293848","wem/bandit_party_1","A1HCTAULAAOC8A","either","3","346","","","","","","","0","0","1","","0.4227305347","0.6","0.2","0.8","0.4","0.3354302382","0.4227305347","0.08867332122","0.3620900841","","","","","","","","","","","","","","74","J","1","","","37","main_expt",""
"","bandit","117","540830","0.0-79.0-0.0","50293848","wem/bandit_party_1","A1HCTAULAAOC8A","either","3","326","","","","","","","0","0","1","","0.3904174821","0.6","0.2","0.8","0.4","0.3359947902","0.3904174821","0.0804097964","0.3649119955","","","","","","","","","","","","","","74","J","1","","","38","main_expt",""
"","bandit","118","542651","0.0-80.0-0.0","50293848","wem/bandit_party_1","A1HCTAULAAOC8A","either","3","289","","","","","","","1","0","0","0.3719467902","","0.6","0.2","0.8","0.4","","","","","0.3719467902","0.3704092514","0.1092906338","0.3993258453","","","","","","","","","","72","H","0","img/none_selected.jpg","","39","main_expt",""
"","bandit","119","544507","0.0-81.0-0.0","50293848","wem/bandit_party_1","A1HCTAULAAOC8A","either","3","327","","","","","","","0","0","1","0.37180955","","0.6","0.2","0.8","0.4","","","","","0.37180955","0.3250394812","0.08771014895","0.43145226","","","","","","","","","","72","H","0","img/none_selected.jpg","","40","main_expt",""
"","bandit","120","546313","0.0-82.0-0.0","50293848","wem/bandit_party_1","A1HCTAULAAOC8A","either","3","280","","","","","","","0","1","0","","0.3972707938","0.6","0.2","0.8","0.4","0.3972707938","0.3633775572","0.1065106481","0.3925837484","","","","","","","","","","","","","","72","H","0","img/none_selected.jpg","","41","main_expt",""
"","bandit","121","548146","0.0-83.0-0.0","50293848","wem/bandit_party_1","A1HCTAULAAOC8A","either","3","299","","","","","","","0","0","1","0.3981555674","","0.6","0.2","0.8","0.4","","","","","0.3981555674","0.3708570881","0.0926848955","0.4020613291","","","","","","","","","","72","H","0","img/none_selected.jpg","","42","main_expt",""
"","bandit","122","549890","0.0-84.0-0.0","50293848","wem/bandit_party_1","A1HCTAULAAOC8A","either","3","218","","","","","","","1","0","0","0.3698022864","","0.6","0.2","0.8","0.4","","","","","0.3698022864","0.3852030547","0.09213729174","0.4199094288","","","","","","","","","","72","H","0","img/none_selected.jpg","","43","main_expt",""
"","bandit","123","551679","0.0-85.0-0.0","50293848","wem/bandit_party_1","A1HCTAULAAOC8A","either","3","261","","","","","","","0","0","1","","0.3278340923","0.6","0.2","0.8","0.4","0.3278340923","0.3653477133","0.0950319608","0.4362917367","","","","","","","","","","","","","","72","H","0","img/none_selected.jpg","","44","main_expt",""
"","bandit","124","553637","0.0-86.0-0.0","50293848","wem/bandit_party_1","A1HCTAULAAOC8A","either","3","432","","","","","","","0","0","1","","0.4004869948","0.6","0.2","0.8","0.4","0.4004869948","0.3423722135","0.07917944011","0.4310393502","","","","","","","","","","","","","","72","H","0","img/none_selected.jpg","","45","main_expt",""
"","bandit","125","555427","0.0-87.0-0.0","50293848","wem/bandit_party_1","A1HCTAULAAOC8A","either","3","258","","","","","","","1","0","0","0.4389658195","","0.6","0.2","0.8","0.4","","","","","0.4389658195","0.2713785315","0.08528552535","0.4301719659","","","","","","","","","","72","H","0","img/none_selected.jpg","","46","main_expt",""
"","bandit","126","557226","0.0-88.0-0.0","50293848","wem/bandit_party_1","A1HCTAULAAOC8A","either","3","277","","","","","","","0","0","1","","0.4294918489","0.6","0.2","0.8","0.4","0.4294918489","0.2675382036","0.08303267599","0.4274268526","","","","","","","","","","","","","","72","H","0","img/none_selected.jpg","","47","main_expt",""
"","bandit","127","559130","0.0-89.0-0.0","50293848","wem/bandit_party_1","A1HCTAULAAOC8A","either","3","380","","","","","","","0","0","1","","0.3948346084","0.6","0.2","0.8","0.4","0.3948346084","0.3006553151","0.1183490009","0.4559220927","","","","","","","","","","","","","","72","H","0","img/none_selected.jpg","","48","main_expt",""
"","bandit","128","560900","0.0-90.0-0.0","50293848","wem/bandit_party_1","A1HCTAULAAOC8A","either","3","243","","","","","","","0","0","1","0.4226663974","","0.6","0.2","0.8","0.4","","","","","0.4226663974","0.2865645246","0.09831357925","0.4362936898","","","","","","","","","","72","H","0","img/none_selected.jpg","","49","main_expt",""
"","bandit","129","562687","0.0-91.0-0.0","50293848","wem/bandit_party_1","A1HCTAULAAOC8A","either","3","267","","","","","","","0","0","1","","0.2842330123","0.6","0.2","0.8","0.4","0.3943232949","0.2842330123","0.0896163698","0.4001593617","","","","","","","","","","","","","","74","J","1","","","50","main_expt",""
"","bandit","130","564501","0.0-92.0-0.0","50293848","wem/bandit_party_1","A1HCTAULAAOC8A","either","3","280","","","","","","","0","0","1","","0.3737598101","0.6","0.2","0.8","0.4","0.3911898034","0.2933637591","0.08239790895","0.3737598101","","","","","","","","","","","","","","76","L","3","","","51","main_expt",""
"","bandit","131","566347","0.0-93.0-0.0","50293848","wem/bandit_party_1","A1HCTAULAAOC8A","either","3","319","","","","","","","0","0","1","0.06509061927","","0.6","0.2","0.8","0.4","","","","","0.3897106723","0.2802127762","0.06509061927","0.3490564905","","","","","","","","","","75","K","2","","","52","main_expt",""
"","bandit","132","568042","0.0-94.0-0.0","50293848","wem/bandit_party_1","A1HCTAULAAOC8A","either","3","181","","","","","","","0","1","0","","0.3606416198","0.6","0.2","0.8","0.4","0.3977919118","0.2567133084","0.05503049918","0.3606416198","","","","","","","","","","","","","","76","L","3","","","53","main_expt",""
"","bandit","133","569743","0.0-95.0-0.0","50293848","wem/bandit_party_1","A1HCTAULAAOC8A","either","3","176","","","","","","","0","0","1","","0.3920172378","0.6","0.2","0.8","0.4","0.3803623479","0.304436262","0.06606451817","0.3920172378","","","","","","","","","","","","","","76","L","3","","","54","main_expt",""
"","bandit","134","571636","0.0-96.0-0.0","50293848","wem/bandit_party_1","A1HCTAULAAOC8A","either","3","365","","","","","","","0","1","0","","0.3841867886","0.6","0.2","0.8","0.4","0.3898030924","0.3050376594","0.0812436444","0.3841867886","","","","","","","","","","","","","","76","L","3","","","55","main_expt",""
"","bandit","135","573403","0.0-97.0-0.0","50293848","wem/bandit_party_1","A1HCTAULAAOC8A","either","3","241","","","","","","","0","0","1","0.3752679739","","0.6","0.2","0.8","0.4","","","","","0.4332266089","0.2874076515","0.05752214818","0.3752679739","","","","","","","","","","76","L","3","","","56","main_expt",""
"","bandit","136","575093","0.0-98.0-0.0","50293848","wem/bandit_party_1","A1HCTAULAAOC8A","either","3","171","","","","","","","1","0","0","0.3595388075","","0.6","0.2","0.8","0.4","","","","","0.4598680415","0.2633226407","0.05957573693","0.3595388075","","","","","","","","","","76","L","3","","","57","main_expt",""
"","bandit","137","576944","0.0-99.0-0.0","50293848","wem/bandit_party_1","A1HCTAULAAOC8A","either","3","322","","","","","","","0","1","0","","0.2926617498","0.6","0.2","0.8","0.4","0.4510058242","0.282557186","0.08347810371","0.2926617498","","","","","","","","","","","","","","76","L","3","","","58","main_expt",""
"","bandit","138","578710","0.0-100.0-0.0","50293848","wem/bandit_party_1","A1HCTAULAAOC8A","either","3","238","","","","","","","0","1","0","","0.2854140482","0.6","0.2","0.8","0.4","0.4587464736","0.2675679041","0.1166757522","0.2854140482","","","","","","","","","","","","","","76","L","3","","","59","main_expt",""
"","bandit","139","580557","0.0-101.0-0.0","50293848","wem/bandit_party_1","A1HCTAULAAOC8A","either","3","328","","","","","","","0","0","1","","0.2767785787","0.6","0.2","0.8","0.4","0.4534111386","0.2654645802","0.1223048521","0.2767785787","","","","","","","","","","","","","","76","L","3","","","60","main_expt",""
"","bandit","140","582378","0.0-102.0-0.0","50293848","wem/bandit_party_1","A1HCTAULAAOC8A","either","3","290","","","","","","","0","0","1","","0.3110110239","0.6","0.2","0.8","0.4","0.4581751116","0.2326588137","0.1341525672","0.3110110239","","","","","","","","","","","","","","76","L","3","","","61","main_expt",""
"","bandit","141","584201","0.0-103.0-0.0","50293848","wem/bandit_party_1","A1HCTAULAAOC8A","either","3","303","","","","","","","0","1","0","","0.2739379344","0.6","0.2","0.8","0.4","0.4447189615","0.2430345153","0.1748443247","0.2739379344","","","","","","","","","","","","","","76","L","3","","","62","main_expt",""
"","bandit","142","586032","0.0-104.0-0.0","50293848","wem/bandit_party_1","A1HCTAULAAOC8A","either","3","295","","","","","","","0","1","0","","0.2518438402","0.6","0.2","0.8","0.4","0.4351057758","0.2682261916","0.1872250423","0.2518438402","","","","","","","","","","","","","","76","L","3","","","63","main_expt",""
"","bandit","143","587818","0.0-105.0-0.0","50293848","wem/bandit_party_1","A1HCTAULAAOC8A","either","3","260","","","","","","","0","1","0","","0.216118181","0.6","0.2","0.8","0.4","0.4559228662","0.3136585585","0.1592276408","0.216118181","","","","","","","","","","","","","","76","L","3","","","64","main_expt",""
"","bandit","144","589630","0.0-106.0-0.0","50293848","wem/bandit_party_1","A1HCTAULAAOC8A","either","3","290","","","","","","","0","0","1","","0.1961712117","0.6","0.2","0.8","0.4","0.4526438492","0.3208042698","0.1881419285","0.1961712117","","","","","","","","","","","","","","76","L","3","","","65","main_expt",""
"","bandit","145","591463","0.0-107.0-0.0","50293848","wem/bandit_party_1","A1HCTAULAAOC8A","either","3","304","","","","","","","0","0","1","0.1821057022","","0.6","0.2","0.8","0.4","","","","","0.4604690516","0.3550213758","0.2075830042","0.1821057022","","","","","","","","","","76","L","3","","","66","main_expt",""
"","bandit","146","593359","0.0-108.0-0.0","50293848","wem/bandit_party_1","A1HCTAULAAOC8A","either","3","380","","","","","","","0","0","1","0.2221692745","","0.6","0.2","0.8","0.4","","","","","0.4479534522","0.2883445083","0.210321401","0.2221692745","","","","","","","","","","76","L","3","","","67","main_expt",""
"","bandit","147","595163","0.0-109.0-0.0","50293848","wem/bandit_party_1","A1HCTAULAAOC8A","either","3","284","","","","","","","0","0","1","","0.2385328342","0.6","0.2","0.8","0.4","0.4420076102","0.2492112051","0.1740681144","0.2385328342","","","","","","","","","","","","","","76","L","3","","","68","main_expt",""
"","bandit","148","596998","0.0-110.0-0.0","50293848","wem/bandit_party_1","A1HCTAULAAOC8A","either","3","303","","","","","","","0","1","0","","0.1495678232","0.6","0.2","0.8","0.4","0.3840886122","0.1725364023","0.1495678232","0.2693988132","","","","","","","","","","","","","","75","K","2","","","69","main_expt",""
"","bandit","149","598807","0.0-111.0-0.0","50293848","wem/bandit_party_1","A1HCTAULAAOC8A","either","3","274","","","","","","","1","0","0","0.1594524764","","0.6","0.2","0.8","0.4","","","","","0.3764426572","0.2081322216","0.1594524764","0.2633889128","","","","","","","","","","75","K","2","","","70","main_expt",""
"","bandit","150","600649","0.0-112.0-0.0","50293848","wem/bandit_party_1","A1HCTAULAAOC8A","either","3","311","","","","","","","0","0","1","0.1308665948","","0.6","0.2","0.8","0.4","","","","","0.3925575972","0.2222096595","0.1308665948","0.2881785301","","","","","","","","","","75","K","2","","","71","main_expt",""
"","bandit","151","602456","0.0-113.0-0.0","50293848","wem/bandit_party_1","A1HCTAULAAOC8A","either","3","279","","","","","","","1","0","0","0.1413665491","","0.6","0.2","0.8","0.4","","","","","0.4055717031","0.2276413934","0.1413665491","0.3496752211","","","","","","","","","","75","K","2","","","72","main_expt",""
"","bandit","152","604272","0.0-114.0-0.0","50293848","wem/bandit_party_1","A1HCTAULAAOC8A","either","3","297","","","","","","","0","0","1","","0.1562096843","0.6","0.2","0.8","0.4","0.4313753627","0.202726327","0.1562096843","0.3662649551","","","","","","","","","","","","","","75","K","2","","","73","main_expt",""
"","bandit","153","606259","0.0-115.0-0.0","50293848","wem/bandit_party_1","A1HCTAULAAOC8A","either","3","466","","","","","","","1","0","0","0.1601549975","","0.6","0.2","0.8","0.4","","","","","0.4294283137","0.2465356434","0.1601549975","0.3318597218","","","","","","","","","","75","K","2","","","74","main_expt",""
"","bandit","154","608107","0.0-116.0-0.0","50293848","wem/bandit_party_1","A1HCTAULAAOC8A","either","3","318","","","","","","","0","0","1","0.1962365409","","0.6","0.2","0.8","0.4","","","","","0.4114775526","0.2780880013","0.1962365409","0.3129946244","","","","","","","","","","75","K","2","","","75","main_expt",""
"","bandit","155","609897","0.0-117.0-0.0","50293848","wem/bandit_party_1","A1HCTAULAAOC8A","either","3","271","","","","","","","0","0","1","0.2315068675","","0.6","0.2","0.8","0.4","","","","","0.4038916894","0.230570622","0.2315068675","0.3299880354","","","","","","","","","","75","K","2","","","76","main_expt",""
"","bandit","156","611661","0.0-118.0-0.0","50293848","wem/bandit_party_1","A1HCTAULAAOC8A","either","3","228","","","","","","","0","0","1","0.1749603823","","0.6","0.2","0.8","0.4","","","","","0.4028298088","0.1747897532","0.1749603823","0.2704336052","","","","","","","","","","75","K","2","","","77","main_expt",""
"","bandit","157","613229","0.0-119.0-0.0","50293848","wem/bandit_party_1","A1HCTAULAAOC8A","either","3","49","","","","","","","0","1","0","","0.2009150394","0.6","0.2","0.8","0.4","0.4004321452","0.2009150394","0.2091975686","0.2489008917","","","","","","","","","","","","","","74","J","1","","","78","main_expt",""
"","bandit","158","615043","0.0-120.0-0.0","50293848","wem/bandit_party_1","A1HCTAULAAOC8A","either","3","291","","","","","","","0","0","1","","0.2090883318","0.6","0.2","0.8","0.4","0.3909827091","0.2090883318","0.2699334682","0.2182462247","","","","","","","","","","","","","","74","J","1","","","79","main_expt",""
"","bandit","159","616832","0.0-121.0-0.0","50293848","wem/bandit_party_1","A1HCTAULAAOC8A","either","3","260","","","","","","","0","0","1","0.215522018","","0.6","0.2","0.8","0.4","","","","","0.4289339141","0.215522018","0.2712134299","0.1591694045","","","","","","","","","","74","J","1","","","80","main_expt",""
"","bandit","160","618657","0.0-122.0-0.0","50293848","wem/bandit_party_1","A1HCTAULAAOC8A","either","3","294","","","","","","","0","0","1","0.2655955182","","0.6","0.2","0.8","0.4","","","","","0.4256341571","0.2655955182","0.2563236188","0.1661146317","","","","","","","","","","74","J","1","","","81","main_expt",""
"","bandit","161","620218","0.0-123.0-0.0","50293848","wem/bandit_party_1","A1HCTAULAAOC8A","either","3","34","","","","","","","0","0","1","0.4153375647","","0.6","0.2","0.8","0.4","","","","","0.4153375647","0.2642342948","0.2474856626","0.2249160828","","","","","","","","","","72","H","0","img/none_selected.jpg","","82","main_expt",""
"","bandit","162","621970","0.0-124.0-0.0","50293848","wem/bandit_party_1","A1HCTAULAAOC8A","either","3","221","","","","","","","1","0","0","0.4239102097","","0.6","0.2","0.8","0.4","","","","","0.4239102097","0.2615040017","0.2338037125","0.2194800234","","","","","","","","","","72","H","0","img/none_selected.jpg","","83","main_expt",""
"","bandit","163","623752","0.0-125.0-0.0","50293848","wem/bandit_party_1","A1HCTAULAAOC8A","either","3","253","","","","","","","1","0","0","0.4021041833","","0.6","0.2","0.8","0.4","","","","","0.4021041833","0.3136368113","0.2929655049","0.2020024956","","","","","","","","","","72","H","0","img/none_selected.jpg","","84","main_expt",""
"","bandit","164","625554","0.0-126.0-0.0","50293848","wem/bandit_party_1","A1HCTAULAAOC8A","either","3","279","","","","","","","0","0","1","0.4322374594","","0.6","0.2","0.8","0.4","","","","","0.4322374594","0.2433538552","0.2755572306","0.1639230135","","","","","","","","","","72","H","0","img/none_selected.jpg","","85","main_expt",""
"","bandit","165","627382","0.0-127.0-0.0","50293848","wem/bandit_party_1","A1HCTAULAAOC8A","either","3","288","","","","","","","1","0","0","0.4247618508","","0.6","0.2","0.8","0.4","","","","","0.4247618508","0.2583740773","0.2706615249","0.1423092638","","","","","","","","","","72","H","0","img/none_selected.jpg","","86","main_expt",""
"","bandit","166","629240","0.0-128.0-0.0","50293848","wem/bandit_party_1","A1HCTAULAAOC8A","either","3","324","","","","","","","0","0","1","","0.4130492334","0.6","0.2","0.8","0.4","0.4130492334","0.2656778135","0.3259805539","0.1623313408","","","","","","","","","","","","","","72","H","0","img/none_selected.jpg","","87","main_expt",""
"","bandit","167","631021","0.0-129.0-0.0","50293848","wem/bandit_party_1","A1HCTAULAAOC8A","either","3","251","","","","","","","1","0","0","0.3883747858","","0.6","0.2","0.8","0.4","","","","","0.3883747858","0.2565525481","0.3471137027","0.1459946163","","","","","","","","","","72","H","0","img/none_selected.jpg","","88","main_expt",""
"","bandit","168","632810","0.0-130.0-0.0","50293848","wem/bandit_party_1","A1HCTAULAAOC8A","either","3","220","","","","","","","0","1","0","","0.3950807547","0.6","0.2","0.8","0.4","0.3950807547","0.2471999074","0.3715311126","0.1684807643","","","","","","","","","","","","","","72","H","0","img/none_selected.jpg","","89","main_expt",""
"","bandit","169","634651","0.0-131.0-0.0","50293848","wem/bandit_party_1","A1HCTAULAAOC8A","either","3","317","","","","","","","0","0","1","","0.420982679","0.6","0.2","0.8","0.4","0.420982679","0.2204199549","0.3571728809","0.1937692241","","","","","","","","","","","","","","72","H","0","img/none_selected.jpg","","90","main_expt",""
"","bandit","170","636406","0.0-132.0-0.0","50293848","wem/bandit_party_1","A1HCTAULAAOC8A","either","3","222","","","","","","","1","0","0","0.4012606491","","0.6","0.2","0.8","0.4","","","","","0.4012606491","0.2013548925","0.3348642023","0.1670397906","","","","","","","","","","72","H","0","img/none_selected.jpg","","91","main_expt",""
"","bandit","171","638173","0.0-133.0-0.0","50293848","wem/bandit_party_1","A1HCTAULAAOC8A","either","3","233","","","","","","","0","0","1","","0.3950870333","0.6","0.2","0.8","0.4","0.3950870333","0.174921714","0.3551195155","0.1936095216","","","","","","","","","","","","","","72","H","0","img/none_selected.jpg","","92","main_expt",""
"","bandit","172","639971","0.0-134.0-0.0","50293848","wem/bandit_party_1","A1HCTAULAAOC8A","either","3","267","","","","","","","0","0","1","0.3797372222","","0.6","0.2","0.8","0.4","","","","","0.3797372222","0.1972058505","0.3494458231","0.2399824117","","","","","","","","","","72","H","0","img/none_selected.jpg","","93","main_expt",""
"","bandit","173","641754","0.0-135.0-0.0","50293848","wem/bandit_party_1","A1HCTAULAAOC8A","either","3","243","","","","","","","1","0","0","0.3346339076","","0.6","0.2","0.8","0.4","","","","","0.3346339076","0.2144007407","0.3759818745","0.242536602","","","","","","","","","","72","H","0","img/none_selected.jpg","","94","main_expt",""
"","bandit","174","643575","0.0-136.0-0.0","50293848","wem/bandit_party_1","A1HCTAULAAOC8A","either","3","289","","","","","","","0","0","1","0.3433005441","","0.6","0.2","0.8","0.4","","","","","0.3433005441","0.2025691914","0.3467088588","0.3081296623","","","","","","","","","","72","H","0","img/none_selected.jpg","","95","main_expt",""
"","bandit","175","645388","0.0-137.0-0.0","50293848","wem/bandit_party_1","A1HCTAULAAOC8A","either","3","277","","","","","","","0","0","1","","0.2900415689","0.6","0.2","0.8","0.4","0.2900415689","0.1750118246","0.3520186383","0.371766452","","","","","","","","","","","","","","72","H","0","img/none_selected.jpg","","96","main_expt",""
"","bandit","176","647161","0.0-138.0-0.0","50293848","wem/bandit_party_1","A1HCTAULAAOC8A","either","3","235","","","","","","","0","0","1","0.3136050561","","0.6","0.2","0.8","0.4","","","","","0.3136050561","0.2433812568","0.342216001","0.3737721809","","","","","","","","","","72","H","0","img/none_selected.jpg","","97","main_expt",""
"","bandit","177","648955","0.0-139.0-0.0","50293848","wem/bandit_party_1","A1HCTAULAAOC8A","either","3","257","","","","","","","0","0","1","","0.3662625892","0.6","0.2","0.8","0.4","0.3236610102","0.1834100281","0.3775958225","0.3662625892","","","","","","","","","","","","","","76","L","3","","","98","main_expt",""
"","bandit","178","650720","0.0-140.0-0.0","50293848","wem/bandit_party_1","A1HCTAULAAOC8A","either","3","243","","","","","","","0","0","1","0.3912879072","","0.6","0.2","0.8","0.4","","","","","0.3116662608","0.146161558","0.3490624926","0.3912879072","","","","","","","","","","76","L","3","","","99","main_expt",""
"","bandit","179","652489","0.0-141.0-0.0","50293848","wem/bandit_party_1","A1HCTAULAAOC8A","either","3","243","","","","","","","0","0","1","","0.3916888764","0.6","0.2","0.8","0.4","0.3806420769","0.1186266926","0.3418910903","0.3916888764","","","","","","","","","","","","","","76","L","3","","","100","main_expt",""
"","bandit","180","654205","0.0-142.0-0.0","50293848","wem/bandit_party_1","A1HCTAULAAOC8A","either","3","195","","","","","","","0","0","1","0.3544055354","","0.6","0.2","0.8","0.4","","","","","0.3825052475","0.1467879228","0.3544055354","0.3803758031","","","","","","","","","","75","K","2","","","101","main_expt",""
"","bandit","181","655969","0.0-143.0-0.0","50293848","wem/bandit_party_1","A1HCTAULAAOC8A","either","3","241","","","","","","","0","0","1","","0.1336514036","0.6","0.2","0.8","0.4","0.3799327693","0.1336514036","0.3580864163","0.3685266224","","","","","","","","","","","","","","74","J","1","","","102","main_expt",""
"","bandit","182","657609","0.0-144.0-0.0","50293848","wem/bandit_party_1","A1HCTAULAAOC8A","either","3","125","","","","","","","0","0","1","0.336528594","","0.6","0.2","0.8","0.4","","","","","0.3502018886","0.1325092095","0.336528594","0.3754978655","","","","","","","","","","75","K","2","","","103","main_expt",""
"","bandit","183","659359","0.0-145.0-0.0","50293848","wem/bandit_party_1","A1HCTAULAAOC8A","either","3","235","","","","","","","0","0","1","","0.1162839287","0.6","0.2","0.8","0.4","0.3443431466","0.1162839287","0.3190078166","0.4033056484","","","","","","","","","","","","","","74","J","1","","","104","main_expt",""
"","bandit","184","661133","0.0-146.0-0.0","50293848","wem/bandit_party_1","A1HCTAULAAOC8A","either","3","253","","","","","","","0","0","1","","0.115620258","0.6","0.2","0.8","0.4","0.3551378046","0.115620258","0.3100940773","0.3617388181","","","","","","","","","","","","","","74","J","1","","","105","main_expt",""
"","bandit","185","662809","0.0-147.0-0.0","50293848","wem/bandit_party_1","A1HCTAULAAOC8A","either","3","150","","","","","","","0","0","1","0.2964842485","","0.6","0.2","0.8","0.4","","","","","0.3177956882","0.1102569517","0.2964842485","0.3656875331","","","","","","","","","","75","K","2","","","106","main_expt",""
"","bandit","186","664698","0.0-148.0-0.0","50293848","wem/bandit_party_1","A1HCTAULAAOC8A","either","3","371","","","","","","","0","0","1","","0.3463124521","0.6","0.2","0.8","0.4","0.3463124521","0.110599846","0.3224579283","0.3478183852","","","","","","","","","","","","","","72","H","0","img/none_selected.jpg","","107","main_expt",""
"","bandit","187","666469","0.0-149.0-0.0","50293848","wem/bandit_party_1","A1HCTAULAAOC8A","either","3","238","","","","","","","0","1","0","","0.330790185","0.6","0.2","0.8","0.4","0.330790185","0.1647947233","0.3365568187","0.3715517583","","","","","","","","","","","","","","72","H","0","img/none_selected.jpg","","108","main_expt",""
"","bandit","188","668232","0.0-150.0-0.0","50293848","wem/bandit_party_1","A1HCTAULAAOC8A","either","3","234","","","","","","","1","0","0","0.3259779601","","0.6","0.2","0.8","0.4","","","","","0.3259779601","0.146095753","0.3200824859","0.3713851569","","","","","","","","","","72","H","0","img/none_selected.jpg","","109","main_expt",""
"","bandit","189","670064","0.0-151.0-0.0","50293848","wem/bandit_party_1","A1HCTAULAAOC8A","either","3","300","","","","","","","0","0","1","0.3169053314","","0.6","0.2","0.8","0.4","","","","","0.3169053314","0.1691954855","0.3179471713","0.3401672382","","","","","","","","","","72","H","0","img/none_selected.jpg","","110","main_expt",""
"","bandit","190","672100","0.0-152.0-0.0","50293848","wem/bandit_party_1","A1HCTAULAAOC8A","either","3","500","","","","","","","0","0","1","0.342138516","","0.6","0.2","0.8","0.4","","","","","0.342138516","0.1690298198","0.3168158386","0.3242328008","","","","","","","","","","72","H","0","img/none_selected.jpg","","111","main_expt",""
"","bandit","191","673964","0.0-153.0-0.0","50293848","wem/bandit_party_1","A1HCTAULAAOC8A","either","3","332","","","","","","","0","0","1","0.3597886873","","0.6","0.2","0.8","0.4","","","","","0.3597886873","0.2196992501","0.3551606626","0.2991119965","","","","","","","","","","72","H","0","img/none_selected.jpg","","112","main_expt",""
"","bandit","192","675737","0.0-154.0-0.0","50293848","wem/bandit_party_1","A1HCTAULAAOC8A","either","3","252","","","","","","","1","0","0","0.3580549124","","0.6","0.2","0.8","0.4","","","","","0.3580549124","0.2723467559","0.3615444015","0.3364281798","","","","","","","","","","72","H","0","img/none_selected.jpg","","113","main_expt",""
"","bandit","193","677535","0.0-155.0-0.0","50293848","wem/bandit_party_1","A1HCTAULAAOC8A","either","3","266","","","","","","","1","0","0","0.3556181037","","0.6","0.2","0.8","0.4","","","","","0.3556181037","0.2470985199","0.4043222556","0.3495122724","","","","","","","","","","72","H","0","img/none_selected.jpg","","114","main_expt",""
"","bandit","194","679363","0.0-156.0-0.0","50293848","wem/bandit_party_1","A1HCTAULAAOC8A","either","3","296","","","","","","","1","0","0","0.3489042174","","0.6","0.2","0.8","0.4","","","","","0.3489042174","0.2482590513","0.4179696435","0.324938203","","","","","","","","","","72","H","0","img/none_selected.jpg","","115","main_expt",""
"","bandit","195","681212","0.0-157.0-0.0","50293848","wem/bandit_party_1","A1HCTAULAAOC8A","either","3","321","","","","","","","0","0","1","","0.3466245191","0.6","0.2","0.8","0.4","0.3466245191","0.1992012358","0.4324393975","0.3227512736","","","","","","","","","","","","","","72","H","0","img/none_selected.jpg","","116","main_expt",""
"","bandit","196","682849","0.0-158.0-0.0","50293848","wem/bandit_party_1","A1HCTAULAAOC8A","either","3","103","","","","","","","0","0","1","0.3581754781","","0.6","0.2","0.8","0.4","","","","","0.3581754781","0.216355905","0.4290779421","0.2585209305","","","","","","","","","","72","H","0","img/none_selected.jpg","","117","main_expt",""
"","bandit","197","684657","0.0-159.0-0.0","50293848","wem/bandit_party_1","A1HCTAULAAOC8A","either","3","285","","","","","","","0","0","1","","0.283939031","0.6","0.2","0.8","0.4","0.283939031","0.1715453935","0.4459264202","0.2817260076","","","","","","","","","","","","","","72","H","0","img/none_selected.jpg","","118","main_expt",""
"","bandit","198","686427","0.0-160.0-0.0","50293848","wem/bandit_party_1","A1HCTAULAAOC8A","either","3","241","","","","","","","0","0","1","0.2992634423","","0.6","0.2","0.8","0.4","","","","","0.2992634423","0.1843456939","0.436995295","0.328214026","","","","","","","","","","72","H","0","img/none_selected.jpg","","119","main_expt",""
"","bandit","199","688338","0.0-161.0-0.0","50293848","wem/bandit_party_1","A1HCTAULAAOC8A","either","3","383","","","","","","","0","0","1","","0.1848061615","0.6","0.2","0.8","0.4","0.1878150733","0.1848061615","0.4151314625","0.3355603121","","","","","","","","","","","","","","74","J","1","","","120","main_expt",""
"","bandit","200","690136","0.0-162.0-0.0","50293848","wem/bandit_party_1","A1HCTAULAAOC8A","either","3","264","","","","","","","0","0","1","","0.1679578636","0.6","0.2","0.8","0.4","0.1447458933","0.1679578636","0.4384064527","0.3829587724","","","","","","","","","","","","","","74","J","1","","","121","main_expt",""
"","bandit","201","691979","0.0-163.0-0.0","50293848","wem/bandit_party_1","A1HCTAULAAOC8A","either","3","309","","","","","","","1","0","0","0.4417589501","","0.6","0.2","0.8","0.4","","","","","0.1176060398","0.197295971","0.4417589501","0.3995678287","","","","","","","","","","75","K","2","","","122","main_expt",""
"","bandit","202","693800","0.0-164.0-0.0","50293848","wem/bandit_party_1","A1HCTAULAAOC8A","either","3","280","","","","","","","0","0","1","","0.4017154396","0.6","0.2","0.8","0.4","0.1097677055","0.2184653352","0.4017154396","0.3656739583","","","","","","","","","","","","","","75","K","2","","","123","main_expt",""
"","bandit","203","695636","0.0-165.0-0.0","50293848","wem/bandit_party_1","A1HCTAULAAOC8A","either","3","302","","","","","","","0","0","1","","0.3619070526","0.6","0.2","0.8","0.4","0.08048168986","0.2147868977","0.3619070526","0.3862549257","","","","","","","","","","","","","","75","K","2","","","124","main_expt",""
"","bandit","204","697488","0.0-166.0-0.0","50293848","wem/bandit_party_1","A1HCTAULAAOC8A","either","3","318","","","","","","","0","0","1","0.3567490645","","0.6","0.2","0.8","0.4","","","","","0.07842900555","0.1667936559","0.3567490645","0.3593796239","","","","","","","","","","75","K","2","","","125","main_expt",""
"","bandit","205","699298","0.0-167.0-0.0","50293848","wem/bandit_party_1","A1HCTAULAAOC8A","either","3","289","","","","","","","0","0","1","0.3558473019","","0.6","0.2","0.8","0.4","","","","","0.08318363027","0.1453295256","0.3558473019","0.3413194209","","","","","","","","","","75","K","2","","","126","main_expt",""
"","bandit","206","701054","0.0-168.0-0.0","50293848","wem/bandit_party_1","A1HCTAULAAOC8A","either","3","233","","","","","","","0","0","1","","0.1635755653","0.6","0.2","0.8","0.4","0.06812438963","0.1635755653","0.3543069734","0.3369929262","","","","","","","","","","","","","","74","J","1","","","127","main_expt",""
"","bandit","207","702826","0.0-169.0-0.0","50293848","wem/bandit_party_1","A1HCTAULAAOC8A","either","3","237","","","","","","","0","0","1","0.1872639566","","0.6","0.2","0.8","0.4","","","","","0.08303766286","0.1872639566","0.3328374851","0.2922989636","","","","","","","","","","74","J","1","","","128","main_expt",""
"","bandit","208","704582","0.0-170.0-0.0","50293848","wem/bandit_party_1","A1HCTAULAAOC8A","either","3","221","","","","","","","0","0","1","","0.2032718864","0.6","0.2","0.8","0.4","0.09047360051","0.2032718864","0.3238683282","0.3095146075","","","","","","","","","","","","","","74","J","1","","","129","main_expt",""
"","bandit","209","706420","0.0-171.0-0.0","50293848","wem/bandit_party_1","A1HCTAULAAOC8A","either","3","303","","","","","","","0","1","0","","0.2025864764","0.6","0.2","0.8","0.4","0.131542256","0.2025864764","0.2750329062","0.3068425872","","","","","","","","","","","","","","74","J","1","","","130","main_expt",""
"","bandit","210","708303","0.0-172.0-0.0","50293848","wem/bandit_party_1","A1HCTAULAAOC8A","either","3","349","","","","","","","0","0","1","","0.2158584071","0.6","0.2","0.8","0.4","0.1492019489","0.2158584071","0.2751886228","0.3112504131","","","","","","","","","","","","","","74","J","1","","","131","main_expt",""
"","bandit","211","710136","0.0-173.0-0.0","50293848","wem/bandit_party_1","A1HCTAULAAOC8A","either","3","295","","","","","","","0","0","1","","0.2105840197","0.6","0.2","0.8","0.4","0.1571188116","0.2105840197","0.2729729886","0.3595653039","","","","","","","","","","","","","","74","J","1","","","132","main_expt",""
"","bandit","212","711990","0.0-174.0-0.0","50293848","wem/bandit_party_1","A1HCTAULAAOC8A","either","3","322","","","","","","","1","0","0","0.3873527377","","0.6","0.2","0.8","0.4","","","","","0.2021073832","0.2328486735","0.3248088544","0.3873527377","","","","","","","","","","76","L","3","","","133","main_expt",""
"","bandit","213","713747","0.0-175.0-0.0","50293848","wem/bandit_party_1","A1HCTAULAAOC8A","either","3","239","","","","","","","0","0","1","0.3973884711","","0.6","0.2","0.8","0.4","","","","","0.2693148074","0.2589092944","0.3596446835","0.3973884711","","","","","","","","","","76","L","3","","","134","main_expt",""
"","bandit","214","715873","0.0-176.0-0.0","50293848","wem/bandit_party_1","A1HCTAULAAOC8A","either","3","601","","","","","","","0","0","1","0.4080523157","","0.6","0.2","0.8","0.4","","","","","0.2625780805","0.2637326353","0.318377279","0.4080523157","","","","","","","","","","76","L","3","","","135","main_expt",""
"","bandit","215","717665","0.0-177.0-0.0","50293848","wem/bandit_party_1","A1HCTAULAAOC8A","either","3","265","","","","","","","0","0","1","","0.4176503084","0.6","0.2","0.8","0.4","0.2981707722","0.2718680576","0.3160887017","0.4176503084","","","","","","","","","","","","","","76","L","3","","","136","main_expt",""
"","bandit","216","719465","0.0-178.0-0.0","50293848","wem/bandit_party_1","A1HCTAULAAOC8A","either","3","261","","","","","","","0","0","1","0.2883225013","","0.6","0.2","0.8","0.4","","","","","0.3148158286","0.2919957672","0.2883225013","0.3859803947","","","","","","","","","","75","K","2","","","137","main_expt",""
"","bandit","217","721121","0.0-179.0-0.0","50293848","wem/bandit_party_1","A1HCTAULAAOC8A","either","3","135","","","","","","","0","0","1","","0.3193993407","0.6","0.2","0.8","0.4","0.3111523267","0.3193993407","0.3009152141","0.358492916","","","","","","","","","","","","","","74","J","1","","","138","main_expt",""
"","bandit","218","722936","0.0-180.0-0.0","50293848","wem/bandit_party_1","A1HCTAULAAOC8A","either","3","282","","","","","","","1","0","0","0.3034593298","","0.6","0.2","0.8","0.4","","","","","0.3034593298","0.3404434035","0.293720077","0.3608756281","","","","","","","","","","72","H","0","img/none_selected.jpg","","139","main_expt",""
"","bandit","219","724701","0.0-181.0-0.0","50293848","wem/bandit_party_1","A1HCTAULAAOC8A","either","3","246","","","","","","","0","0","1","0.2507495005","","0.6","0.2","0.8","0.4","","","","","0.2507495005","0.3278052243","0.286059761","0.3421836092","","","","","","","","","","72","H","0","img/none_selected.jpg","","140","main_expt",""
"","bandit","220","726500","0.0-182.0-0.0","50293848","wem/bandit_party_1","A1HCTAULAAOC8A","either","3","280","","","","","","","1","0","0","0.2220694513","","0.6","0.2","0.8","0.4","","","","","0.2220694513","0.3038906839","0.2931724706","0.3737340371","","","","","","","","","","72","H","0","img/none_selected.jpg","","141","main_expt",""
"","bandit","221","728435","0.0-183.0-0.0","50293848","wem/bandit_party_1","A1HCTAULAAOC8A","either","3","410","","","","","","","0","0","1","","0.2119249064","0.6","0.2","0.8","0.4","0.2119249064","0.2924195757","0.2182180164","0.3461121542","","","","","","","","","","","","","","72","H","0","img/none_selected.jpg","","142","main_expt",""
"","bandit","222","730406","0.0-184.0-0.0","50293848","wem/bandit_party_1","A1HCTAULAAOC8A","either","3","434","","","","","","","0","0","1","0.2665135591","","0.6","0.2","0.8","0.4","","","","","0.2665135591","0.2816149275","0.2015475508","0.3305931074","","","","","","","","","","72","H","0","img/none_selected.jpg","","143","main_expt",""
"","bandit","223","732221","0.0-185.0-0.0","50293848","wem/bandit_party_1","A1HCTAULAAOC8A","either","3","283","","","","","","","0","0","1","0.2355525614","","0.6","0.2","0.8","0.4","","","","","0.2854155153","0.2355525614","0.2074070562","0.3561039987","","","","","","","","","","74","J","1","","","144","main_expt",""
"","bandit","224","734010","0.0-186.0-0.0","50293848","wem/bandit_party_1","A1HCTAULAAOC8A","either","3","241","","","","","","","0","0","1","","0.2185662272","0.6","0.2","0.8","0.4","0.2521048148","0.2185662272","0.1415368311","0.3648023512","","","","","","","","","","","","","","74","J","1","","","145","main_expt",""
"","bandit","225","735760","0.0-187.0-0.0","50293848","wem/bandit_party_1","A1HCTAULAAOC8A","either","3","224","","","","","","","0","0","1","0.1549520657","","0.6","0.2","0.8","0.4","","","","","0.2321266643","0.2209315791","0.1549520657","0.3450315","","","","","","","","","","75","K","2","","","146","main_expt",""
"","bandit","226","737531","0.0-188.0-0.0","50293848","wem/bandit_party_1","A1HCTAULAAOC8A","either","3","252","","","","","","","0","0","1","","0.1469310363","0.6","0.2","0.8","0.4","0.3159383216","0.2889766311","0.1469310363","0.2720321141","","","","","","","","","","","","","","75","K","2","","","147","main_expt",""
"","bandit","227","739346","0.0-189.0-0.0","50293848","wem/bandit_party_1","A1HCTAULAAOC8A","either","3","295","","","","","","","0","0","1","","0.2598972664","0.6","0.2","0.8","0.4","0.2673485129","0.2859466156","0.1332828417","0.2598972664","","","","","","","","","","","","","","76","L","3","","","148","main_expt",""
"","bandit","228","741158","0.0-190.0-0.0","50293848","wem/bandit_party_1","A1HCTAULAAOC8A","either","3","272","","","","","","","1","0","0","0.2343157719","","0.6","0.2","0.8","0.4","","","","","0.3348600541","0.2588478233","0.1102010463","0.2343157719","","","","","","","","","","76","L","3","","","149","main_expt",""
"","bandit","229","743028","0.0-191.0-0.0","50293848","wem/bandit_party_1","A1HCTAULAAOC8A","either","3","333","","","","","","","1","0","0","0.2451363599","","0.6","0.2","0.8","0.4","","","","","0.3659656834","0.2224653457","0.1356103494","0.2451363599","","","","","","","","","","76","L","3","","","150","main_expt",""
"","bandit","230","744864","0.0-192.0-0.0","50293848","wem/bandit_party_1","A1HCTAULAAOC8A","either","3","297","","","","","","","0","0","1","0.2053737132","","0.6","0.2","0.8","0.4","","","","","0.36397653","0.2387237716","0.1621229287","0.2053737132","","","","","","","","","","76","L","3","","","151","main_expt",""
"","bandit","231","746633","0.0-193.0-0.0","50293848","wem/bandit_party_1","A1HCTAULAAOC8A","either","3","240","","","","","","","0","0","1","0.2396242378","","0.6","0.2","0.8","0.4","","","","","0.3710672623","0.2519133504","0.1412745606","0.2396242378","","","","","","","","","","76","L","3","","","152","main_expt",""
"","bandit","232","748450","0.0-194.0-0.0","50293848","wem/bandit_party_1","A1HCTAULAAOC8A","either","3","291","","","","","","","0","1","0","","0.2923277395","0.6","0.2","0.8","0.4","0.3828607765","0.3078499427","0.1707580034","0.2923277395","","","","","","","","","","","","","","76","L","3","","","153","main_expt",""
"","bandit","233","750243","0.0-195.0-0.0","50293848","wem/bandit_party_1","A1HCTAULAAOC8A","either","3","255","","","","","","","0","1","0","","0.3166515581","0.6","0.2","0.8","0.4","0.3526468527","0.3283820497","0.1717455462","0.3166515581","","","","","","","","","","","","","","76","L","3","","","154","main_expt",""
"","bandit","234","752103","0.0-196.0-0.0","50293848","wem/bandit_party_1","A1HCTAULAAOC8A","either","3","329","","","","","","","0","0","1","","0.3194616596","0.6","0.2","0.8","0.4","0.3865981945","0.3303057687","0.1785539081","0.3194616596","","","","","","","","","","","","","","76","L","3","","","155","main_expt",""
"","bandit","235","754032","0.0-197.0-0.0","50293848","wem/bandit_party_1","A1HCTAULAAOC8A","either","3","381","","","","","","","1","0","0","0.3767011333","","0.6","0.2","0.8","0.4","","","","","0.4328422877","0.3178912443","0.2175815231","0.3767011333","","","","","","","","","","76","L","3","","","156","main_expt",""
"","bandit","236","755877","0.0-198.0-0.0","50293848","wem/bandit_party_1","A1HCTAULAAOC8A","either","3","322","","","","","","","0","0","1","","0.3853144204","0.6","0.2","0.8","0.4","0.4224906378","0.3236874272","0.216674397","0.3853144204","","","","","","","","","","","","","","76","L","3","","","157","main_expt",""
"","bandit","237","757645","0.0-199.0-0.0","50293848","wem/bandit_party_1","A1HCTAULAAOC8A","either","3","233","","","","","","","0","0","1","","0.3519128793","0.6","0.2","0.8","0.4","0.4428847078","0.3731337511","0.2184316938","0.3519128793","","","","","","","","","","","","","","76","L","3","","","158","main_expt",""
"","bandit","238","759500","0.0-200.0-0.0","50293848","wem/bandit_party_1","A1HCTAULAAOC8A","either","3","332","","","","","","","0","1","0","","0.3255157266","0.6","0.2","0.8","0.4","0.4498083842","0.3758107074","0.2603966468","0.3255157266","","","","","","","","","","","","","","76","L","3","","","159","main_expt",""
"","bandit","239","761298","0.0-201.0-0.0","50293848","wem/bandit_party_1","A1HCTAULAAOC8A","either","3","272","","","","","","","1","0","0","0.379238532","","0.6","0.2","0.8","0.4","","","","","0.4319550234","0.3494215766","0.2242017374","0.379238532","","","","","","","","","","76","L","3","","","160","main_expt",""
"","bandit","240","763144","0.0-202.0-0.0","50293848","wem/bandit_party_1","A1HCTAULAAOC8A","either","3","308","","","","","","","0","1","0","","0.3776335756","0.6","0.2","0.8","0.4","0.4417514389","0.3327111917","0.2014027125","0.3776335756","","","","","","","","","","","","","","76","L","3","","","161","main_expt",""
"","bandit","241","764993","0.0-203.0-0.0","50293848","wem/bandit_party_1","A1HCTAULAAOC8A","either","3","305","","","","","","","0","0","1","","0.2955751891","0.6","0.2","0.8","0.4","0.4081293495","0.3171011618","0.2038621466","0.2955751891","","","","","","","","","","","","","","76","L","3","","","162","main_expt",""
"","bandit","242","766846","0.0-204.0-0.0","50293848","wem/bandit_party_1","A1HCTAULAAOC8A","either","3","302","","","","","","","0","1","0","","0.30851492","0.6","0.2","0.8","0.4","0.4265776113","0.364183239","0.1238136799","0.30851492","","","","","","","","","","","","","","76","L","3","","","163","main_expt",""
"","bandit","243","768731","0.0-205.0-0.0","50293848","wem/bandit_party_1","A1HCTAULAAOC8A","either","3","350","","","","","","","0","0","1","0.3074756362","","0.6","0.2","0.8","0.4","","","","","0.427472809","0.3917374524","0.1104941302","0.3074756362","","","","","","","","","","76","L","3","","","164","main_expt",""
"","bandit","244","770728","0.0-206.0-0.0","50293848","wem/bandit_party_1","A1HCTAULAAOC8A","either","3","459","","","","","","","0","1","0","","0.2743039079","0.6","0.2","0.8","0.4","0.4016343469","0.3629360172","0.1099358877","0.2743039079","","","","","","","","","","","","","","76","L","3","","","165","main_expt",""
"","bandit","245","772625","0.0-207.0-0.0","50293848","wem/bandit_party_1","A1HCTAULAAOC8A","either","3","366","","","","","","","0","0","1","0.2900226329","","0.6","0.2","0.8","0.4","","","","","0.3578169927","0.3697042915","0.08082918558","0.2900226329","","","","","","","","","","76","L","3","","","166","main_expt",""
"","bandit","246","774522","0.0-208.0-0.0","50293848","wem/bandit_party_1","A1HCTAULAAOC8A","either","3","371","","","","","","","0","0","1","","0.3444017494","0.6","0.2","0.8","0.4","0.3346076013","0.3626443337","0.08539074978","0.3444017494","","","","","","","","","","","","","","76","L","3","","","167","main_expt",""
"","bandit","247","776399","0.0-209.0-0.0","50293848","wem/bandit_party_1","A1HCTAULAAOC8A","either","3","355","","","","","","","0","0","1","0.3934904689","","0.6","0.2","0.8","0.4","","","","","0.36326211","0.3488380128","0.1307687804","0.3934904689","","","","","","","","","","76","L","3","","","168","main_expt",""
"","bandit","248","778302","0.0-210.0-0.0","50293848","wem/bandit_party_1","A1HCTAULAAOC8A","either","3","369","","","","","","","0","0","1","","0.3389060657","0.6","0.2","0.8","0.4","0.3389060657","0.3338465455","0.09435724838","0.3712778229","","","","","","","","","","","","","","72","H","0","img/none_selected.jpg","","169","main_expt",""
"","bandit","249","780014","0.0-211.0-0.0","50293848","wem/bandit_party_1","A1HCTAULAAOC8A","either","3","192","","","","","","","0","1","0","","0.3820287301","0.6","0.2","0.8","0.4","0.3820287301","0.3675902536","0.09371103674","0.3348119161","","","","","","","","","","","","","","72","H","0","img/none_selected.jpg","","170","main_expt",""
"","bandit","250","781843","0.0-212.0-0.0","50293848","wem/bandit_party_1","A1HCTAULAAOC8A","either","3","297","","","","","","","0","0","1","0.3738350687","","0.6","0.2","0.8","0.4","","","","","0.3738350687","0.3663425941","0.0912992704","0.3697689907","","","","","","","","","","72","H","0","img/none_selected.jpg","","171","main_expt",""
"","bandit","251","783656","0.0-213.0-0.0","50293848","wem/bandit_party_1","A1HCTAULAAOC8A","either","3","291","","","","","","","1","0","0","0.3449486646","","0.6","0.2","0.8","0.4","","","","","0.3449486646","0.3571019768","0.1053216192","0.3438364448","","","","","","","","","","72","H","0","img/none_selected.jpg","","172","main_expt",""
"","bandit","252","785575","0.0-214.0-0.0","50293848","wem/bandit_party_1","A1HCTAULAAOC8A","either","3","397","","","","","","","0","0","1","","0.3754463001","0.6","0.2","0.8","0.4","0.3754463001","0.383943734","0.1119971747","0.4064517123","","","","","","","","","","","","","","72","H","0","img/none_selected.jpg","","173","main_expt",""
"","bandit","253","787421","0.0-215.0-0.0","50293848","wem/bandit_party_1","A1HCTAULAAOC8A","either","3","323","","","","","","","0","1","0","","0.3983783957","0.6","0.2","0.8","0.4","0.3983783957","0.378453819","0.1049574405","0.4266345201","","","","","","","","","","","","","","72","H","0","img/none_selected.jpg","","174","main_expt",""
"","bandit","254","789298","0.0-216.0-0.0","50293848","wem/bandit_party_1","A1HCTAULAAOC8A","either","3","339","","","","","","","0","0","1","","0.4176958341","0.6","0.2","0.8","0.4","0.4176958341","0.3577460836","0.07351671593","0.4413212306","","","","","","","","","","","","","","72","H","0","img/none_selected.jpg","","175","main_expt",""
"","bandit","255","791114","0.0-217.0-0.0","50293848","wem/bandit_party_1","A1HCTAULAAOC8A","either","3","271","","","","","","","0","0","1","0.4336280271","","0.6","0.2","0.8","0.4","","","","","0.4336280271","0.3346789668","0.06097876817","0.438548454","","","","","","","","","","72","H","0","img/none_selected.jpg","","176","main_expt",""
"","bandit","256","792962","0.0-218.0-0.0","50293848","wem/bandit_party_1","A1HCTAULAAOC8A","either","3","310","","","","","","","0","1","0","","0.3863917124","0.6","0.2","0.8","0.4","0.3863917124","0.3720341948","0.05873143133","0.4350726265","","","","","","","","","","","","","","72","H","0","img/none_selected.jpg","","177","main_expt",""
"","bandit","257","794895","0.0-219.0-0.0","50293848","wem/bandit_party_1","A1HCTAULAAOC8A","either","3","410","","","","","","","1","0","0","0.3826512014","","0.6","0.2","0.8","0.4","","","","","0.3826512014","0.4243236705","0.07829718294","0.4029859975","","","","","","","","","","72","H","0","img/none_selected.jpg","","178","main_expt",""
"","bandit","258","796810","0.0-220.0-0.0","50293848","wem/bandit_party_1","A1HCTAULAAOC8A","either","3","377","","","","","","","0","1","0","","0.3681046487","0.6","0.2","0.8","0.4","0.3681046487","0.4396564102","0.05868413977","0.3738585124","","","","","","","","","","","","","","72","H","0","img/none_selected.jpg","","179","main_expt",""
"","bandit","259","798747","0.0-221.0-0.0","50293848","wem/bandit_party_1","A1HCTAULAAOC8A","either","3","400","","","","","","","0","0","1","0.374340785","","0.6","0.2","0.8","0.4","","","","","0.374340785","0.4501825932","0.04540529238","0.3884150149","","","","","","","","","","72","H","0","img/none_selected.jpg","","180","main_expt",""
"","bandit","260","800557","0.0-222.0-0.0","50293848","wem/bandit_party_1","A1HCTAULAAOC8A","either","3","277","","","","","","","0","0","1","","0.3844034803","0.6","0.2","0.8","0.4","0.3844034803","0.4527537228","0.04810206047","0.3977335033","","","","","","","","","","","","","","72","H","0","img/none_selected.jpg","","181","main_expt",""
"","bandit","261","802503","0.0-223.0-0.0","50293848","wem/bandit_party_1","A1HCTAULAAOC8A","either","3","403","","","","","","","1","0","0","0.3569363444","","0.6","0.2","0.8","0.4","","","","","0.3569363444","0.4733821952","0.0564969073","0.4194204302","","","","","","","","","","72","H","0","img/none_selected.jpg","","182","main_expt",""
"","bandit","262","804332","0.0-224.0-0.0","50293848","wem/bandit_party_1","A1HCTAULAAOC8A","either","3","300","","","","","","","0","0","1","0.3930074682","","0.6","0.2","0.8","0.4","","","","","0.3930074682","0.4741352064","0.06674959941","0.4050300101","","","","","","","","","","72","H","0","img/none_selected.jpg","","183","main_expt",""
"","bandit","263","806197","0.0-225.0-0.0","50293848","wem/bandit_party_1","A1HCTAULAAOC8A","either","3","333","","","","","","","1","0","0","0.4105724965","","0.6","0.2","0.8","0.4","","","","","0.4105724965","0.4835015011","0.05730522946","0.4272992256","","","","","","","","","","72","H","0","img/none_selected.jpg","","184","main_expt",""
"","bandit","264","808071","0.0-226.0-0.0","50293848","wem/bandit_party_1","A1HCTAULAAOC8A","either","3","332","","","","","","","1","0","0","0.4230276401","","0.6","0.2","0.8","0.4","","","","","0.4230276401","0.4907566516","0.0759668512","0.4213026748","","","","","","","","","","72","H","0","img/none_selected.jpg","","185","main_expt",""
"","bandit","265","810684","0.0-227.0-0.0","50293848","wem/bandit_party_1","A1HCTAULAAOC8A","either","3","1085","","","","","","","1","0","0","0.4243078066","","0.6","0.2","0.8","0.4","","","","","0.4243078066","0.4777100538","0.0736669194","0.3729626057","","","","","","","","","","72","H","0","img/none_selected.jpg","","186","main_expt",""
"","bandit","266","812878","0.0-228.0-0.0","50293848","wem/bandit_party_1","A1HCTAULAAOC8A","either","3","649","","","","","","","1","0","0","0.419104652","","0.6","0.2","0.8","0.4","","","","","0.419104652","0.4751658893","0.1020870739","0.4022080601","","","","","","","","","","72","H","0","img/none_selected.jpg","","187","main_expt",""
"","bandit","267","814885","0.0-229.0-0.0","50293848","wem/bandit_party_1","A1HCTAULAAOC8A","either","3","459","","","","","","","0","0","1","0.3917910895","","0.6","0.2","0.8","0.4","","","","","0.3917910895","0.4711403756","0.110066606","0.4218987807","","","","","","","","","","72","H","0","img/none_selected.jpg","","188","main_expt",""
"","bandit","268","816875","0.0-230.0-0.0","50293848","wem/bandit_party_1","A1HCTAULAAOC8A","either","3","445","","","","","","","0","0","1","0.3696037293","","0.6","0.2","0.8","0.4","","","","","0.3696037293","0.4848283219","0.1616324423","0.4284519853","","","","","","","","","","72","H","0","img/none_selected.jpg","","189","main_expt",""
"","bandit","269","818894","0.0-231.0-0.0","50293848","wem/bandit_party_1","A1HCTAULAAOC8A","either","3","486","","","","","","","0","1","0","","0.3722688899","0.6","0.2","0.8","0.4","0.3722688899","0.4906713727","0.1401199573","0.4104863902","","","","","","","","","","","","","","72","H","0","img/none_selected.jpg","","190","main_expt",""
"","bandit","270","820880","0.0-232.0-0.0","50293848","wem/bandit_party_1","A1HCTAULAAOC8A","either","3","447","","","","","","","0","0","1","0.3956575009","","0.6","0.2","0.8","0.4","","","","","0.3956575009","0.4944082075","0.1782786715","0.4071825693","","","","","","","","","","72","H","0","img/none_selected.jpg","","191","main_expt",""
"","bandit","271","822719","0.0-233.0-0.0","50293848","wem/bandit_party_1","A1HCTAULAAOC8A","either","3","289","","","","","","","1","0","0","0.3843500594","","0.6","0.2","0.8","0.4","","","","","0.3843500594","0.4922337742","0.203517815","0.4172763132","","","","","","","","","","72","H","0","img/none_selected.jpg","","192","main_expt",""
"","bandit","272","824648","0.0-234.0-0.0","50293848","wem/bandit_party_1","A1HCTAULAAOC8A","either","3","385","","","","","","","0","0","1","","0.3801723293","0.6","0.2","0.8","0.4","0.3801723293","0.4887356563","0.172030281","0.3965334946","","","","","","","","","","","","","","72","H","0","img/none_selected.jpg","","193","main_expt",""
"","bandit","273","826475","0.0-235.0-0.0","50293848","wem/bandit_party_1","A1HCTAULAAOC8A","either","3","287","","","","","","","0","1","0","","0.3871645121","0.6","0.2","0.8","0.4","0.3871645121","0.4850955297","0.1813301739","0.383316574","","","","","","","","","","","","","","72","H","0","img/none_selected.jpg","","194","main_expt",""
"","bandit","274","828348","0.0-236.0-0.0","50293848","wem/bandit_party_1","A1HCTAULAAOC8A","either","3","328","","","","","","","1","0","0","0.3633903175","","0.6","0.2","0.8","0.4","","","","","0.3633903175","0.4848341758","0.2284295163","0.3965345796","","","","","","","","","","72","H","0","img/none_selected.jpg","","195","main_expt",""
"","bandit","275","830207","0.0-237.0-0.0","50293848","wem/bandit_party_1","A1HCTAULAAOC8A","either","3","315","","","","","","","0","0","1","0.3811675741","","0.6","0.2","0.8","0.4","","","","","0.3811675741","0.490049139","0.2501246714","0.3978469093","","","","","","","","","","72","H","0","img/none_selected.jpg","","196","main_expt",""
"","bandit","276","832071","0.0-238.0-0.0","50293848","wem/bandit_party_1","A1HCTAULAAOC8A","either","3","326","","","","","","","0","0","1","0.3487868089","","0.6","0.2","0.8","0.4","","","","","0.3487868089","0.4912643012","0.3150809007","0.3172926233","","","","","","","","","","72","H","0","img/none_selected.jpg","","197","main_expt",""
"","bandit","277","833891","0.0-239.0-0.0","50293848","wem/bandit_party_1","A1HCTAULAAOC8A","either","3","298","","","","","","","0","0","1","0.2986771554","","0.6","0.2","0.8","0.4","","","","","0.2986771554","0.4793615714","0.3442077965","0.3113170709","","","","","","","","","","72","H","0","img/none_selected.jpg","","198","main_expt",""
"","bandit","278","835665","0.0-240.0-0.0","50293848","wem/bandit_party_1","A1HCTAULAAOC8A","either","3","247","","","","","","","0","0","1","0.3481418533","","0.6","0.2","0.8","0.4","","","","","0.3481418533","0.4661622676","0.3675051223","0.3066116159","","","","","","","","","","72","H","0","img/none_selected.jpg","","199","main_expt",""
"","bandit","279","837481","0.0-241.0-0.0","50293848","wem/bandit_party_1","A1HCTAULAAOC8A","either","3","282","","","","","","","0","0","1","0.353319573","","0.6","0.2","0.8","0.4","","","","","0.353319573","0.4479238565","0.3044821291","0.2521122026","","","","","","","","","","72","H","0","img/none_selected.jpg","","200","main_expt",""
"","bandit","280","839255","0.0-242.0-0.0","50293848","wem/bandit_party_1","A1HCTAULAAOC8A","either","3","245","","","","","","","0","0","1","","0.2679963248","0.6","0.2","0.8","0.4","0.3676338631","0.4429166455","0.3013824411","0.2679963248","","","","","","","","","","","","","","76","L","3","","","201","main_expt",""
"","bandit","281","841037","0.0-243.0-0.0","50293848","wem/bandit_party_1","A1HCTAULAAOC8A","either","3","236","","","","","","","1","0","0","0.2076546236","","0.6","0.2","0.8","0.4","","","","","0.311657493","0.442820363","0.3001954661","0.2076546236","","","","","","","","","","76","L","3","","","202","main_expt",""
"","bandit","282","842898","0.0-244.0-0.0","50293848","wem/bandit_party_1","A1HCTAULAAOC8A","either","3","320","","","","","","","0","0","1","","0.1881707852","0.6","0.2","0.8","0.4","0.3364041998","0.4539008368","0.3189156814","0.1881707852","","","","","","","","","","","","","","76","L","3","","","203","main_expt",""
"","bandit","283","844706","0.0-245.0-0.0","50293848","wem/bandit_party_1","A1HCTAULAAOC8A","either","3","271","","","","","","","0","0","1","0.2057853427","","0.6","0.2","0.8","0.4","","","","","0.3148670147","0.4163307037","0.3162062407","0.2057853427","","","","","","","","","","76","L","3","","","204","main_expt",""
"","bandit","284","846624","0.0-246.0-0.0","50293848","wem/bandit_party_1","A1HCTAULAAOC8A","either","3","397","","","","","","","0","0","1","0.2564451259","","0.6","0.2","0.8","0.4","","","","","0.3293187519","0.4045388199","0.347278619","0.2564451259","","","","","","","","","","76","L","3","","","205","main_expt",""
"","bandit","285","848410","0.0-247.0-0.0","50293848","wem/bandit_party_1","A1HCTAULAAOC8A","either","3","259","","","","","","","0","1","0","","0.4083422121","0.6","0.2","0.8","0.4","0.2705077244","0.4083422121","0.2970129147","0.3082896296","","","","","","","","","","","","","","74","J","1","","","206","main_expt",""
"","bandit","286","850209","0.0-248.0-0.0","50293848","wem/bandit_party_1","A1HCTAULAAOC8A","either","3","258","","","","","","","0","0","1","","0.4033585138","0.6","0.2","0.8","0.4","0.3083591011","0.4033585138","0.3331481178","0.3235103938","","","","","","","","","","","","","","74","J","1","","","207","main_expt",""
"","bandit","287","852005","0.0-249.0-0.0","50293848","wem/bandit_party_1","A1HCTAULAAOC8A","either","3","252","","","","","","","0","1","0","","0.3753320851","0.6","0.2","0.8","0.4","0.2489273718","0.3753320851","0.3195917859","0.3563539536","","","","","","","","","","","","","","74","J","1","","","208","main_expt",""
"","bandit","288","854033","0.0-250.0-0.0","50293848","wem/bandit_party_1","A1HCTAULAAOC8A","either","3","492","","","","","","","1","0","0","0.3864970555","","0.6","0.2","0.8","0.4","","","","","0.2224321457","0.3864970555","0.3642345195","0.3821305916","","","","","","","","","","74","J","1","","","209","main_expt",""
"","bandit","289","855897","0.0-251.0-0.0","50293848","wem/bandit_party_1","A1HCTAULAAOC8A","either","3","336","","","","","","","0","0","1","0.3894881908","","0.6","0.2","0.8","0.4","","","","","0.2184729634","0.3894881908","0.3518797164","0.4067483812","","","","","","","","","","74","J","1","","","210","main_expt",""
"","bandit","290","857778","0.0-252.0-0.0","50293848","wem/bandit_party_1","A1HCTAULAAOC8A","either","3","334","","","","","","","1","0","0","0.4052823736","","0.6","0.2","0.8","0.4","","","","","0.2178464352","0.4052823736","0.3781537602","0.376825818","","","","","","","","","","74","J","1","","","211","main_expt",""
"","bandit","291","859667","0.0-253.0-0.0","50293848","wem/bandit_party_1","A1HCTAULAAOC8A","either","3","344","","","","","","","0","0","1","","0.3783189977","0.6","0.2","0.8","0.4","0.1644702768","0.3783189977","0.3773353051","0.3481764155","","","","","","","","","","","","","","74","J","1","","","212","main_expt",""
"","bandit","292","861518","0.0-254.0-0.0","50293848","wem/bandit_party_1","A1HCTAULAAOC8A","either","3","304","","","","","","","0","0","1","","0.3804187243","0.6","0.2","0.8","0.4","0.1271660564","0.3804187243","0.3448860985","0.3239198888","","","","","","","","","","","","","","74","J","1","","","213","main_expt",""
"","bandit","293","863337","0.0-255.0-0.0","50293848","wem/bandit_party_1","A1HCTAULAAOC8A","either","3","278","","","","","","","0","1","0","","0.3964056757","0.6","0.2","0.8","0.4","0.1368129038","0.3964056757","0.3622000499","0.3592643085","","","","","","","","","","","","","","74","J","1","","","214","main_expt",""
"","bandit","294","865238","0.0-256.0-0.0","50293848","wem/bandit_party_1","A1HCTAULAAOC8A","either","3","348","","","","","","","0","0","1","","0.3939862607","0.6","0.2","0.8","0.4","0.07615368859","0.3939862607","0.3408682726","0.3482739819","","","","","","","","","","","","","","74","J","1","","","215","main_expt",""
"","bandit","295","867102","0.0-257.0-0.0","50293848","wem/bandit_party_1","A1HCTAULAAOC8A","either","3","320","","","","","","","0","0","1","0.4062496234","","0.6","0.2","0.8","0.4","","","","","0.07711559412","0.4062496234","0.328819006","0.2972527025","","","","","","","","","","74","J","1","","","216","main_expt",""
"","bandit","296","869008","0.0-258.0-0.0","50293848","wem/bandit_party_1","A1HCTAULAAOC8A","either","3","362","","","","","","","0","1","0","","0.3440498305","0.6","0.2","0.8","0.4","0.07728173513","0.3440498305","0.3229374792","0.2850944341","","","","","","","","","","","","","","74","J","1","","","217","main_expt",""
"","bandit","297","870977","0.0-259.0-0.0","50293848","wem/bandit_party_1","A1HCTAULAAOC8A","either","3","423","","","","","","","1","0","0","0.3198020565","","0.6","0.2","0.8","0.4","","","","","0.07919919155","0.3198020565","0.3616220652","0.2483413171","","","","","","","","","","74","J","1","","","218","main_expt",""
"","bandit","298","872806","0.0-260.0-0.0","50293848","wem/bandit_party_1","A1HCTAULAAOC8A","either","3","283","","","","","","","0","0","1","","0.3078290176","0.6","0.2","0.8","0.4","0.1270410367","0.3078290176","0.3591176528","0.2680513607","","","","","","","","","","","","","","74","J","1","","","219","main_expt",""
"","bandit","299","874637","0.0-261.0-0.0","50293848","wem/bandit_party_1","A1HCTAULAAOC8A","either","3","303","","","","","","","0","0","1","","0.2961895162","0.6","0.2","0.8","0.4","0.1117499599","0.2961895162","0.2758994579","0.304668496","","","","","","","","","","","","","","74","J","1","","","220","main_expt",""
"","bandit","300","876516","0.0-262.0-0.0","50293848","wem/bandit_party_1","A1HCTAULAAOC8A","either","3","327","","","","","","","0","1","0","","0.2658603678","0.6","0.2","0.8","0.4","0.1186324211","0.2658603678","0.3119987931","0.2773284289","","","","","","","","","","","","","","74","J","1","","","221","main_expt",""
"","bandit","301","878310","0.0-263.0-0.0","50293848","wem/bandit_party_1","A1HCTAULAAOC8A","either","3","263","","","","","","","0","1","0","","0.274695037","0.6","0.2","0.8","0.4","0.1141050397","0.274695037","0.3106374463","0.2152506718","","","","","","","","","","","","","","74","J","1","","","222","main_expt",""
"","bandit","302","880218","0.0-264.0-0.0","50293848","wem/bandit_party_1","A1HCTAULAAOC8A","either","3","341","","","","","","","0","0","1","","0.2210940289","0.6","0.2","0.8","0.4","0.1007228699","0.2210940289","0.3131570504","0.2445797097","","","","","","","","","","","","","","74","J","1","","","223","main_expt",""
"","bandit","303","882068","0.0-265.0-0.0","50293848","wem/bandit_party_1","A1HCTAULAAOC8A","either","3","319","","","","","","","0","0","1","","0.1843933297","0.6","0.2","0.8","0.4","0.1380584308","0.1843933297","0.3025994915","0.2559263424","","","","","","","","","","","","","","74","J","1","","","224","main_expt",""
"","bandit","304","884171","0.0-266.0-0.0","50293848","wem/bandit_party_1","A1HCTAULAAOC8A","either","3","558","","","","","","","0","1","0","","0.212211923","0.6","0.2","0.8","0.4","0.1393521225","0.212211923","0.2994132709","0.2702522324","","","","","","","","","","","","","","74","J","1","","","225","main_expt",""
"","bandit","305","886035","0.0-267.0-0.0","50293848","wem/bandit_party_1","A1HCTAULAAOC8A","either","3","324","","","","","","","0","0","1","0.2315036379","","0.6","0.2","0.8","0.4","","","","","0.2094269877","0.2315036379","0.2866794375","0.2646860425","","","","","","","","","","74","J","1","","","226","main_expt",""
"","bandit","306","887920","0.0-268.0-0.0","50293848","wem/bandit_party_1","A1HCTAULAAOC8A","either","3","349","","","","","","","0","0","1","","0.2646353212","0.6","0.2","0.8","0.4","0.2959232149","0.2646353212","0.2299222882","0.269556559","","","","","","","","","","","","","","74","J","1","","","227","main_expt",""
"","bandit","307","889733","0.0-269.0-0.0","50293848","wem/bandit_party_1","A1HCTAULAAOC8A","either","3","287","","","","","","","0","1","0","","0.2443517867","0.6","0.2","0.8","0.4","0.374355758","0.2443517867","0.2991813551","0.2498152532","","","","","","","","","","","","","","74","J","1","","","228","main_expt",""
"","bandit","308","891590","0.0-270.0-0.0","50293848","wem/bandit_party_1","A1HCTAULAAOC8A","either","3","309","","","","","","","0","0","1","","0.2569692975","0.6","0.2","0.8","0.4","0.3876740502","0.2569692975","0.3295538921","0.2495566458","","","","","","","","","","","","","","74","J","1","","","229","main_expt",""
"","bandit","309","893412","0.0-271.0-0.0","50293848","wem/bandit_party_1","A1HCTAULAAOC8A","either","3","292","","","","","","","0","0","1","","0.2490290172","0.6","0.2","0.8","0.4","0.3341674595","0.2490290172","0.2713593359","0.2134382902","","","","","","","","","","","","","","74","J","1","","","230","main_expt",""
"","bandit","310","895287","0.0-272.0-0.0","50293848","wem/bandit_party_1","A1HCTAULAAOC8A","either","3","331","","","","","","","0","0","1","0.2368643707","","0.6","0.2","0.8","0.4","","","","","0.3558281537","0.2368643707","0.2746975787","0.2099205747","","","","","","","","","","74","J","1","","","231","main_expt",""
"","bandit","311","897136","0.0-273.0-0.0","50293848","wem/bandit_party_1","A1HCTAULAAOC8A","either","3","321","","","","","","","0","0","1","0.2857324616","","0.6","0.2","0.8","0.4","","","","","0.3293076861","0.2857324616","0.2817934899","0.1598609145","","","","","","","","","","74","J","1","","","232","main_expt",""
"","bandit","312","898797","0.0-274.0-0.0","50293848","wem/bandit_party_1","A1HCTAULAAOC8A","either","3","122","","","","","","","0","0","1","","0.3271309306","0.6","0.2","0.8","0.4","0.3271309306","0.226619475","0.3139736629","0.1472569172","","","","","","","","","","","","","","72","H","0","img/none_selected.jpg","","233","main_expt",""
"","bandit","313","900466","0.0-275.0-0.0","50293848","wem/bandit_party_1","A1HCTAULAAOC8A","either","3","123","","","","","","","0","0","1","","0.3510228885","0.6","0.2","0.8","0.4","0.3510228885","0.2448251662","0.3332560948","0.1123375355","","","","","","","","","","","","","","72","H","0","img/none_selected.jpg","","234","main_expt",""
"","bandit","314","902248","0.0-276.0-0.0","50293848","wem/bandit_party_1","A1HCTAULAAOC8A","either","3","253","","","","","","","0","1","0","","0.3346663699","0.6","0.2","0.8","0.4","0.3346663699","0.2996798263","0.3475281657","0.1562424728","","","","","","","","","","","","","","72","H","0","img/none_selected.jpg","","235","main_expt",""
