"consent","trial_type","trial_index","time_elapsed","internal_node_id","subjID","study","MID","cond","drift","rt","responses","button_pressed","key_press","like","value","connected","gems","bombs","no_reward","GemPrChosen","BombPrChosen","GainOverPainPr_0","GainOverPainPr_1","GainOverPainPr_2","GainOverPainPr_3","LosePr_0","LosePr_1","LosePr_2","LosePr_3","WinPr_0","WinPr_1","WinPr_2","WinPr_3","Q0","Q1","Q2","gender","age","ethnicity","label","expt_phase","target","respCharCode","respKey","respChoiceNum","respChoice","practice","trial_counter","trial_label","Q0_index"
"GDM/GDM_behavioral_consent_30min_online.html","consent","0","33515","0.0-0.0","50300033","wem/bandit_party_1","A2W8ZODKKQ7RYP","either","4","","","","","","","","","","","","","","","","","","","","","","","","","","","","","","","","","","","","","","","","",""
"","survey-text","1","42302","0.0-1.0","50300033","wem/bandit_party_1","A2W8ZODKKQ7RYP","either","4","7753","{""Q0"":""A2W8ZODKKQ7RYP""}","","","","","","","","","","","","","","","","","","","","","","","","","","","","","","","","","","","","","","",""
"","button-response","2","45229","0.0-2.0","50300033","wem/bandit_party_1","A2W8ZODKKQ7RYP","either","4","1916","","0","","","","","","","","","","","","","","","","","","","","","","","","","","","","","","","","","","","","","",""
"","text-replacement","3","66210","0.0-3.0","50300033","wem/bandit_party_1","A2W8ZODKKQ7RYP","either","4","19971","","","32","","","","","","","","","","","","","","","","","","","","","","","","","","","","","","","","","","","","",""
"","text-replacement","4","79663","0.0-4.0","50300033","wem/bandit_party_1","A2W8ZODKKQ7RYP","either","4","13449","","","32","","","","","","","","","","","","","","","","","","","","","","","","","","","","","","","","","","","","",""
"","identification","5","95546","0.0-6.0-0.0","50300033","wem/bandit_party_1","A2W8ZODKKQ7RYP","either","4","15845","","","","1","0","0","","","","","","","","","","","","","","","","","","","","","","","","pre","identification_pre","the Democratic Party","","","","","","","",""
"","identification","6","102507","0.0-6.0-1.0","50300033","wem/bandit_party_1","A2W8ZODKKQ7RYP","either","4","5929","","","","6","6","6","","","","","","","","","","","","","","","","","","","","","","","","pre","identification_pre","the Republican party","","","","","","","",""
"","text-replacement","7","108685","0.0-7.0","50300033","wem/bandit_party_1","A2W8ZODKKQ7RYP","either","4","5172","","","32","","","","","","","","","","","","","","","","","","","","","","","","","","","","","","","","","","","","",""
"","text-replacement","8","116096","0.0-8.0","50300033","wem/bandit_party_1","A2W8ZODKKQ7RYP","either","4","7407","","","32","","","","","","","","","","","","","","","","","","","","","","","","","","","","","","","","","","","","",""
"","text-replacement","9","129424","0.0-9.0","50300033","wem/bandit_party_1","A2W8ZODKKQ7RYP","either","4","13321","","","32","","","","","","","","","","","","","","","","","","","","","","","","","","","","","","","","","","","","",""
"","text-replacement","10","133340","0.0-10.0","50300033","wem/bandit_party_1","A2W8ZODKKQ7RYP","either","4","3913","","","32","","","","","","","","","","","","","","","","","","","","","","","","","","","","","","","","","","","","",""
"","text-replacement","11","140239","0.0-11.0","50300033","wem/bandit_party_1","A2W8ZODKKQ7RYP","either","4","6895","","","32","","","","","","","","","","","","","","","","","","","","","","","","","","","","","","","","","","","","",""
"","bandit","12","145018","0.0-12.0-0.0","50300033","wem/bandit_party_1","A2W8ZODKKQ7RYP","either","4","3259","","","","","","","0","0","1","0","0","","","","","0","","","","0","","","","","","","","","","","","","74","J","0","img/none_selected_demo.jpg","true","0","",""
"","bandit","13","148174","0.0-13.0-0.0","50300033","wem/bandit_party_1","A2W8ZODKKQ7RYP","either","4","1642","","","","","","","0","0","1","0","0","","","","","0","","","","0","","","","","","","","","","","","","75","K","0","img/none_selected_demo.jpg","true","0","",""
"","text-replacement","14","153117","0.0-14.0","50300033","wem/bandit_party_1","A2W8ZODKKQ7RYP","either","4","4939","","","32","","","","","","","","","","","","","","","","","","","","","","","","","","","","","","","","","","","","",""
"","text-replacement","15","158013","0.0-15.0","50300033","wem/bandit_party_1","A2W8ZODKKQ7RYP","either","4","4892","","","32","","","","","","","","","","","","","","","","","","","","","","","","","","","","","","","","","","","","",""
"","text-replacement","16","165087","0.0-16.0","50300033","wem/bandit_party_1","A2W8ZODKKQ7RYP","either","4","7071","","","32","","","","","","","","","","","","","","","","","","","","","","","","","","","","","","","","","","","","",""
"","text-replacement","17","168852","0.0-17.0","50300033","wem/bandit_party_1","A2W8ZODKKQ7RYP","either","4","3762","","","32","","","","","","","","","","","","","","","","","","","","","","","","","","","","","","","","","","","","",""
"","bandit","18","172776","0.0-18.0-0.0","50300033","wem/bandit_party_1","A2W8ZODKKQ7RYP","either","4","2410","","","","","","","0","1","0","","0.8","0.5","0.5","","","0.8","0.2","","","","","","","","","","","","","","","","74","J","0","img/none_selected_demo.jpg","true","0","80_20_practice",""
"","bandit","19","174848","0.0-18.0-1.0","50300033","wem/bandit_party_1","A2W8ZODKKQ7RYP","either","4","552","","","","","","","0","0","1","0.2","","0.5","0.5","","","","","","","0.8","0.2","","","","","","","","","","","","75","K","1","","true","0","80_20_practice",""
"","bandit","20","178288","0.0-18.0-2.0","50300033","wem/bandit_party_1","A2W8ZODKKQ7RYP","either","4","1925","","","","","","","0","1","0","","0.8","0.5","0.5","","","0.8","0.2","","","","","","","","","","","","","","","","74","J","0","img/none_selected_demo.jpg","true","0","80_20_practice",""
"","bandit","21","180223","0.0-18.0-3.0","50300033","wem/bandit_party_1","A2W8ZODKKQ7RYP","either","4","416","","","","","","","0","0","1","0.8","","0.5","0.5","","","","","","","0.8","0.2","","","","","","","","","","","","74","J","0","img/none_selected_demo.jpg","true","0","80_20_practice",""
"","bandit","22","182157","0.0-18.0-4.0","50300033","wem/bandit_party_1","A2W8ZODKKQ7RYP","either","4","416","","","","","","","1","0","0","0.2","","0.5","0.5","","","","","","","0.8","0.2","","","","","","","","","","","","75","K","1","","true","0","80_20_practice",""
"","bandit","23","184023","0.0-18.0-5.0","50300033","wem/bandit_party_1","A2W8ZODKKQ7RYP","either","4","348","","","","","","","0","1","0","","0.8","0.5","0.5","","","0.8","0.2","","","","","","","","","","","","","","","","74","J","0","img/none_selected_demo.jpg","true","0","80_20_practice",""
"","bandit","24","186045","0.0-18.0-6.0","50300033","wem/bandit_party_1","A2W8ZODKKQ7RYP","either","4","501","","","","","","","1","0","0","0.8","","0.5","0.5","","","","","","","0.8","0.2","","","","","","","","","","","","74","J","0","img/none_selected_demo.jpg","true","0","80_20_practice",""
"","bandit","25","187766","0.0-18.0-7.0","50300033","wem/bandit_party_1","A2W8ZODKKQ7RYP","either","4","206","","","","","","","1","0","0","0.8","","0.5","0.5","","","","","","","0.8","0.2","","","","","","","","","","","","74","J","0","img/none_selected_demo.jpg","true","0","80_20_practice",""
"","bandit","26","189647","0.0-18.0-8.0","50300033","wem/bandit_party_1","A2W8ZODKKQ7RYP","either","4","355","","","","","","","0","0","1","","0.2","0.5","0.5","","","0.8","0.2","","","","","","","","","","","","","","","","75","K","1","","true","0","80_20_practice",""
"","bandit","27","191256","0.0-18.0-9.0","50300033","wem/bandit_party_1","A2W8ZODKKQ7RYP","either","4","93","","","","","","","0","0","1","0.8","","0.5","0.5","","","","","","","0.8","0.2","","","","","","","","","","","","74","J","0","img/none_selected_demo.jpg","true","0","80_20_practice",""
"","bandit","28","193008","0.0-18.0-10.0","50300033","wem/bandit_party_1","A2W8ZODKKQ7RYP","either","4","234","","","","","","","0","1","0","","0.8","0.5","0.5","","","0.8","0.2","","","","","","","","","","","","","","","","74","J","0","img/none_selected_demo.jpg","true","0","80_20_practice",""
"","bandit","29","195571","0.0-18.0-11.0","50300033","wem/bandit_party_1","A2W8ZODKKQ7RYP","either","4","1040","","","","","","","0","0","1","0.8","","0.5","0.5","","","","","","","0.8","0.2","","","","","","","","","","","","74","J","0","img/none_selected_demo.jpg","true","0","80_20_practice",""
"","bandit","30","198473","0.0-18.0-12.0","50300033","wem/bandit_party_1","A2W8ZODKKQ7RYP","either","4","1338","","","","","","","0","1","0","","0.8","0.5","0.5","","","0.8","0.2","","","","","","","","","","","","","","","","74","J","0","img/none_selected_demo.jpg","true","0","80_20_practice",""
"","bandit","31","200360","0.0-18.0-13.0","50300033","wem/bandit_party_1","A2W8ZODKKQ7RYP","either","4","375","","","","","","","0","1","0","","0.8","0.5","0.5","","","0.8","0.2","","","","","","","","","","","","","","","","74","J","0","img/none_selected_demo.jpg","true","0","80_20_practice",""
"","bandit","32","202158","0.0-18.0-14.0","50300033","wem/bandit_party_1","A2W8ZODKKQ7RYP","either","4","279","","","","","","","1","0","0","0.8","","0.5","0.5","","","","","","","0.8","0.2","","","","","","","","","","","","74","J","0","img/none_selected_demo.jpg","true","0","80_20_practice",""
"","bandit","33","203807","0.0-18.0-15.0","50300033","wem/bandit_party_1","A2W8ZODKKQ7RYP","either","4","130","","","","","","","0","0","1","","0.2","0.5","0.5","","","0.8","0.2","","","","","","","","","","","","","","","","75","K","1","","true","0","80_20_practice",""
"","bandit","34","205783","0.0-18.0-16.0","50300033","wem/bandit_party_1","A2W8ZODKKQ7RYP","either","4","457","","","","","","","0","0","1","0.2","","0.5","0.5","","","","","","","0.8","0.2","","","","","","","","","","","","75","K","1","","true","0","80_20_practice",""
"","bandit","35","207334","0.0-18.0-17.0","50300033","wem/bandit_party_1","A2W8ZODKKQ7RYP","either","4","33","","","","","","","0","0","1","0.2","","0.5","0.5","","","","","","","0.8","0.2","","","","","","","","","","","","75","K","1","","true","0","80_20_practice",""
"","bandit","36","209328","0.0-18.0-18.0","50300033","wem/bandit_party_1","A2W8ZODKKQ7RYP","either","4","469","","","","","","","0","1","0","","0.8","0.5","0.5","","","0.8","0.2","","","","","","","","","","","","","","","","74","J","0","img/none_selected_demo.jpg","true","0","80_20_practice",""
"","bandit","37","210866","0.0-18.0-19.0","50300033","wem/bandit_party_1","A2W8ZODKKQ7RYP","either","4","25","","","","","","","0","1","0","","0.8","0.5","0.5","","","0.8","0.2","","","","","","","","","","","","","","","","74","J","0","img/none_selected_demo.jpg","true","0","80_20_practice",""
"","text-replacement","38","215556","0.0-19.0","50300033","wem/bandit_party_1","A2W8ZODKKQ7RYP","either","4","4686","","","32","","","","","","","","","","","","","","","","","","","","","","","","","","","","","","","","","","","","",""
"","bandit","39","220329","0.0-20.0-0.0","50300033","wem/bandit_party_1","A2W8ZODKKQ7RYP","either","4","3256","","","","","","","1","0","0","1","0","","","","","0","1","","","1","0","","","","","","","","","","","","74","J","0","img/none_selected_demo.jpg","true","0","",""
"","text-replacement","40","223613","0.0-21.0","50300033","wem/bandit_party_1","A2W8ZODKKQ7RYP","either","4","3275","","","32","","","","","","","","","","","","","","","","","","","","","","","","","","","","","","","","","","","","",""
"","text-replacement","41","226557","0.0-22.0","50300033","wem/bandit_party_1","A2W8ZODKKQ7RYP","either","4","2939","","","32","","","","","","","","","","","","","","","","","","","","","","","","","","","","","","","","","","","","",""
"","text-replacement","42","228781","0.0-23.0","50300033","wem/bandit_party_1","A2W8ZODKKQ7RYP","either","4","2219","","","32","","","","","","","","","","","","","","","","","","","","","","","","","","","","","","","","","","","","",""
"","text-replacement","43","231150","0.0-24.0","50300033","wem/bandit_party_1","A2W8ZODKKQ7RYP","either","4","2365","","","32","","","","","","","","","","","","","","","","","","","","","","","","","","","","","","","","","","","","",""
"","text-replacement","44","233636","0.0-25.0","50300033","wem/bandit_party_1","A2W8ZODKKQ7RYP","either","4","2482","","","32","","","","","","","","","","","","","","","","","","","","","","","","","","","","","","","","","","","","",""
"","text-replacement","45","237996","0.0-26.0","50300033","wem/bandit_party_1","A2W8ZODKKQ7RYP","either","4","4355","","","32","","","","","","","","","","","","","","","","","","","","","","","","","","","","","","","","","","","","",""
"","text-replacement","46","240845","0.0-27.0","50300033","wem/bandit_party_1","A2W8ZODKKQ7RYP","either","4","2844","","","32","","","","","","","","","","","","","","","","","","","","","","","","","","","","","","","","","","","","",""
"","text-replacement","47","244532","0.0-28.0","50300033","wem/bandit_party_1","A2W8ZODKKQ7RYP","either","4","3682","","","32","","","","","","","","","","","","","","","","","","","","","","","","","","","","","","","","","","","","",""
"","text-replacement","48","248501","0.0-29.0","50300033","wem/bandit_party_1","A2W8ZODKKQ7RYP","either","4","3965","","","32","","","","","","","","","","","","","","","","","","","","","","","","","","","","","","","","","","","","",""
"","text-replacement","49","250980","0.0-30.0","50300033","wem/bandit_party_1","A2W8ZODKKQ7RYP","either","4","2475","","","32","","","","","","","","","","","","","","","","","","","","","","","","","","","","","","","","","","","","",""
"","text-replacement","50","257774","0.0-31.0","50300033","wem/bandit_party_1","A2W8ZODKKQ7RYP","either","4","6789","","","32","","","","","","","","","","","","","","","","","","","","","","","","","","","","","","","","","","","","",""
"","bandit","51","260077","0.0-32.0-0.0","50300033","wem/bandit_party_1","A2W8ZODKKQ7RYP","either","4","783","","","","","","","0","0","1","0.8","","0.5","0.5","0.5","0.5","","","","","0.8","0.2","0.6","0.2","","","","","","","","","","72","H","0","img/none_selected.jpg","true","0","full_practice",""
"","bandit","52","262164","0.0-32.0-1.0","50300033","wem/bandit_party_1","A2W8ZODKKQ7RYP","either","4","564","","","","","","","0","0","1","0.2","","0.5","0.5","0.5","0.5","","","","","0.8","0.2","0.6","0.2","","","","","","","","","","74","J","1","","true","0","full_practice",""
"","bandit","53","264045","0.0-32.0-2.0","50300033","wem/bandit_party_1","A2W8ZODKKQ7RYP","either","4","367","","","","","","","0","1","0","","0.6","0.5","0.5","0.5","0.5","0.8","0.2","0.6","0.2","","","","","","","","","","","","","","75","K","2","","true","0","full_practice",""
"","bandit","54","265991","0.0-32.0-3.0","50300033","wem/bandit_party_1","A2W8ZODKKQ7RYP","either","4","402","","","","","","","0","0","1","","0.2","0.5","0.5","0.5","0.5","0.8","0.2","0.6","0.2","","","","","","","","","","","","","","76","L","3","","true","0","full_practice",""
"","bandit","55","267784","0.0-32.0-4.0","50300033","wem/bandit_party_1","A2W8ZODKKQ7RYP","either","4","271","","","","","","","0","1","0","","0.6","0.5","0.5","0.5","0.5","0.8","0.2","0.6","0.2","","","","","","","","","","","","","","75","K","2","","true","0","full_practice",""
"","bandit","56","269602","0.0-32.0-5.0","50300033","wem/bandit_party_1","A2W8ZODKKQ7RYP","either","4","297","","","","","","","0","1","0","","0.6","0.5","0.5","0.5","0.5","0.8","0.2","0.6","0.2","","","","","","","","","","","","","","75","K","2","","true","0","full_practice",""
"","bandit","57","271494","0.0-32.0-6.0","50300033","wem/bandit_party_1","A2W8ZODKKQ7RYP","either","4","372","","","","","","","0","1","0","","0.6","0.5","0.5","0.5","0.5","0.8","0.2","0.6","0.2","","","","","","","","","","","","","","75","K","2","","true","0","full_practice",""
"","bandit","58","273455","0.0-32.0-7.0","50300033","wem/bandit_party_1","A2W8ZODKKQ7RYP","either","4","445","","","","","","","1","0","0","0.6","","0.5","0.5","0.5","0.5","","","","","0.8","0.2","0.6","0.2","","","","","","","","","","75","K","2","","true","0","full_practice",""
"","bandit","59","275383","0.0-32.0-8.0","50300033","wem/bandit_party_1","A2W8ZODKKQ7RYP","either","4","407","","","","","","","0","0","1","","0.2","0.5","0.5","0.5","0.5","0.8","0.2","0.6","0.2","","","","","","","","","","","","","","76","L","3","","true","0","full_practice",""
"","bandit","60","277736","0.0-32.0-9.0","50300033","wem/bandit_party_1","A2W8ZODKKQ7RYP","either","4","831","","","","","","","0","0","1","","0.2","0.5","0.5","0.5","0.5","0.8","0.2","0.6","0.2","","","","","","","","","","","","","","74","J","1","","true","0","full_practice",""
"","bandit","61","279665","0.0-32.0-10.0","50300033","wem/bandit_party_1","A2W8ZODKKQ7RYP","either","4","408","","","","","","","0","1","0","","0.8","0.5","0.5","0.5","0.5","0.8","0.2","0.6","0.2","","","","","","","","","","","","","","72","H","0","img/none_selected.jpg","true","0","full_practice",""
"","bandit","62","281646","0.0-32.0-11.0","50300033","wem/bandit_party_1","A2W8ZODKKQ7RYP","either","4","456","","","","","","","1","0","0","0.8","","0.5","0.5","0.5","0.5","","","","","0.8","0.2","0.6","0.2","","","","","","","","","","72","H","0","img/none_selected.jpg","true","0","full_practice",""
"","bandit","63","283198","0.0-32.0-12.0","50300033","wem/bandit_party_1","A2W8ZODKKQ7RYP","either","4","36","","","","","","","0","1","0","","0.8","0.5","0.5","0.5","0.5","0.8","0.2","0.6","0.2","","","","","","","","","","","","","","72","H","0","img/none_selected.jpg","true","0","full_practice",""
"","bandit","64","286118","0.0-32.0-13.0","50300033","wem/bandit_party_1","A2W8ZODKKQ7RYP","either","4","1399","","","","","","","1","0","0","0.8","","0.5","0.5","0.5","0.5","","","","","0.8","0.2","0.6","0.2","","","","","","","","","","72","H","0","img/none_selected.jpg","true","0","full_practice",""
"","bandit","65","288599","0.0-32.0-14.0","50300033","wem/bandit_party_1","A2W8ZODKKQ7RYP","either","4","967","","","","","","","0","0","1","","0.2","0.5","0.5","0.5","0.5","0.8","0.2","0.6","0.2","","","","","","","","","","","","","","76","L","3","","true","0","full_practice",""
"","bandit","66","290490","0.0-32.0-15.0","50300033","wem/bandit_party_1","A2W8ZODKKQ7RYP","either","4","368","","","","","","","0","0","1","","0.6","0.5","0.5","0.5","0.5","0.8","0.2","0.6","0.2","","","","","","","","","","","","","","75","K","2","","true","0","full_practice",""
"","bandit","67","292015","0.0-32.0-16.0","50300033","wem/bandit_party_1","A2W8ZODKKQ7RYP","either","4","3","","","","","","","0","1","0","","0.8","0.5","0.5","0.5","0.5","0.8","0.2","0.6","0.2","","","","","","","","","","","","","","72","H","0","img/none_selected.jpg","true","0","full_practice",""
"","bandit","68","293863","0.0-32.0-17.0","50300033","wem/bandit_party_1","A2W8ZODKKQ7RYP","either","4","326","","","","","","","0","0","1","","0.8","0.5","0.5","0.5","0.5","0.8","0.2","0.6","0.2","","","","","","","","","","","","","","72","H","0","img/none_selected.jpg","true","0","full_practice",""
"","bandit","69","295848","0.0-32.0-18.0","50300033","wem/bandit_party_1","A2W8ZODKKQ7RYP","either","4","463","","","","","","","0","1","0","","0.8","0.5","0.5","0.5","0.5","0.8","0.2","0.6","0.2","","","","","","","","","","","","","","72","H","0","img/none_selected.jpg","true","0","full_practice",""
"","bandit","70","297691","0.0-32.0-19.0","50300033","wem/bandit_party_1","A2W8ZODKKQ7RYP","either","4","316","","","","","","","0","1","0","","0.6","0.5","0.5","0.5","0.5","0.8","0.2","0.6","0.2","","","","","","","","","","","","","","75","K","2","","true","0","full_practice",""
"","text","71","300679","0.0-33.0","50300033","wem/bandit_party_1","A2W8ZODKKQ7RYP","either","4","2933","","","32","","","","","","","","","","","","","","","","","","","","","","","","","","","","","","","","","","","","",""
"","text-replacement","72","314432","0.0-34.0","50300033","wem/bandit_party_1","A2W8ZODKKQ7RYP","either","4","12744","","","32","","","","","","","","","","","","","","","","","","","","","","","","","","","","","","","","","","","","",""
"","text-replacement","73","325718","0.0-35.0","50300033","wem/bandit_party_1","A2W8ZODKKQ7RYP","either","4","11280","","","32","","","","","","","","","","","","","","","","","","","","","","","","","","","","","","","","","","","","",""
"","text-replacement","74","329485","0.0-36.0","50300033","wem/bandit_party_1","A2W8ZODKKQ7RYP","either","4","3761","","","32","","","","","","","","","","","","","","","","","","","","","","","","","","","","","","","","","","","","",""
"","text-replacement","75","332045","0.0-37.0","50300033","wem/bandit_party_1","A2W8ZODKKQ7RYP","either","4","2553","","","32","","","","","","","","","","","","","","","","","","","","","","","","","","","","","","","","","","","","",""
"","text-replacement","76","334381","0.0-38.0","50300033","wem/bandit_party_1","A2W8ZODKKQ7RYP","either","4","2328","","","32","","","","","","","","","","","","","","","","","","","","","","","","","","","","","","","","","","","","",""
"","survey-multi-choice-replacement","77","340971","0.0-39.0-0.0","50300033","wem/bandit_party_1","A2W8ZODKKQ7RYP","either","4","6566","","","","","","","","","","","","","","","","","","","","","","","","Money will be added to the pool for <span style='color:red;'>REPUBLICANS</span>","","","","","","","attn_check","","","","","","","","","0"
"","survey-multi-choice-replacement","78","348171","0.0-40.0-0.0","50300033","wem/bandit_party_1","A2W8ZODKKQ7RYP","either","4","6174","","","","","","","","","","","","","","","","","","","","","","","","Equal amounts of money will be added to the pool for <span style='color:red;'>REPUBLICANS</span> and subtracted from the pool for <span style='color:blue;'>DEMOCRATS</span>","","","","","","","attn_check","","","","","","","","","2"
"","survey-multi-choice-replacement","79","352538","0.0-41.0-0.0","50300033","wem/bandit_party_1","A2W8ZODKKQ7RYP","either","4","3345","","","","","","","","","","","","","","","","","","","","","","","","No money will be added to either pool","","","","","","","attn_check","","","","","","","","","3"
"","bandit","80","359197","0.0-42.0-0.0","50300033","wem/bandit_party_1","A2W8ZODKKQ7RYP","either","4","4130","","","","","","","0","0","1","","0.2771551185","0.6","0.8","0.4","0.2","0.2771551185","0.3525715257","0.3242650943","0.3894728165","","","","","","","","","","","","","","72","H","0","img/none_selected.jpg","","1","main_expt",""
"","bandit","81","361236","0.0-43.0-0.0","50300033","wem/bandit_party_1","A2W8ZODKKQ7RYP","either","4","523","","","","","","","1","0","0","0.390153736","","0.6","0.8","0.4","0.2","","","","","0.3030893157","0.390153736","0.3296228245","0.363660736","","","","","","","","","","74","J","1","","","2","main_expt",""
"","bandit","82","362763","0.0-44.0-0.0","50300033","wem/bandit_party_1","A2W8ZODKKQ7RYP","either","4","2","","","","","","","0","0","1","0.3102780753","","0.6","0.8","0.4","0.2","","","","","0.3211059343","0.3725447061","0.3102780753","0.3842171554","","","","","","","","","","75","K","2","","","3","main_expt",""
"","bandit","83","364737","0.0-45.0-0.0","50300033","wem/bandit_party_1","A2W8ZODKKQ7RYP","either","4","449","","","","","","","0","0","1","0.3831963053","","0.6","0.8","0.4","0.2","","","","","0.2804386453","0.3431524481","0.2749892112","0.3831963053","","","","","","","","","","76","L","3","","","4","main_expt",""
"","bandit","84","366368","0.0-46.0-0.0","50300033","wem/bandit_party_1","A2W8ZODKKQ7RYP","either","4","107","","","","","","","1","0","0","0.3037824898","","0.6","0.8","0.4","0.2","","","","","0.2609559086","0.3448007793","0.3037824898","0.4056596471","","","","","","","","","","75","K","2","","","5","main_expt",""
"","bandit","85","368320","0.0-47.0-0.0","50300033","wem/bandit_party_1","A2W8ZODKKQ7RYP","either","4","426","","","","","","","0","0","1","","0.2259287768","0.6","0.8","0.4","0.2","0.2259287768","0.3980888019","0.3217417103","0.4409946319","","","","","","","","","","","","","","72","H","0","img/none_selected.jpg","","6","main_expt",""
"","bandit","86","369959","0.0-48.0-0.0","50300033","wem/bandit_party_1","A2W8ZODKKQ7RYP","either","4","116","","","","","","","0","0","1","0.3693121862","","0.6","0.8","0.4","0.2","","","","","0.2433618728","0.3693121862","0.3018715163","0.3821747998","","","","","","","","","","74","J","1","","","7","main_expt",""
"","bandit","87","371587","0.0-49.0-0.0","50300033","wem/bandit_party_1","A2W8ZODKKQ7RYP","either","4","87","","","","","","","0","0","1","0.3643645816","","0.6","0.8","0.4","0.2","","","","","0.2025356769","0.2933697555","0.3643645816","0.3841844813","","","","","","","","","","75","K","2","","","8","main_expt",""
"","bandit","88","373176","0.0-50.0-0.0","50300033","wem/bandit_party_1","A2W8ZODKKQ7RYP","either","4","82","","","","","","","0","0","1","0.3412237964","","0.6","0.8","0.4","0.2","","","","","0.1441028094","0.3036212831","0.3418610374","0.3412237964","","","","","","","","","","76","L","3","","","9","main_expt",""
"","bandit","89","375002","0.0-51.0-0.0","50300033","wem/bandit_party_1","A2W8ZODKKQ7RYP","either","4","297","","","","","","","0","0","1","","0.3256420777","0.6","0.8","0.4","0.2","0.1736005971","0.308020301","0.3190157878","0.3256420777","","","","","","","","","","","","","","76","L","3","","","10","main_expt",""
"","bandit","90","376833","0.0-52.0-0.0","50300033","wem/bandit_party_1","A2W8ZODKKQ7RYP","either","4","323","","","","","","","1","0","0","0.2998731478","","0.6","0.8","0.4","0.2","","","","","0.1836365694","0.3065973113","0.2998731478","0.3514007431","","","","","","","","","","75","K","2","","","11","main_expt",""
"","bandit","91","378953","0.0-53.0-0.0","50300033","wem/bandit_party_1","A2W8ZODKKQ7RYP","either","4","612","","","","","","","0","0","1","","0.3271859636","0.6","0.8","0.4","0.2","0.2143869662","0.3271859636","0.2942822571","0.3722032088","","","","","","","","","","","","","","74","J","1","","","12","main_expt",""
"","bandit","92","380843","0.0-54.0-0.0","50300033","wem/bandit_party_1","A2W8ZODKKQ7RYP","either","4","380","","","","","","","1","0","0","0.1637139448","","0.6","0.8","0.4","0.2","","","","","0.1637139448","0.2761076709","0.3009212619","0.3681707299","","","","","","","","","","72","H","0","img/none_selected.jpg","","13","main_expt",""
"","bandit","93","382564","0.0-55.0-0.0","50300033","wem/bandit_party_1","A2W8ZODKKQ7RYP","either","4","213","","","","","","","0","0","1","","0.3227424667","0.6","0.8","0.4","0.2","0.1488535162","0.2311164494","0.3227424667","0.3528222564","","","","","","","","","","","","","","75","K","2","","","14","main_expt",""
"","bandit","94","384521","0.0-56.0-0.0","50300033","wem/bandit_party_1","A2W8ZODKKQ7RYP","either","4","419","","","","","","","0","0","1","","0.1332411271","0.6","0.8","0.4","0.2","0.1332411271","0.2905977425","0.3547546862","0.3738838661","","","","","","","","","","","","","","72","H","0","img/none_selected.jpg","","15","main_expt",""
"","bandit","95","387034","0.0-57.0-0.0","50300033","wem/bandit_party_1","A2W8ZODKKQ7RYP","either","4","1007","","","","","","","0","0","1","","0.09882415698","0.6","0.8","0.4","0.2","0.09882415698","0.2924554969","0.3241157583","0.3385239332","","","","","","","","","","","","","","72","H","0","img/none_selected.jpg","","16","main_expt",""
"","bandit","96","390194","0.0-58.0-0.0","50300033","wem/bandit_party_1","A2W8ZODKKQ7RYP","either","4","1651","","","","","","","0","0","1","","0.3363410386","0.6","0.8","0.4","0.2","0.1069157009","0.3114836302","0.3363410386","0.3111355138","","","","","","","","","","","","","","75","K","2","","","17","main_expt",""
"","bandit","97","391865","0.0-59.0-0.0","50300033","wem/bandit_party_1","A2W8ZODKKQ7RYP","either","4","163","","","","","","","0","0","1","0.3215333475","","0.6","0.8","0.4","0.2","","","","","0.134958137","0.3215333475","0.3880947854","0.3487767647","","","","","","","","","","74","J","1","","","18","main_expt",""
"","bandit","98","394890","0.0-60.0-0.0","50300033","wem/bandit_party_1","A2W8ZODKKQ7RYP","either","4","1516","","","","","","","0","0","1","","0.3010303499","0.6","0.8","0.4","0.2","0.1230418706","0.2733398822","0.4116912081","0.3010303499","","","","","","","","","","","","","","76","L","3","","","19","main_expt",""
"","bandit","99","396416","0.0-61.0-0.0","50300033","wem/bandit_party_1","A2W8ZODKKQ7RYP","either","4","0","","","","","","","0","0","1","","0.3973894305","0.6","0.8","0.4","0.2","0.09866604889","0.2351410235","0.3973894305","0.2907203997","","","","","","","","","","","","","","75","K","2","","","20","main_expt",""
"","bandit","100","398013","0.0-62.0-0.0","50300033","wem/bandit_party_1","A2W8ZODKKQ7RYP","either","4","74","","","","","","","0","0","1","0.2257810982","","0.6","0.8","0.4","0.2","","","","","0.1021222834","0.2257810982","0.369037109","0.3088108907","","","","","","","","","","74","J","1","","","21","main_expt",""
"","bandit","101","400268","0.0-63.0-0.0","50300033","wem/bandit_party_1","A2W8ZODKKQ7RYP","either","4","740","","","","","","","0","0","1","0.1234138809","","0.6","0.8","0.4","0.2","","","","","0.1234138809","0.2221856846","0.4179468344","0.349202701","","","","","","","","","","72","H","0","img/none_selected.jpg","","22","main_expt",""
"","bandit","102","404512","0.0-64.0-0.0","50300033","wem/bandit_party_1","A2W8ZODKKQ7RYP","either","4","2738","","","","","","","1","0","0","0.1030640584","","0.6","0.8","0.4","0.2","","","","","0.1030640584","0.2127124712","0.4276062926","0.3785068464","","","","","","","","","","72","H","0","img/none_selected.jpg","","23","main_expt",""
"","bandit","103","406744","0.0-65.0-0.0","50300033","wem/bandit_party_1","A2W8ZODKKQ7RYP","either","4","718","","","","","","","0","0","1","0.1882566648","","0.6","0.8","0.4","0.2","","","","","0.1261035851","0.1882566648","0.4078122208","0.4012919653","","","","","","","","","","74","J","1","","","24","main_expt",""
"","bandit","104","408703","0.0-66.0-0.0","50300033","wem/bandit_party_1","A2W8ZODKKQ7RYP","either","4","434","","","","","","","0","0","1","0.1796705612","","0.6","0.8","0.4","0.2","","","","","0.1796705612","0.1273223766","0.3950411191","0.400899794","","","","","","","","","","72","H","0","img/none_selected.jpg","","25","main_expt",""
"","bandit","105","410603","0.0-67.0-0.0","50300033","wem/bandit_party_1","A2W8ZODKKQ7RYP","either","4","392","","","","","","","0","0","1","0.2414651519","","0.6","0.8","0.4","0.2","","","","","0.2414651519","0.15747458","0.4322303329","0.4126274585","","","","","","","","","","72","H","0","img/none_selected.jpg","","26","main_expt",""
"","bandit","106","412932","0.0-68.0-0.0","50300033","wem/bandit_party_1","A2W8ZODKKQ7RYP","either","4","820","","","","","","","0","0","1","0.1442684908","","0.6","0.8","0.4","0.2","","","","","0.2005374927","0.1442684908","0.4353643722","0.3992263875","","","","","","","","","","74","J","1","","","27","main_expt",""
"","bandit","107","414905","0.0-69.0-0.0","50300033","wem/bandit_party_1","A2W8ZODKKQ7RYP","either","4","464","","","","","","","0","0","1","","0.4464017809","0.6","0.8","0.4","0.2","0.3197257227","0.2255404594","0.4464017809","0.3846584236","","","","","","","","","","","","","","75","K","2","","","28","main_expt",""
"","bandit","108","416946","0.0-70.0-0.0","50300033","wem/bandit_party_1","A2W8ZODKKQ7RYP","either","4","532","","","","","","","0","0","1","","0.3561298134","0.6","0.8","0.4","0.2","0.3141869899","0.2730951691","0.4417109462","0.3561298134","","","","","","","","","","","","","","76","L","3","","","29","main_expt",""
"","bandit","109","419226","0.0-71.0-0.0","50300033","wem/bandit_party_1","A2W8ZODKKQ7RYP","either","4","738","","","","","","","0","0","1","","0.4065908859","0.6","0.8","0.4","0.2","0.3445991012","0.2890412698","0.4065908859","0.3101363315","","","","","","","","","","","","","","75","K","2","","","30","main_expt",""
"","bandit","110","421117","0.0-72.0-0.0","50300033","wem/bandit_party_1","A2W8ZODKKQ7RYP","either","4","349","","","","","","","0","1","0","","0.3322219809","0.6","0.8","0.4","0.2","0.3456655029","0.3309226042","0.3954582793","0.3322219809","","","","","","","","","","","","","","76","L","3","","","31","main_expt",""
"","bandit","111","422752","0.0-73.0-0.0","50300033","wem/bandit_party_1","A2W8ZODKKQ7RYP","either","4","115","","","","","","","0","0","1","","0.3516269472","0.6","0.8","0.4","0.2","0.3826172224","0.3519301717","0.3716723047","0.3516269472","","","","","","","","","","","","","","76","L","3","","","32","main_expt",""
"","bandit","112","424608","0.0-74.0-0.0","50300033","wem/bandit_party_1","A2W8ZODKKQ7RYP","either","4","343","","","","","","","0","1","0","","0.3852085553","0.6","0.8","0.4","0.2","0.3804083149","0.3414953842","0.3799724366","0.3852085553","","","","","","","","","","","","","","76","L","3","","","33","main_expt",""
"","bandit","113","426253","0.0-75.0-0.0","50300033","wem/bandit_party_1","A2W8ZODKKQ7RYP","either","4","73","","","","","","","0","0","1","","0.4196644934","0.6","0.8","0.4","0.2","0.3808178469","0.2938412915","0.409480615","0.4196644934","","","","","","","","","","","","","","76","L","3","","","34","main_expt",""
"","bandit","114","429998","0.0-76.0-0.0","50300033","wem/bandit_party_1","A2W8ZODKKQ7RYP","either","4","2232","","","","","","","0","1","0","","0.420891004","0.6","0.8","0.4","0.2","0.376129724","0.2256616696","0.3869649509","0.420891004","","","","","","","","","","","","","","76","L","3","","","35","main_expt",""
"","bandit","115","431806","0.0-77.0-0.0","50300033","wem/bandit_party_1","A2W8ZODKKQ7RYP","either","4","275","","","","","","","0","0","1","","0.3808881167","0.6","0.8","0.4","0.2","0.4027809904","0.2525957923","0.3045389962","0.3808881167","","","","","","","","","","","","","","76","L","3","","","36","main_expt",""
"","bandit","116","433730","0.0-78.0-0.0","50300033","wem/bandit_party_1","A2W8ZODKKQ7RYP","either","4","410","","","","","","","0","1","0","","0.3634360393","0.6","0.8","0.4","0.2","0.3715556026","0.2333373749","0.2954217214","0.3634360393","","","","","","","","","","","","","","76","L","3","","","37","main_expt",""
"","bandit","117","435285","0.0-79.0-0.0","50300033","wem/bandit_party_1","A2W8ZODKKQ7RYP","either","4","42","","","","","","","0","0","1","","0.3432691328","0.6","0.8","0.4","0.2","0.354842885","0.2126884676","0.2749906923","0.3432691328","","","","","","","","","","","","","","76","L","3","","","38","main_expt",""
"","bandit","118","438102","0.0-80.0-0.0","50300033","wem/bandit_party_1","A2W8ZODKKQ7RYP","either","4","1292","","","","","","","0","0","1","","0.3113322025","0.6","0.8","0.4","0.2","0.3066825603","0.212498526","0.2911873598","0.3113322025","","","","","","","","","","","","","","76","L","3","","","39","main_expt",""
"","bandit","119","439936","0.0-81.0-0.0","50300033","wem/bandit_party_1","A2W8ZODKKQ7RYP","either","4","319","","","","","","","0","1","0","","0.3298138996","0.6","0.8","0.4","0.2","0.3208648015","0.2031275136","0.3066149412","0.3298138996","","","","","","","","","","","","","","76","L","3","","","40","main_expt",""
"","bandit","120","441905","0.0-82.0-0.0","50300033","wem/bandit_party_1","A2W8ZODKKQ7RYP","either","4","436","","","","","","","0","0","1","0.3590557929","","0.6","0.8","0.4","0.2","","","","","0.2774570704","0.2409224204","0.2612722093","0.3590557929","","","","","","","","","","76","L","3","","","41","main_expt",""
"","bandit","121","443532","0.0-83.0-0.0","50300033","wem/bandit_party_1","A2W8ZODKKQ7RYP","either","4","95","","","","","","","1","0","0","0.3455434044","","0.6","0.8","0.4","0.2","","","","","0.3092882543","0.2166695961","0.2579482203","0.3455434044","","","","","","","","","","76","L","3","","","42","main_expt",""
"","bandit","122","445188","0.0-84.0-0.0","50300033","wem/bandit_party_1","A2W8ZODKKQ7RYP","either","4","131","","","","","","","0","0","1","","0.4020043176","0.6","0.8","0.4","0.2","0.3161251671","0.2314197793","0.2232302517","0.4020043176","","","","","","","","","","","","","","76","L","3","","","43","main_expt",""
"","bandit","123","447217","0.0-85.0-0.0","50300033","wem/bandit_party_1","A2W8ZODKKQ7RYP","either","4","508","","","","","","","0","0","1","","0.4088695108","0.6","0.8","0.4","0.2","0.3032549762","0.1889371852","0.2435669349","0.4088695108","","","","","","","","","","","","","","76","L","3","","","44","main_expt",""
"","bandit","124","449927","0.0-86.0-0.0","50300033","wem/bandit_party_1","A2W8ZODKKQ7RYP","either","4","1186","","","","","","","0","0","1","","0.1885724617","0.6","0.8","0.4","0.2","0.3012359134","0.2152104473","0.1885724617","0.3914045207","","","","","","","","","","","","","","75","K","2","","","45","main_expt",""
"","bandit","125","451498","0.0-87.0-0.0","50300033","wem/bandit_party_1","A2W8ZODKKQ7RYP","either","4","49","","","","","","","0","0","1","0.2260726972","","0.6","0.8","0.4","0.2","","","","","0.2994346937","0.2260726972","0.104230756","0.3682142312","","","","","","","","","","74","J","1","","","46","main_expt",""
"","bandit","126","453272","0.0-88.0-0.0","50300033","wem/bandit_party_1","A2W8ZODKKQ7RYP","either","4","248","","","","","","","0","0","1","","0.3169549043","0.6","0.8","0.4","0.2","0.3169549043","0.2330399618","0.09013225529","0.3462276735","","","","","","","","","","","","","","72","H","0","img/none_selected.jpg","","47","main_expt",""
"","bandit","127","456112","0.0-89.0-0.0","50300033","wem/bandit_party_1","A2W8ZODKKQ7RYP","either","4","1321","","","","","","","0","1","0","","0.3137179834","0.6","0.8","0.4","0.2","0.3137179834","0.2769685944","0.1066227192","0.3501405617","","","","","","","","","","","","","","72","H","0","img/none_selected.jpg","","48","main_expt",""
"","bandit","128","457967","0.0-90.0-0.0","50300033","wem/bandit_party_1","A2W8ZODKKQ7RYP","either","4","326","","","","","","","0","0","1","0.3026837323","","0.6","0.8","0.4","0.2","","","","","0.3026837323","0.2954986192","0.1273062614","0.3607669766","","","","","","","","","","72","H","0","img/none_selected.jpg","","49","main_expt",""
"","bandit","129","459960","0.0-91.0-0.0","50300033","wem/bandit_party_1","A2W8ZODKKQ7RYP","either","4","466","","","","","","","0","0","1","","0.2690248343","0.6","0.8","0.4","0.2","0.2690248343","0.2730110453","0.08158159543","0.3776327681","","","","","","","","","","","","","","72","H","0","img/none_selected.jpg","","50","main_expt",""
"","bandit","130","461683","0.0-92.0-0.0","50300033","wem/bandit_party_1","A2W8ZODKKQ7RYP","either","4","187","","","","","","","0","1","0","","0.2407215714","0.6","0.8","0.4","0.2","0.2407215714","0.2672659715","0.08035098666","0.3922012959","","","","","","","","","","","","","","72","H","0","img/none_selected.jpg","","51","main_expt",""
"","bandit","131","463791","0.0-93.0-0.0","50300033","wem/bandit_party_1","A2W8ZODKKQ7RYP","either","4","582","","","","","","","0","0","1","","0.2758158767","0.6","0.8","0.4","0.2","0.2758158767","0.2552972095","0.1007468434","0.3532085343","","","","","","","","","","","","","","72","H","0","img/none_selected.jpg","","52","main_expt",""
"","bandit","132","465514","0.0-94.0-0.0","50300033","wem/bandit_party_1","A2W8ZODKKQ7RYP","either","4","169","","","","","","","0","0","1","","0.2661511239","0.6","0.8","0.4","0.2","0.2661511239","0.1954439593","0.1479770317","0.3597378762","","","","","","","","","","","","","","72","H","0","img/none_selected.jpg","","53","main_expt",""
"","bandit","133","467710","0.0-95.0-0.0","50300033","wem/bandit_party_1","A2W8ZODKKQ7RYP","either","4","671","","","","","","","0","0","1","","0.3553644404","0.6","0.8","0.4","0.2","0.250303373","0.1250298759","0.1450389045","0.3553644404","","","","","","","","","","","","","","76","L","3","","","54","main_expt",""
"","bandit","134","469792","0.0-96.0-0.0","50300033","wem/bandit_party_1","A2W8ZODKKQ7RYP","either","4","563","","","","","","","1","0","0","0.1850572083","","0.6","0.8","0.4","0.2","","","","","0.1850572083","0.1224949652","0.1678096349","0.3427354451","","","","","","","","","","72","H","0","img/none_selected.jpg","","55","main_expt",""
"","bandit","135","471674","0.0-97.0-0.0","50300033","wem/bandit_party_1","A2W8ZODKKQ7RYP","either","4","353","","","","","","","0","0","1","0.2410157884","","0.6","0.8","0.4","0.2","","","","","0.2410157884","0.1312048923","0.1748395718","0.3158877586","","","","","","","","","","72","H","0","img/none_selected.jpg","","56","main_expt",""
"","bandit","136","474061","0.0-98.0-0.0","50300033","wem/bandit_party_1","A2W8ZODKKQ7RYP","either","4","868","","","","","","","0","1","0","","0.146986137","0.6","0.8","0.4","0.2","0.2657224069","0.14452077","0.146986137","0.3224611445","","","","","","","","","","","","","","75","K","2","","","57","main_expt",""
"","bandit","137","476047","0.0-99.0-0.0","50300033","wem/bandit_party_1","A2W8ZODKKQ7RYP","either","4","467","","","","","","","0","0","1","","0.1316135006","0.6","0.8","0.4","0.2","0.2361308133","0.1198415177","0.1316135006","0.3378672788","","","","","","","","","","","","","","75","K","2","","","58","main_expt",""
"","bandit","138","477630","0.0-100.0-0.0","50300033","wem/bandit_party_1","A2W8ZODKKQ7RYP","either","4","56","","","","","","","0","0","1","0.2078360154","","0.6","0.8","0.4","0.2","","","","","0.2078360154","0.1674914914","0.1776120447","0.3438075972","","","","","","","","","","72","H","0","img/none_selected.jpg","","59","main_expt",""
"","bandit","139","479190","0.0-101.0-0.0","50300033","wem/bandit_party_1","A2W8ZODKKQ7RYP","either","4","32","","","","","","","0","1","0","","0.2034864675","0.6","0.8","0.4","0.2","0.2256957235","0.147959707","0.2034864675","0.2950987239","","","","","","","","","","","","","","75","K","2","","","60","main_expt",""
"","bandit","140","481034","0.0-102.0-0.0","50300033","wem/bandit_party_1","A2W8ZODKKQ7RYP","either","4","314","","","","","","","0","0","1","","0.1325668513","0.6","0.8","0.4","0.2","0.2713547376","0.1217284172","0.1325668513","0.2939622289","","","","","","","","","","","","","","75","K","2","","","61","main_expt",""
"","bandit","141","482831","0.0-103.0-0.0","50300033","wem/bandit_party_1","A2W8ZODKKQ7RYP","either","4","272","","","","","","","1","0","0","0.125492747","","0.6","0.8","0.4","0.2","","","","","0.2800078023","0.1392905859","0.125492747","0.2907096119","","","","","","","","","","75","K","2","","","62","main_expt",""
"","bandit","142","484592","0.0-104.0-0.0","50300033","wem/bandit_party_1","A2W8ZODKKQ7RYP","either","4","234","","","","","","","0","0","1","0.1081989139","","0.6","0.8","0.4","0.2","","","","","0.362183352","0.1953314019","0.1081989139","0.2696382907","","","","","","","","","","75","K","2","","","63","main_expt",""
"","bandit","143","486471","0.0-105.0-0.0","50300033","wem/bandit_party_1","A2W8ZODKKQ7RYP","either","4","366","","","","","","","0","0","1","","0.09104284411","0.6","0.8","0.4","0.2","0.3354395381","0.2618523415","0.09104284411","0.2496415039","","","","","","","","","","","","","","75","K","2","","","64","main_expt",""
"","bandit","144","488423","0.0-106.0-0.0","50300033","wem/bandit_party_1","A2W8ZODKKQ7RYP","either","4","400","","","","","","","0","0","1","0.1264903162","","0.6","0.8","0.4","0.2","","","","","0.2893845237","0.2686672798","0.1264903162","0.2364994079","","","","","","","","","","75","K","2","","","65","main_expt",""
"","bandit","145","490415","0.0-107.0-0.0","50300033","wem/bandit_party_1","A2W8ZODKKQ7RYP","either","4","457","","","","","","","0","0","1","0.2451656397","","0.6","0.8","0.4","0.2","","","","","0.2355717356","0.2451656397","0.1665937301","0.2541683514","","","","","","","","","","74","J","1","","","66","main_expt",""
"","bandit","146","492532","0.0-108.0-0.0","50300033","wem/bandit_party_1","A2W8ZODKKQ7RYP","either","4","567","","","","","","","0","0","1","","0.2445320338","0.6","0.8","0.4","0.2","0.2848755716","0.2445320338","0.1740025863","0.2985471382","","","","","","","","","","","","","","74","J","1","","","67","main_expt",""
"","bandit","147","494132","0.0-109.0-0.0","50300033","wem/bandit_party_1","A2W8ZODKKQ7RYP","either","4","89","","","","","","","0","0","1","0.2261158315","","0.6","0.8","0.4","0.2","","","","","0.3341158043","0.2261158315","0.2300011382","0.3391290389","","","","","","","","","","74","J","1","","","68","main_expt",""
"","bandit","148","496109","0.0-110.0-0.0","50300033","wem/bandit_party_1","A2W8ZODKKQ7RYP","either","4","457","","","","","","","0","0","1","0.1627286519","","0.6","0.8","0.4","0.2","","","","","0.3253412689","0.1627286519","0.1768594062","0.3114764975","","","","","","","","","","74","J","1","","","69","main_expt",""
"","bandit","149","498061","0.0-111.0-0.0","50300033","wem/bandit_party_1","A2W8ZODKKQ7RYP","either","4","421","","","","","","","1","0","0","0.3280915152","","0.6","0.8","0.4","0.2","","","","","0.3280915152","0.1301009224","0.1906145184","0.3056328376","","","","","","","","","","72","H","0","img/none_selected.jpg","","70","main_expt",""
"","bandit","150","499959","0.0-112.0-0.0","50300033","wem/bandit_party_1","A2W8ZODKKQ7RYP","either","4","371","","","","","","","1","0","0","0.3772643828","","0.6","0.8","0.4","0.2","","","","","0.3772643828","0.1356707761","0.1451664327","0.3445325487","","","","","","","","","","72","H","0","img/none_selected.jpg","","71","main_expt",""
"","bandit","151","501574","0.0-113.0-0.0","50300033","wem/bandit_party_1","A2W8ZODKKQ7RYP","either","4","88","","","","","","","1","0","0","0.4074174212","","0.6","0.8","0.4","0.2","","","","","0.4074174212","0.1045412551","0.1091447996","0.364612409","","","","","","","","","","72","H","0","img/none_selected.jpg","","72","main_expt",""
"","bandit","152","503583","0.0-114.0-0.0","50300033","wem/bandit_party_1","A2W8ZODKKQ7RYP","either","4","445","","","","","","","0","0","1","0.3736299767","","0.6","0.8","0.4","0.2","","","","","0.3736299767","0.0867882282","0.1248737042","0.4454774056","","","","","","","","","","72","H","0","img/none_selected.jpg","","73","main_expt",""
"","bandit","153","505599","0.0-115.0-0.0","50300033","wem/bandit_party_1","A2W8ZODKKQ7RYP","either","4","492","","","","","","","0","0","1","0.1018359722","","0.6","0.8","0.4","0.2","","","","","0.383211712","0.1018359722","0.1073746888","0.4492830973","","","","","","","","","","74","J","1","","","74","main_expt",""
"","bandit","154","507272","0.0-116.0-0.0","50300033","wem/bandit_party_1","A2W8ZODKKQ7RYP","either","4","154","","","","","","","0","0","1","0.1051395745","","0.6","0.8","0.4","0.2","","","","","0.3681962321","0.09443707336","0.1051395745","0.449321966","","","","","","","","","","75","K","2","","","75","main_expt",""
"","bandit","155","509336","0.0-117.0-0.0","50300033","wem/bandit_party_1","A2W8ZODKKQ7RYP","either","4","534","","","","","","","0","1","0","","0.4299726132","0.6","0.8","0.4","0.2","0.3574328021","0.08768691443","0.09171451076","0.4299726132","","","","","","","","","","","","","","76","L","3","","","76","main_expt",""
"","bandit","156","511215","0.0-118.0-0.0","50300033","wem/bandit_party_1","A2W8ZODKKQ7RYP","either","4","353","","","","","","","0","1","0","","0.4349340462","0.6","0.8","0.4","0.2","0.4041720962","0.07744448812","0.1256070833","0.4349340462","","","","","","","","","","","","","","76","L","3","","","77","main_expt",""
"","bandit","157","513206","0.0-119.0-0.0","50300033","wem/bandit_party_1","A2W8ZODKKQ7RYP","either","4","464","","","","","","","0","1","0","","0.4112950215","0.6","0.8","0.4","0.2","0.4000946746","0.05712631425","0.1398604905","0.4112950215","","","","","","","","","","","","","","76","L","3","","","78","main_expt",""
"","bandit","158","515439","0.0-120.0-0.0","50300033","wem/bandit_party_1","A2W8ZODKKQ7RYP","either","4","710","","","","","","","0","1","0","","0.4123046053","0.6","0.8","0.4","0.2","0.425248604","0.03981704588","0.1303191282","0.4123046053","","","","","","","","","","","","","","76","L","3","","","79","main_expt",""
"","bandit","159","517167","0.0-121.0-0.0","50300033","wem/bandit_party_1","A2W8ZODKKQ7RYP","either","4","200","","","","","","","0","0","1","0.4345430878","","0.6","0.8","0.4","0.2","","","","","0.4263383456","0.02961196177","0.1491340647","0.4345430878","","","","","","","","","","76","L","3","","","80","main_expt",""
"","bandit","160","519040","0.0-122.0-0.0","50300033","wem/bandit_party_1","A2W8ZODKKQ7RYP","either","4","346","","","","","","","1","0","0","0.4255274095","","0.6","0.8","0.4","0.2","","","","","0.4377411966","0.0408206899","0.1484119081","0.4255274095","","","","","","","","","","76","L","3","","","81","main_expt",""
"","bandit","161","520755","0.0-123.0-0.0","50300033","wem/bandit_party_1","A2W8ZODKKQ7RYP","either","4","143","","","","","","","0","0","1","0.4266934287","","0.6","0.8","0.4","0.2","","","","","0.4263216968","0.03491361241","0.135460029","0.4266934287","","","","","","","","","","76","L","3","","","82","main_expt",""
"","bandit","162","522656","0.0-124.0-0.0","50300033","wem/bandit_party_1","A2W8ZODKKQ7RYP","either","4","389","","","","","","","0","1","0","","0.4321646522","0.6","0.8","0.4","0.2","0.4536492548","0.01881925386","0.09497461961","0.4321646522","","","","","","","","","","","","","","76","L","3","","","83","main_expt",""
"","bandit","163","524622","0.0-125.0-0.0","50300033","wem/bandit_party_1","A2W8ZODKKQ7RYP","either","4","424","","","","","","","0","0","1","","0.43129245","0.6","0.8","0.4","0.2","0.4344769981","0.03441768066","0.0956585677","0.43129245","","","","","","","","","","","","","","76","L","3","","","84","main_expt",""
"","bandit","164","526552","0.0-126.0-0.0","50300033","wem/bandit_party_1","A2W8ZODKKQ7RYP","either","4","417","","","","","","","0","1","0","","0.4307495417","0.6","0.8","0.4","0.2","0.4167097255","0.04015732792","0.08427930603","0.4307495417","","","","","","","","","","","","","","76","L","3","","","85","main_expt",""
"","bandit","165","528496","0.0-127.0-0.0","50300033","wem/bandit_party_1","A2W8ZODKKQ7RYP","either","4","413","","","","","","","0","0","1","","0.4327415212","0.6","0.8","0.4","0.2","0.4215971904","0.0462821445","0.09540141202","0.4327415212","","","","","","","","","","","","","","76","L","3","","","86","main_expt",""
"","bandit","166","530423","0.0-128.0-0.0","50300033","wem/bandit_party_1","A2W8ZODKKQ7RYP","either","4","413","","","","","","","0","0","1","","0.4507305815","0.6","0.8","0.4","0.2","0.3962725568","0.07236867375","0.06504543429","0.4507305815","","","","","","","","","","","","","","76","L","3","","","87","main_expt",""
"","bandit","167","532534","0.0-129.0-0.0","50300033","wem/bandit_party_1","A2W8ZODKKQ7RYP","either","4","583","","","","","","","0","0","1","0.1132918069","","0.6","0.8","0.4","0.2","","","","","0.4038430626","0.1132918069","0.05894337134","0.4571393315","","","","","","","","","","74","J","1","","","88","main_expt",""
"","bandit","168","534593","0.0-130.0-0.0","50300033","wem/bandit_party_1","A2W8ZODKKQ7RYP","either","4","544","","","","","","","0","1","0","","0.4639779763","0.6","0.8","0.4","0.2","0.4247877058","0.1466354559","0.06803635399","0.4639779763","","","","","","","","","","","","","","76","L","3","","","89","main_expt",""
"","bandit","169","536655","0.0-131.0-0.0","50300033","wem/bandit_party_1","A2W8ZODKKQ7RYP","either","4","495","","","","","","","0","0","1","0.4620017245","","0.6","0.8","0.4","0.2","","","","","0.4196700557","0.1746819083","0.09657856289","0.4620017245","","","","","","","","","","76","L","3","","","90","main_expt",""
"","bandit","170","538592","0.0-132.0-0.0","50300033","wem/bandit_party_1","A2W8ZODKKQ7RYP","either","4","424","","","","","","","0","0","1","","0.401758082","0.6","0.8","0.4","0.2","0.401758082","0.1864657318","0.08522031428","0.4492963398","","","","","","","","","","","","","","72","H","0","img/none_selected.jpg","","91","main_expt",""
"","bandit","171","540600","0.0-133.0-0.0","50300033","wem/bandit_party_1","A2W8ZODKKQ7RYP","either","4","493","","","","","","","0","0","1","0.462009279","","0.6","0.8","0.4","0.2","","","","","0.3422099147","0.2124622091","0.07078380504","0.462009279","","","","","","","","","","76","L","3","","","92","main_expt",""
"","bandit","172","542680","0.0-134.0-0.0","50300033","wem/bandit_party_1","A2W8ZODKKQ7RYP","either","4","549","","","","","","","0","0","1","0.4363090379","","0.6","0.8","0.4","0.2","","","","","0.3279059742","0.245786276","0.0564278809","0.4363090379","","","","","","","","","","76","L","3","","","93","main_expt",""
"","bandit","173","544758","0.0-135.0-0.0","50300033","wem/bandit_party_1","A2W8ZODKKQ7RYP","either","4","515","","","","","","","0","0","1","0.4457519602","","0.6","0.8","0.4","0.2","","","","","0.3155724737","0.2316759231","0.06067733924","0.4457519602","","","","","","","","","","76","L","3","","","94","main_expt",""
"","bandit","174","546846","0.0-136.0-0.0","50300033","wem/bandit_party_1","A2W8ZODKKQ7RYP","either","4","562","","","","","","","0","0","1","","0.3519625041","0.6","0.8","0.4","0.2","0.3519625041","0.2231756969","0.08632751489","0.4231248902","","","","","","","","","","","","","","72","H","0","img/none_selected.jpg","","95","main_expt",""
"","bandit","175","548729","0.0-137.0-0.0","50300033","wem/bandit_party_1","A2W8ZODKKQ7RYP","either","4","334","","","","","","","1","0","0","0.1957128212","","0.6","0.8","0.4","0.2","","","","","0.3661455107","0.1957128212","0.08481729553","0.4210676831","","","","","","","","","","74","J","1","","","96","main_expt",""
"","bandit","176","550688","0.0-138.0-0.0","50300033","wem/bandit_party_1","A2W8ZODKKQ7RYP","either","4","445","","","","","","","0","0","1","0.1638116915","","0.6","0.8","0.4","0.2","","","","","0.3558031673","0.1638116915","0.08386440452","0.4022895305","","","","","","","","","","74","J","1","","","97","main_expt",""
"","bandit","177","552487","0.0-139.0-0.0","50300033","wem/bandit_party_1","A2W8ZODKKQ7RYP","either","4","270","","","","","","","0","0","1","","0.0940701929","0.6","0.8","0.4","0.2","0.3558230887","0.1405816365","0.0940701929","0.4187351015","","","","","","","","","","","","","","75","K","2","","","98","main_expt",""
"","bandit","178","554125","0.0-140.0-0.0","50300033","wem/bandit_party_1","A2W8ZODKKQ7RYP","either","4","109","","","","","","","1","0","0","0.3981340028","","0.6","0.8","0.4","0.2","","","","","0.3064708089","0.1435678602","0.1285058524","0.3981340028","","","","","","","","","","76","L","3","","","99","main_expt",""
"","bandit","179","556067","0.0-141.0-0.0","50300033","wem/bandit_party_1","A2W8ZODKKQ7RYP","either","4","413","","","","","","","0","0","1","","0.3520446815","0.6","0.8","0.4","0.2","0.352498313","0.1478754355","0.065882019","0.3520446815","","","","","","","","","","","","","","76","L","3","","","100","main_expt",""
"","bandit","180","557922","0.0-142.0-0.0","50300033","wem/bandit_party_1","A2W8ZODKKQ7RYP","either","4","320","","","","","","","0","0","1","0.1532559328","","0.6","0.8","0.4","0.2","","","","","0.3511810171","0.1532559328","0.05692140794","0.3715523215","","","","","","","","","","74","J","1","","","101","main_expt",""
"","bandit","181","559977","0.0-143.0-0.0","50300033","wem/bandit_party_1","A2W8ZODKKQ7RYP","either","4","243","","","","","","","0","0","1","0.3966955113","","0.6","0.8","0.4","0.2","","","","","0.3246867477","0.15857411","0.04322280369","0.3966955113","","","","","","","","","","76","L","3","","","102","main_expt",""
"","bandit","182","561957","0.0-144.0-0.0","50300033","wem/bandit_party_1","A2W8ZODKKQ7RYP","either","4","468","","","","","","","0","0","1","0.1552377357","","0.6","0.8","0.4","0.2","","","","","0.2827689756","0.1552377357","0.05121437093","0.3865714765","","","","","","","","","","74","J","1","","","103","main_expt",""
"","bandit","183","563607","0.0-145.0-0.0","50300033","wem/bandit_party_1","A2W8ZODKKQ7RYP","either","4","121","","","","","","","0","1","0","","0.3440646931","0.6","0.8","0.4","0.2","0.3307995119","0.1584193753","0.06548077564","0.3440646931","","","","","","","","","","","","","","76","L","3","","","104","main_expt",""
"","bandit","184","565181","0.0-146.0-0.0","50300033","wem/bandit_party_1","A2W8ZODKKQ7RYP","either","4","48","","","","","","","0","0","1","","0.330981063","0.6","0.8","0.4","0.2","0.3078297571","0.192058402","0.07577357845","0.330981063","","","","","","","","","","","","","","76","L","3","","","105","main_expt",""
"","bandit","185","567112","0.0-147.0-0.0","50300033","wem/bandit_party_1","A2W8ZODKKQ7RYP","either","4","397","","","","","","","0","0","1","","0.3317280627","0.6","0.8","0.4","0.2","0.3202685942","0.1562344916","0.09041352565","0.3317280627","","","","","","","","","","","","","","76","L","3","","","106","main_expt",""
"","bandit","186","569113","0.0-148.0-0.0","50300033","wem/bandit_party_1","A2W8ZODKKQ7RYP","either","4","470","","","","","","","0","0","1","0.3163418234","","0.6","0.8","0.4","0.2","","","","","0.3163418234","0.1493116313","0.1184921167","0.2760665195","","","","","","","","","","72","H","0","img/none_selected.jpg","","107","main_expt",""
"","bandit","187","571063","0.0-149.0-0.0","50300033","wem/bandit_party_1","A2W8ZODKKQ7RYP","either","4","421","","","","","","","0","0","1","0.1357435498","","0.6","0.8","0.4","0.2","","","","","0.3425943818","0.1357435498","0.1057615429","0.2826301941","","","","","","","","","","74","J","1","","","108","main_expt",""
"","bandit","188","572671","0.0-150.0-0.0","50300033","wem/bandit_party_1","A2W8ZODKKQ7RYP","either","4","75","","","","","","","0","0","1","","0.1464484126","0.6","0.8","0.4","0.2","0.2852030557","0.1164074326","0.1464484126","0.318117281","","","","","","","","","","","","","","75","K","2","","","109","main_expt",""
"","bandit","189","574242","0.0-151.0-0.0","50300033","wem/bandit_party_1","A2W8ZODKKQ7RYP","either","4","30","","","","","","","0","0","1","0.1641354829","","0.6","0.8","0.4","0.2","","","","","0.3392406975","0.1444451916","0.1641354829","0.3358587519","","","","","","","","","","75","K","2","","","110","main_expt",""
"","bandit","190","576352","0.0-152.0-0.0","50300033","wem/bandit_party_1","A2W8ZODKKQ7RYP","either","4","582","","","","","","","0","0","1","0.3031660534","","0.6","0.8","0.4","0.2","","","","","0.3023411017","0.09905323685","0.1386891192","0.3031660534","","","","","","","","","","76","L","3","","","111","main_expt",""
"","bandit","191","577977","0.0-153.0-0.0","50300033","wem/bandit_party_1","A2W8ZODKKQ7RYP","either","4","94","","","","","","","0","1","0","","0.2773548355","0.6","0.8","0.4","0.2","0.296849772","0.09652445584","0.1847512065","0.2773548355","","","","","","","","","","","","","","76","L","3","","","112","main_expt",""
"","bandit","192","579526","0.0-154.0-0.0","50300033","wem/bandit_party_1","A2W8ZODKKQ7RYP","either","4","24","","","","","","","0","0","1","","0.2370758425","0.6","0.8","0.4","0.2","0.2673419259","0.09961189632","0.1304555333","0.2370758425","","","","","","","","","","","","","","76","L","3","","","113","main_expt",""
"","bandit","193","581246","0.0-155.0-0.0","50300033","wem/bandit_party_1","A2W8ZODKKQ7RYP","either","4","183","","","","","","","0","0","1","","0.1821928837","0.6","0.8","0.4","0.2","0.2670531803","0.1036139638","0.1770102637","0.1821928837","","","","","","","","","","","","","","76","L","3","","","114","main_expt",""
"","bandit","194","582911","0.0-156.0-0.0","50300033","wem/bandit_party_1","A2W8ZODKKQ7RYP","either","4","140","","","","","","","0","0","1","","0.1564651975","0.6","0.8","0.4","0.2","0.2825009356","0.0968506792","0.1564651975","0.1315453283","","","","","","","","","","","","","","75","K","2","","","115","main_expt",""
"","bandit","195","584728","0.0-157.0-0.0","50300033","wem/bandit_party_1","A2W8ZODKKQ7RYP","either","4","283","","","","","","","0","0","1","0.08782875681","","0.6","0.8","0.4","0.2","","","","","0.3237719372","0.08782875681","0.1665702367","0.1102777544","","","","","","","","","","74","J","1","","","116","main_expt",""
"","bandit","196","586353","0.0-158.0-0.0","50300033","wem/bandit_party_1","A2W8ZODKKQ7RYP","either","4","93","","","","","","","1","0","0","0.3154846423","","0.6","0.8","0.4","0.2","","","","","0.3154846423","0.06031800864","0.1530687496","0.1101610351","","","","","","","","","","72","H","0","img/none_selected.jpg","","117","main_expt",""
"","bandit","197","588261","0.0-159.0-0.0","50300033","wem/bandit_party_1","A2W8ZODKKQ7RYP","either","4","393","","","","","","","0","1","0","","0.2584508078","0.6","0.8","0.4","0.2","0.2584508078","0.05633053331","0.1674206906","0.122460482","","","","","","","","","","","","","","72","H","0","img/none_selected.jpg","","118","main_expt",""
"","bandit","198","590109","0.0-160.0-0.0","50300033","wem/bandit_party_1","A2W8ZODKKQ7RYP","either","4","319","","","","","","","0","1","0","","0.2141905193","0.6","0.8","0.4","0.2","0.2141905193","0.07530514027","0.1990215448","0.1451868924","","","","","","","","","","","","","","72","H","0","img/none_selected.jpg","","119","main_expt",""
"","bandit","199","592015","0.0-161.0-0.0","50300033","wem/bandit_party_1","A2W8ZODKKQ7RYP","either","4","385","","","","","","","0","0","1","","0.2341954374","0.6","0.8","0.4","0.2","0.2341954374","0.09639595661","0.2208640619","0.09092593383","","","","","","","","","","","","","","72","H","0","img/none_selected.jpg","","120","main_expt",""
"","bandit","200","594080","0.0-162.0-0.0","50300033","wem/bandit_party_1","A2W8ZODKKQ7RYP","either","4","535","","","","","","","0","0","1","","0.1080456108","0.6","0.8","0.4","0.2","0.1886372651","0.1421799471","0.2602917539","0.1080456108","","","","","","","","","","","","","","76","L","3","","","121","main_expt",""
"","bandit","201","596077","0.0-163.0-0.0","50300033","wem/bandit_party_1","A2W8ZODKKQ7RYP","either","4","463","","","","","","","0","0","1","","0.1597592322","0.6","0.8","0.4","0.2","0.1597592322","0.1624760489","0.2512498235","0.1169053248","","","","","","","","","","","","","","72","H","0","img/none_selected.jpg","","122","main_expt",""
"","bandit","202","597823","0.0-164.0-0.0","50300033","wem/bandit_party_1","A2W8ZODKKQ7RYP","either","4","214","","","","","","","0","0","1","","0.1571594809","0.6","0.8","0.4","0.2","0.1895266442","0.1640214383","0.2266242761","0.1571594809","","","","","","","","","","","","","","76","L","3","","","123","main_expt",""
"","bandit","203","599608","0.0-165.0-0.0","50300033","wem/bandit_party_1","A2W8ZODKKQ7RYP","either","4","253","","","","","","","0","0","1","","0.2042850732","0.6","0.8","0.4","0.2","0.2042850732","0.2014340991","0.2373824638","0.2231804049","","","","","","","","","","","","","","72","H","0","img/none_selected.jpg","","124","main_expt",""
"","bandit","204","601180","0.0-166.0-0.0","50300033","wem/bandit_party_1","A2W8ZODKKQ7RYP","either","4","31","","","","","","","0","0","1","","0.2232794356","0.6","0.8","0.4","0.2","0.1812515389","0.2229229076","0.2538727107","0.2232794356","","","","","","","","","","","","","","76","L","3","","","125","main_expt",""
"","bandit","205","603247","0.0-167.0-0.0","50300033","wem/bandit_party_1","A2W8ZODKKQ7RYP","either","4","536","","","","","","","0","0","1","0.2324712723","","0.6","0.8","0.4","0.2","","","","","0.1694736183","0.2324712723","0.290219491","0.2316903634","","","","","","","","","","74","J","1","","","126","main_expt",""
"","bandit","206","605205","0.0-168.0-0.0","50300033","wem/bandit_party_1","A2W8ZODKKQ7RYP","either","4","419","","","","","","","0","0","1","0.2542505169","","0.6","0.8","0.4","0.2","","","","","0.1624528765","0.2628391623","0.2542505169","0.2337524142","","","","","","","","","","75","K","2","","","127","main_expt",""
"","bandit","207","607360","0.0-169.0-0.0","50300033","wem/bandit_party_1","A2W8ZODKKQ7RYP","either","4","622","","","","","","","1","0","0","0.2198210178","","0.6","0.8","0.4","0.2","","","","","0.1632982916","0.2654356302","0.2582316027","0.2198210178","","","","","","","","","","76","L","3","","","128","main_expt",""
"","bandit","208","609200","0.0-170.0-0.0","50300033","wem/bandit_party_1","A2W8ZODKKQ7RYP","either","4","305","","","","","","","0","0","1","","0.2280168395","0.6","0.8","0.4","0.2","0.2264598068","0.2070569149","0.3267566011","0.2280168395","","","","","","","","","","","","","","76","L","3","","","129","main_expt",""
"","bandit","209","610880","0.0-171.0-0.0","50300033","wem/bandit_party_1","A2W8ZODKKQ7RYP","either","4","149","","","","","","","0","1","0","","0.243895296","0.6","0.8","0.4","0.2","0.202760285","0.2579182239","0.3323271388","0.243895296","","","","","","","","","","","","","","76","L","3","","","130","main_expt",""
"","bandit","210","612665","0.0-172.0-0.0","50300033","wem/bandit_party_1","A2W8ZODKKQ7RYP","either","4","252","","","","","","","0","0","1","","0.2164454501","0.6","0.8","0.4","0.2","0.1585094705","0.2329110821","0.2666668646","0.2164454501","","","","","","","","","","","","","","76","L","3","","","131","main_expt",""
"","bandit","211","614526","0.0-173.0-0.0","50300033","wem/bandit_party_1","A2W8ZODKKQ7RYP","either","4","315","","","","","","","0","0","1","","0.200468731","0.6","0.8","0.4","0.2","0.1304261544","0.2400232435","0.2359119393","0.200468731","","","","","","","","","","","","","","76","L","3","","","132","main_expt",""
"","bandit","212","616351","0.0-174.0-0.0","50300033","wem/bandit_party_1","A2W8ZODKKQ7RYP","either","4","311","","","","","","","0","0","1","","0.2038597077","0.6","0.8","0.4","0.2","0.09339990826","0.2084798617","0.2540740643","0.2038597077","","","","","","","","","","","","","","76","L","3","","","133","main_expt",""
"","bandit","213","618092","0.0-175.0-0.0","50300033","wem/bandit_party_1","A2W8ZODKKQ7RYP","either","4","204","","","","","","","0","0","1","0.2263269307","","0.6","0.8","0.4","0.2","","","","","0.08524612959","0.2034544","0.2414927735","0.2263269307","","","","","","","","","","76","L","3","","","134","main_expt",""
"","bandit","214","620151","0.0-176.0-0.0","50300033","wem/bandit_party_1","A2W8ZODKKQ7RYP","either","4","535","","","","","","","0","0","1","0.2686469146","","0.6","0.8","0.4","0.2","","","","","0.0622033461","0.2088958693","0.2632369982","0.2686469146","","","","","","","","","","76","L","3","","","135","main_expt",""
"","bandit","215","621751","0.0-177.0-0.0","50300033","wem/bandit_party_1","A2W8ZODKKQ7RYP","either","4","69","","","","","","","0","0","1","0.05632890875","","0.6","0.8","0.4","0.2","","","","","0.05632890875","0.2573758916","0.3032623762","0.3170393738","","","","","","","","","","72","H","0","img/none_selected.jpg","","136","main_expt",""
"","bandit","216","623515","0.0-178.0-0.0","50300033","wem/bandit_party_1","A2W8ZODKKQ7RYP","either","4","227","","","","","","","0","0","1","0.06052980877","","0.6","0.8","0.4","0.2","","","","","0.06052980877","0.2467438462","0.2984046037","0.338962466","","","","","","","","","","72","H","0","img/none_selected.jpg","","137","main_expt",""
"","bandit","217","625408","0.0-179.0-0.0","50300033","wem/bandit_party_1","A2W8ZODKKQ7RYP","either","4","363","","","","","","","0","0","1","","0.2221944767","0.6","0.8","0.4","0.2","0.1038497792","0.2221944767","0.3110629865","0.3586643031","","","","","","","","","","","","","","74","J","1","","","138","main_expt",""
"","bandit","218","627304","0.0-180.0-0.0","50300033","wem/bandit_party_1","A2W8ZODKKQ7RYP","either","4","361","","","","","","","0","0","1","0.2750517365","","0.6","0.8","0.4","0.2","","","","","0.08561062373","0.2750517365","0.3048373826","0.3430902759","","","","","","","","","","74","J","1","","","139","main_expt",""
"","bandit","219","629136","0.0-181.0-0.0","50300033","wem/bandit_party_1","A2W8ZODKKQ7RYP","either","4","300","","","","","","","1","0","0","0.3777112835","","0.6","0.8","0.4","0.2","","","","","0.08025295029","0.277474309","0.3163642845","0.3777112835","","","","","","","","","","76","L","3","","","140","main_expt",""
"","bandit","220","630814","0.0-182.0-0.0","50300033","wem/bandit_party_1","A2W8ZODKKQ7RYP","either","4","136","","","","","","","0","0","1","","0.4276051364","0.6","0.8","0.4","0.2","0.09309891757","0.2932007391","0.2213861514","0.4276051364","","","","","","","","","","","","","","76","L","3","","","141","main_expt",""
"","bandit","221","632590","0.0-183.0-0.0","50300033","wem/bandit_party_1","A2W8ZODKKQ7RYP","either","4","202","","","","","","","0","0","1","0.4312347149","","0.6","0.8","0.4","0.2","","","","","0.1107976638","0.3001807938","0.2492613222","0.4312347149","","","","","","","","","","76","L","3","","","142","main_expt",""
"","bandit","222","634535","0.0-184.0-0.0","50300033","wem/bandit_party_1","A2W8ZODKKQ7RYP","either","4","429","","","","","","","0","0","1","0.386657586","","0.6","0.8","0.4","0.2","","","","","0.09575525052","0.3640878437","0.2645663874","0.386657586","","","","","","","","","","76","L","3","","","143","main_expt",""
"","bandit","223","636592","0.0-185.0-0.0","50300033","wem/bandit_party_1","A2W8ZODKKQ7RYP","either","4","536","","","","","","","0","0","1","","0.2928215939","0.6","0.8","0.4","0.2","0.07222794989","0.2706796495","0.2928215939","0.3409851627","","","","","","","","","","","","","","75","K","2","","","144","main_expt",""
"","bandit","224","638414","0.0-186.0-0.0","50300033","wem/bandit_party_1","A2W8ZODKKQ7RYP","either","4","307","","","","","","","0","0","1","","0.3178979655","0.6","0.8","0.4","0.2","0.03203798906","0.2359726437","0.3178979655","0.3538709708","","","","","","","","","","","","","","75","K","2","","","145","main_expt",""
"","bandit","225","640407","0.0-187.0-0.0","50300033","wem/bandit_party_1","A2W8ZODKKQ7RYP","either","4","454","","","","","","","0","1","0","","0.2200332621","0.6","0.8","0.4","0.2","0.03073079809","0.2200332621","0.2850957273","0.2745956728","","","","","","","","","","","","","","74","J","1","","","146","main_expt",""
"","bandit","226","642092","0.0-188.0-0.0","50300033","wem/bandit_party_1","A2W8ZODKKQ7RYP","either","4","145","","","","","","","0","0","1","0.1957794229","","0.6","0.8","0.4","0.2","","","","","0.05105424151","0.1957794229","0.2483519338","0.2375793476","","","","","","","","","","74","J","1","","","147","main_expt",""
"","bandit","227","644023","0.0-189.0-0.0","50300033","wem/bandit_party_1","A2W8ZODKKQ7RYP","either","4","409","","","","","","","0","0","1","0.1790722045","","0.6","0.8","0.4","0.2","","","","","0.04045355104","0.1790722045","0.2309770791","0.2954602587","","","","","","","","","","74","J","1","","","148","main_expt",""
"","bandit","228","646016","0.0-190.0-0.0","50300033","wem/bandit_party_1","A2W8ZODKKQ7RYP","either","4","458","","","","","","","0","0","1","","0.2189150546","0.6","0.8","0.4","0.2","0.06416506337","0.2189150546","0.1759049641","0.3435099865","","","","","","","","","","","","","","74","J","1","","","149","main_expt",""
"","bandit","229","647768","0.0-191.0-0.0","50300033","wem/bandit_party_1","A2W8ZODKKQ7RYP","either","4","223","","","","","","","0","0","1","0.07819388902","","0.6","0.8","0.4","0.2","","","","","0.07819388902","0.2119229637","0.1910702346","0.268900415","","","","","","","","","","72","H","0","img/none_selected.jpg","","150","main_expt",""
"","bandit","230","649430","0.0-192.0-0.0","50300033","wem/bandit_party_1","A2W8ZODKKQ7RYP","either","4","119","","","","","","","0","1","0","","0.1186979887","0.6","0.8","0.4","0.2","0.1186979887","0.2472398003","0.1799178466","0.2326488896","","","","","","","","","","","","","","72","H","0","img/none_selected.jpg","","151","main_expt",""
"","bandit","231","651192","0.0-193.0-0.0","50300033","wem/bandit_party_1","A2W8ZODKKQ7RYP","either","4","229","","","","","","","0","0","1","","0.1084773402","0.6","0.8","0.4","0.2","0.1084773402","0.2148428051","0.1826140084","0.2768057641","","","","","","","","","","","","","","72","H","0","img/none_selected.jpg","","152","main_expt",""
"","bandit","232","653182","0.0-194.0-0.0","50300033","wem/bandit_party_1","A2W8ZODKKQ7RYP","either","4","457","","","","","","","0","0","1","0.1314289417","","0.6","0.8","0.4","0.2","","","","","0.1314289417","0.1598057249","0.147924298","0.2997660112","","","","","","","","","","72","H","0","img/none_selected.jpg","","153","main_expt",""
"","bandit","233","655919","0.0-195.0-0.0","50300033","wem/bandit_party_1","A2W8ZODKKQ7RYP","either","4","1212","","","","","","","0","1","0","","0.3196464983","0.6","0.8","0.4","0.2","0.1354051011","0.1489099923","0.1388357139","0.3196464983","","","","","","","","","","","","","","76","L","3","","","154","main_expt",""
"","bandit","234","657669","0.0-196.0-0.0","50300033","wem/bandit_party_1","A2W8ZODKKQ7RYP","either","4","216","","","","","","","0","0","1","","0.3141654429","0.6","0.8","0.4","0.2","0.1085215933","0.1502541116","0.1658398244","0.3141654429","","","","","","","","","","","","","","76","L","3","","","155","main_expt",""
"","bandit","235","659343","0.0-197.0-0.0","50300033","wem/bandit_party_1","A2W8ZODKKQ7RYP","either","4","141","","","","","","","0","0","1","","0.2667217688","0.6","0.8","0.4","0.2","0.1383379057","0.1605084188","0.1104921729","0.2667217688","","","","","","","","","","","","","","76","L","3","","","156","main_expt",""
"","bandit","236","661687","0.0-198.0-0.0","50300033","wem/bandit_party_1","A2W8ZODKKQ7RYP","either","4","809","","","","","","","0","0","1","","0.2867075714","0.6","0.8","0.4","0.2","0.1428990181","0.1684101418","0.09530810267","0.2867075714","","","","","","","","","","","","","","76","L","3","","","157","main_expt",""
"","bandit","237","663581","0.0-199.0-0.0","50300033","wem/bandit_party_1","A2W8ZODKKQ7RYP","either","4","348","","","","","","","0","1","0","","0.2788639118","0.6","0.8","0.4","0.2","0.07455979893","0.1807688322","0.1211627972","0.2788639118","","","","","","","","","","","","","","76","L","3","","","158","main_expt",""
"","bandit","238","665479","0.0-200.0-0.0","50300033","wem/bandit_party_1","A2W8ZODKKQ7RYP","either","4","371","","","","","","","0","1","0","","0.3020710819","0.6","0.8","0.4","0.2","0.1009372764","0.1516426412","0.1012897464","0.3020710819","","","","","","","","","","","","","","76","L","3","","","159","main_expt",""
"","bandit","239","667384","0.0-201.0-0.0","50300033","wem/bandit_party_1","A2W8ZODKKQ7RYP","either","4","377","","","","","","","1","0","0","0.3404227007","","0.6","0.8","0.4","0.2","","","","","0.05118862797","0.1638698877","0.1188035868","0.3404227007","","","","","","","","","","76","L","3","","","160","main_expt",""
"","bandit","240","669263","0.0-202.0-0.0","50300033","wem/bandit_party_1","A2W8ZODKKQ7RYP","either","4","344","","","","","","","0","0","1","","0.2876249865","0.6","0.8","0.4","0.2","0.05265847637","0.1645359983","0.1606836622","0.2876249865","","","","","","","","","","","","","","76","L","3","","","161","main_expt",""
"","bandit","241","671271","0.0-203.0-0.0","50300033","wem/bandit_party_1","A2W8ZODKKQ7RYP","either","4","477","","","","","","","0","0","1","","0.07938684611","0.6","0.8","0.4","0.2","0.07938684611","0.2509918509","0.1859884171","0.2401308511","","","","","","","","","","","","","","72","H","0","img/none_selected.jpg","","162","main_expt",""
"","bandit","242","672827","0.0-204.0-0.0","50300033","wem/bandit_party_1","A2W8ZODKKQ7RYP","either","4","23","","","","","","","0","0","1","","0.0970900163","0.6","0.8","0.4","0.2","0.0970900163","0.1883685458","0.2528258464","0.2486605046","","","","","","","","","","","","","","72","H","0","img/none_selected.jpg","","163","main_expt",""
"","bandit","243","674767","0.0-205.0-0.0","50300033","wem/bandit_party_1","A2W8ZODKKQ7RYP","either","4","407","","","","","","","0","0","1","","0.2179532334","0.6","0.8","0.4","0.2","0.07401968201","0.2179532334","0.2515292425","0.22675384","","","","","","","","","","","","","","74","J","1","","","164","main_expt",""
"","bandit","244","676657","0.0-206.0-0.0","50300033","wem/bandit_party_1","A2W8ZODKKQ7RYP","either","4","346","","","","","","","0","1","0","","0.2068970429","0.6","0.8","0.4","0.2","0.06633104104","0.2143704678","0.2068970429","0.2841151948","","","","","","","","","","","","","","75","K","2","","","165","main_expt",""
"","bandit","245","678524","0.0-207.0-0.0","50300033","wem/bandit_party_1","A2W8ZODKKQ7RYP","either","4","299","","","","","","","0","0","1","","0.1413778631","0.6","0.8","0.4","0.2","0.05309652092","0.2175899085","0.1413778631","0.2842980464","","","","","","","","","","","","","","75","K","2","","","166","main_expt",""
"","bandit","246","680103","0.0-208.0-0.0","50300033","wem/bandit_party_1","A2W8ZODKKQ7RYP","either","4","66","","","","","","","0","0","1","","0.1999497975","0.6","0.8","0.4","0.2","0.07357446968","0.2137120923","0.1999497975","0.3007590714","","","","","","","","","","","","","","75","K","2","","","167","main_expt",""
"","bandit","247","681865","0.0-209.0-0.0","50300033","wem/bandit_party_1","A2W8ZODKKQ7RYP","either","4","235","","","","","","","0","0","1","","0.1696145944","0.6","0.8","0.4","0.2","0.1054325378","0.2331560811","0.1696145944","0.2884936601","","","","","","","","","","","","","","75","K","2","","","168","main_expt",""
"","bandit","248","683422","0.0-210.0-0.0","50300033","wem/bandit_party_1","A2W8ZODKKQ7RYP","either","4","28","","","","","","","0","0","1","0.1338518967","","0.6","0.8","0.4","0.2","","","","","0.08536867429","0.2367963754","0.1338518967","0.2803439438","","","","","","","","","","75","K","2","","","169","main_expt",""
"","bandit","249","685073","0.0-211.0-0.0","50300033","wem/bandit_party_1","A2W8ZODKKQ7RYP","either","4","117","","","","","","","0","0","1","","0.1307598277","0.6","0.8","0.4","0.2","0.1083432756","0.2378050175","0.1307598277","0.3010437192","","","","","","","","","","","","","","75","K","2","","","170","main_expt",""
"","bandit","250","687002","0.0-212.0-0.0","50300033","wem/bandit_party_1","A2W8ZODKKQ7RYP","either","4","397","","","","","","","0","0","1","","0.3243802095","0.6","0.8","0.4","0.2","0.09185370626","0.2253696972","0.1200375331","0.3243802095","","","","","","","","","","","","","","76","L","3","","","171","main_expt",""
"","bandit","251","688696","0.0-213.0-0.0","50300033","wem/bandit_party_1","A2W8ZODKKQ7RYP","either","4","158","","","","","","","0","0","1","0.07514546963","","0.6","0.8","0.4","0.2","","","","","0.09458096772","0.2903394368","0.07514546963","0.3140094691","","","","","","","","","","75","K","2","","","172","main_expt",""
"","bandit","252","690716","0.0-214.0-0.0","50300033","wem/bandit_party_1","A2W8ZODKKQ7RYP","either","4","480","","","","","","","0","0","1","","0.07704486673","0.6","0.8","0.4","0.2","0.1016296913","0.2384828248","0.07704486673","0.2433770114","","","","","","","","","","","","","","75","K","2","","","173","main_expt",""
"","bandit","253","692368","0.0-215.0-0.0","50300033","wem/bandit_party_1","A2W8ZODKKQ7RYP","either","4","116","","","","","","","0","0","1","0.04061738922","","0.6","0.8","0.4","0.2","","","","","0.117107939","0.2823111034","0.04061738922","0.2080779891","","","","","","","","","","75","K","2","","","174","main_expt",""
"","bandit","254","693898","0.0-216.0-0.0","50300033","wem/bandit_party_1","A2W8ZODKKQ7RYP","either","4","1","","","","","","","1","0","0","0.292147578","","0.6","0.8","0.4","0.2","","","","","0.1254773658","0.292147578","0.02968316822","0.2211365803","","","","","","","","","","74","J","1","","","175","main_expt",""
"","bandit","255","695572","0.0-217.0-0.0","50300033","wem/bandit_party_1","A2W8ZODKKQ7RYP","either","4","147","","","","","","","0","0","1","0.2928295457","","0.6","0.8","0.4","0.2","","","","","0.1518856622","0.2928295457","0.04419366322","0.231280906","","","","","","","","","","74","J","1","","","176","main_expt",""
"","bandit","256","698194","0.0-218.0-0.0","50300033","wem/bandit_party_1","A2W8ZODKKQ7RYP","either","4","1093","","","","","","","1","0","0","0.1502483312","","0.6","0.8","0.4","0.2","","","","","0.1502483312","0.297241693","0.04140429262","0.1689881391","","","","","","","","","","72","H","0","img/none_selected.jpg","","177","main_expt",""
"","bandit","257","699868","0.0-219.0-0.0","50300033","wem/bandit_party_1","A2W8ZODKKQ7RYP","either","4","134","","","","","","","0","0","1","0.276241128","","0.6","0.8","0.4","0.2","","","","","0.2073149786","0.276241128","0.06103489621","0.1699404395","","","","","","","","","","74","J","1","","","178","main_expt",""
"","bandit","258","702424","0.0-220.0-0.0","50300033","wem/bandit_party_1","A2W8ZODKKQ7RYP","either","4","1027","","","","","","","0","0","1","0.1928578162","","0.6","0.8","0.4","0.2","","","","","0.1928578162","0.2405339857","0.053608248","0.1571972967","","","","","","","","","","72","H","0","img/none_selected.jpg","","179","main_expt",""
"","bandit","259","704025","0.0-221.0-0.0","50300033","wem/bandit_party_1","A2W8ZODKKQ7RYP","either","4","64","","","","","","","0","0","1","","0.1567782565","0.6","0.8","0.4","0.2","0.1412953234","0.233428307","0.06289379635","0.1567782565","","","","","","","","","","","","","","76","L","3","","","180","main_expt",""
"","bandit","260","706084","0.0-222.0-0.0","50300033","wem/bandit_party_1","A2W8ZODKKQ7RYP","either","4","520","","","","","","","0","0","1","","0.1492691696","0.6","0.8","0.4","0.2","0.1258774719","0.1459310114","0.07748386732","0.1492691696","","","","","","","","","","","","","","76","L","3","","","181","main_expt",""
"","bandit","261","707697","0.0-223.0-0.0","50300033","wem/bandit_party_1","A2W8ZODKKQ7RYP","either","4","87","","","","","","","0","0","1","","0.1609613705","0.6","0.8","0.4","0.2","0.1121960069","0.1796360657","0.096714051","0.1609613705","","","","","","","","","","","","","","76","L","3","","","182","main_expt",""
"","bandit","262","709871","0.0-224.0-0.0","50300033","wem/bandit_party_1","A2W8ZODKKQ7RYP","either","4","641","","","","","","","0","0","1","","0.08335286121","0.6","0.8","0.4","0.2","0.08335286121","0.1907874973","0.05351369794","0.1982891881","","","","","","","","","","","","","","72","H","0","img/none_selected.jpg","","183","main_expt",""
"","bandit","263","711449","0.0-225.0-0.0","50300033","wem/bandit_party_1","A2W8ZODKKQ7RYP","either","4","58","","","","","","","0","0","1","0.1451627339","","0.6","0.8","0.4","0.2","","","","","0.1085923678","0.1451627339","0.08854511538","0.1703318442","","","","","","","","","","74","J","1","","","184","main_expt",""
"","bandit","264","713096","0.0-226.0-0.0","50300033","wem/bandit_party_1","A2W8ZODKKQ7RYP","either","4","101","","","","","","","0","0","1","","0.136385666","0.6","0.8","0.4","0.2","0.1113654269","0.1692531577","0.136385666","0.09566746086","","","","","","","","","","","","","","75","K","2","","","185","main_expt",""
"","bandit","265","715009","0.0-227.0-0.0","50300033","wem/bandit_party_1","A2W8ZODKKQ7RYP","either","4","385","","","","","","","0","0","1","0.1885113298","","0.6","0.8","0.4","0.2","","","","","0.1383531569","0.1885113298","0.1848043888","0.1254261761","","","","","","","","","","74","J","1","","","186","main_expt",""
"","bandit","266","716913","0.0-228.0-0.0","50300033","wem/bandit_party_1","A2W8ZODKKQ7RYP","either","4","368","","","","","","","0","0","1","","0.1739713275","0.6","0.8","0.4","0.2","0.1739713275","0.2088125345","0.1640989128","0.1081798115","","","","","","","","","","","","","","72","H","0","img/none_selected.jpg","","187","main_expt",""
"","bandit","267","718746","0.0-229.0-0.0","50300033","wem/bandit_party_1","A2W8ZODKKQ7RYP","either","4","296","","","","","","","0","1","0","","0.1926366302","0.6","0.8","0.4","0.2","0.1926366302","0.2228369986","0.1301402021","0.08529062399","","","","","","","","","","","","","","72","H","0","img/none_selected.jpg","","188","main_expt",""
"","bandit","268","720531","0.0-230.0-0.0","50300033","wem/bandit_party_1","A2W8ZODKKQ7RYP","either","4","256","","","","","","","1","0","0","0.2499935398","","0.6","0.8","0.4","0.2","","","","","0.2499935398","0.2567428292","0.1980942663","0.07250281893","","","","","","","","","","72","H","0","img/none_selected.jpg","","189","main_expt",""
"","bandit","269","722433","0.0-231.0-0.0","50300033","wem/bandit_party_1","A2W8ZODKKQ7RYP","either","4","385","","","","","","","0","0","1","","0.2367317824","0.6","0.8","0.4","0.2","0.2367317824","0.3177850294","0.1842725295","0.07895395147","","","","","","","","","","","","","","72","H","0","img/none_selected.jpg","","190","main_expt",""
"","bandit","270","724143","0.0-232.0-0.0","50300033","wem/bandit_party_1","A2W8ZODKKQ7RYP","either","4","159","","","","","","","0","0","1","0.2515026666","","0.6","0.8","0.4","0.2","","","","","0.2515026666","0.2876912335","0.2087081259","0.06204701637","","","","","","","","","","72","H","0","img/none_selected.jpg","","191","main_expt",""
"","bandit","271","725998","0.0-233.0-0.0","50300033","wem/bandit_party_1","A2W8ZODKKQ7RYP","either","4","336","","","","","","","1","0","0","0.2451916405","","0.6","0.8","0.4","0.2","","","","","0.2451916405","0.2383873749","0.1800110976","0.064067899","","","","","","","","","","72","H","0","img/none_selected.jpg","","192","main_expt",""
"","bandit","272","727841","0.0-234.0-0.0","50300033","wem/bandit_party_1","A2W8ZODKKQ7RYP","either","4","310","","","","","","","0","0","1","0.2353451433","","0.6","0.8","0.4","0.2","","","","","0.2353451433","0.24690957","0.1519186298","0.1286650472","","","","","","","","","","72","H","0","img/none_selected.jpg","","193","main_expt",""
"","bandit","273","729714","0.0-235.0-0.0","50300033","wem/bandit_party_1","A2W8ZODKKQ7RYP","either","4","338","","","","","","","0","0","1","0.307075739","","0.6","0.8","0.4","0.2","","","","","0.307075739","0.2728455101","0.1431656489","0.1746490116","","","","","","","","","","72","H","0","img/none_selected.jpg","","194","main_expt",""
"","bandit","274","733001","0.0-236.0-0.0","50300033","wem/bandit_party_1","A2W8ZODKKQ7RYP","either","4","1738","","","","","","","0","1","0","","0.129035247","0.6","0.8","0.4","0.2","0.3011001907","0.2421292151","0.1868251083","0.129035247","","","","","","","","","","","","","","76","L","3","","","195","main_expt",""
"","bandit","275","734777","0.0-237.0-0.0","50300033","wem/bandit_party_1","A2W8ZODKKQ7RYP","either","4","252","","","","","","","0","0","1","","0.09052040682","0.6","0.8","0.4","0.2","0.2861216794","0.2598052724","0.176624335","0.09052040682","","","","","","","","","","","","","","76","L","3","","","196","main_expt",""
"","bandit","276","736331","0.0-238.0-0.0","50300033","wem/bandit_party_1","A2W8ZODKKQ7RYP","either","4","19","","","","","","","0","1","0","","0.08675464884","0.6","0.8","0.4","0.2","0.2121549007","0.2540930088","0.2383323772","0.08675464884","","","","","","","","","","","","","","76","L","3","","","197","main_expt",""
"","bandit","277","738303","0.0-239.0-0.0","50300033","wem/bandit_party_1","A2W8ZODKKQ7RYP","either","4","433","","","","","","","0","0","1","","0.09429549835","0.6","0.8","0.4","0.2","0.260340052","0.2460150375","0.260618614","0.09429549835","","","","","","","","","","","","","","76","L","3","","","198","main_expt",""
"","bandit","278","740210","0.0-240.0-0.0","50300033","wem/bandit_party_1","A2W8ZODKKQ7RYP","either","4","365","","","","","","","0","0","1","","0.09303778716","0.6","0.8","0.4","0.2","0.3009562829","0.2217343644","0.2935067364","0.09303778716","","","","","","","","","","","","","","76","L","3","","","199","main_expt",""
"","bandit","279","742015","0.0-241.0-0.0","50300033","wem/bandit_party_1","A2W8ZODKKQ7RYP","either","4","271","","","","","","","1","0","0","0.2830302048","","0.6","0.8","0.4","0.2","","","","","0.3430896668","0.2830302048","0.362920627","0.07354084322","","","","","","","","","","74","J","1","","","200","main_expt",""
"","bandit","280","743903","0.0-242.0-0.0","50300033","wem/bandit_party_1","A2W8ZODKKQ7RYP","either","4","356","","","","","","","0","0","1","0.3175621279","","0.6","0.8","0.4","0.2","","","","","0.2973668079","0.3175621279","0.3119044903","0.08115367452","","","","","","","","","","74","J","1","","","201","main_expt",""
"","bandit","281","745502","0.0-243.0-0.0","50300033","wem/bandit_party_1","A2W8ZODKKQ7RYP","either","4","38","","","","","","","1","0","0","0.3219337599","","0.6","0.8","0.4","0.2","","","","","0.3219337599","0.3049471546","0.3095695708","0.0774842685","","","","","","","","","","72","H","0","img/none_selected.jpg","","202","main_expt",""
"","bandit","282","747415","0.0-244.0-0.0","50300033","wem/bandit_party_1","A2W8ZODKKQ7RYP","either","4","382","","","","","","","0","0","1","","0.3229991028","0.6","0.8","0.4","0.2","0.3229991028","0.2975042969","0.3005459379","0.09704724367","","","","","","","","","","","","","","72","H","0","img/none_selected.jpg","","203","main_expt",""
"","bandit","283","749360","0.0-245.0-0.0","50300033","wem/bandit_party_1","A2W8ZODKKQ7RYP","either","4","412","","","","","","","0","0","1","0.1224111047","","0.6","0.8","0.4","0.2","","","","","0.3077995671","0.2268457719","0.3116824409","0.1224111047","","","","","","","","","","76","L","3","","","204","main_expt",""
"","bandit","284","751122","0.0-246.0-0.0","50300033","wem/bandit_party_1","A2W8ZODKKQ7RYP","either","4","228","","","","","","","0","0","1","","0.1627664319","0.6","0.8","0.4","0.2","0.3070199156","0.2582085449","0.3291635812","0.1627664319","","","","","","","","","","","","","","76","L","3","","","205","main_expt",""
"","bandit","285","752992","0.0-247.0-0.0","50300033","wem/bandit_party_1","A2W8ZODKKQ7RYP","either","4","330","","","","","","","0","0","1","","0.1604236747","0.6","0.8","0.4","0.2","0.3109683939","0.2841247045","0.4008790519","0.1604236747","","","","","","","","","","","","","","76","L","3","","","206","main_expt",""
"","bandit","286","754735","0.0-248.0-0.0","50300033","wem/bandit_party_1","A2W8ZODKKQ7RYP","either","4","210","","","","","","","0","0","1","","0.126388554","0.6","0.8","0.4","0.2","0.2845075958","0.3333225396","0.4202180382","0.126388554","","","","","","","","","","","","","","76","L","3","","","207","main_expt",""
"","bandit","287","756767","0.0-249.0-0.0","50300033","wem/bandit_party_1","A2W8ZODKKQ7RYP","either","4","499","","","","","","","0","0","1","0.290219871","","0.6","0.8","0.4","0.2","","","","","0.2419557814","0.290219871","0.4168586074","0.1602309633","","","","","","","","","","74","J","1","","","208","main_expt",""
"","bandit","288","758321","0.0-250.0-0.0","50300033","wem/bandit_party_1","A2W8ZODKKQ7RYP","either","4","20","","","","","","","0","0","1","","0.2449545816","0.6","0.8","0.4","0.2","0.2449545816","0.3426384504","0.3949328033","0.2009997365","","","","","","","","","","","","","","72","H","0","img/none_selected.jpg","","209","main_expt",""
"","bandit","289","760367","0.0-251.0-0.0","50300033","wem/bandit_party_1","A2W8ZODKKQ7RYP","either","4","509","","","","","","","0","1","0","","0.41782505","0.6","0.8","0.4","0.2","0.2176860071","0.2932754766","0.41782505","0.1997114924","","","","","","","","","","","","","","75","K","2","","","210","main_expt",""
"","bandit","290","762039","0.0-252.0-0.0","50300033","wem/bandit_party_1","A2W8ZODKKQ7RYP","either","4","137","","","","","","","0","1","0","","0.4377941382","0.6","0.8","0.4","0.2","0.2460847292","0.2522206247","0.4377941382","0.2631807131","","","","","","","","","","","","","","75","K","2","","","211","main_expt",""
"","bandit","291","763775","0.0-253.0-0.0","50300033","wem/bandit_party_1","A2W8ZODKKQ7RYP","either","4","180","","","","","","","0","0","1","","0.4619006446","0.6","0.8","0.4","0.2","0.2017704833","0.2323705111","0.4619006446","0.2008991105","","","","","","","","","","","","","","75","K","2","","","212","main_expt",""
"","bandit","292","765358","0.0-254.0-0.0","50300033","wem/bandit_party_1","A2W8ZODKKQ7RYP","either","4","44","","","","","","","0","1","0","","0.4508737721","0.6","0.8","0.4","0.2","0.1891715169","0.2815580385","0.4508737721","0.1656487101","","","","","","","","","","","","","","75","K","2","","","213","main_expt",""
"","bandit","293","767152","0.0-255.0-0.0","50300033","wem/bandit_party_1","A2W8ZODKKQ7RYP","either","4","254","","","","","","","0","0","1","","0.4639731149","0.6","0.8","0.4","0.2","0.1819308411","0.2955812139","0.4639731149","0.213788386","","","","","","","","","","","","","","75","K","2","","","214","main_expt",""
"","bandit","294","769056","0.0-256.0-0.0","50300033","wem/bandit_party_1","A2W8ZODKKQ7RYP","either","4","369","","","","","","","1","0","0","0.4690757113","","0.6","0.8","0.4","0.2","","","","","0.1406935411","0.2988647484","0.4690757113","0.2206736926","","","","","","","","","","75","K","2","","","215","main_expt",""
"","bandit","295","770871","0.0-257.0-0.0","50300033","wem/bandit_party_1","A2W8ZODKKQ7RYP","either","4","273","","","","","","","1","0","0","0.4685680314","","0.6","0.8","0.4","0.2","","","","","0.206739756","0.3361974059","0.4685680314","0.2270120675","","","","","","","","","","75","K","2","","","216","main_expt",""
"","bandit","296","772522","0.0-258.0-0.0","50300033","wem/bandit_party_1","A2W8ZODKKQ7RYP","either","4","116","","","","","","","0","0","1","0.4873952874","","0.6","0.8","0.4","0.2","","","","","0.178624692","0.2764506131","0.4873952874","0.2561581829","","","","","","","","","","75","K","2","","","217","main_expt",""
"","bandit","297","774594","0.0-259.0-0.0","50300033","wem/bandit_party_1","A2W8ZODKKQ7RYP","either","4","555","","","","","","","1","0","0","0.4790671899","","0.6","0.8","0.4","0.2","","","","","0.2021641755","0.299893698","0.4790671899","0.2785758431","","","","","","","","","","75","K","2","","","218","main_expt",""
"","bandit","298","776148","0.0-260.0-0.0","50300033","wem/bandit_party_1","A2W8ZODKKQ7RYP","either","4","23","","","","","","","1","0","0","0.4769795117","","0.6","0.8","0.4","0.2","","","","","0.2076996705","0.3213687962","0.4769795117","0.2707863597","","","","","","","","","","75","K","2","","","219","main_expt",""
"","bandit","299","778092","0.0-261.0-0.0","50300033","wem/bandit_party_1","A2W8ZODKKQ7RYP","either","4","409","","","","","","","0","0","1","0.4746148145","","0.6","0.8","0.4","0.2","","","","","0.2479045362","0.3782095139","0.4746148145","0.2262269101","","","","","","","","","","75","K","2","","","220","main_expt",""
"","bandit","300","779727","0.0-262.0-0.0","50300033","wem/bandit_party_1","A2W8ZODKKQ7RYP","either","4","95","","","","","","","0","0","1","","0.4789253058","0.6","0.8","0.4","0.2","0.251163546","0.3572699546","0.4789253058","0.2522421151","","","","","","","","","","","","","","75","K","2","","","221","main_expt",""
"","bandit","301","781602","0.0-263.0-0.0","50300033","wem/bandit_party_1","A2W8ZODKKQ7RYP","either","4","342","","","","","","","0","0","1","","0.4765400837","0.6","0.8","0.4","0.2","0.2653622565","0.332217079","0.4765400837","0.2323100388","","","","","","","","","","","","","","75","K","2","","","222","main_expt",""
"","bandit","302","783522","0.0-264.0-0.0","50300033","wem/bandit_party_1","A2W8ZODKKQ7RYP","either","4","380","","","","","","","0","1","0","","0.4872993944","0.6","0.8","0.4","0.2","0.2034578964","0.3327789551","0.4872993944","0.2013525365","","","","","","","","","","","","","","75","K","2","","","223","main_expt",""
"","bandit","303","785448","0.0-265.0-0.0","50300033","wem/bandit_party_1","A2W8ZODKKQ7RYP","either","4","404","","","","","","","0","0","1","","0.4864577786","0.6","0.8","0.4","0.2","0.1176985371","0.3720138676","0.4864577786","0.2017363432","","","","","","","","","","","","","","75","K","2","","","224","main_expt",""
"","bandit","304","787353","0.0-266.0-0.0","50300033","wem/bandit_party_1","A2W8ZODKKQ7RYP","either","4","366","","","","","","","1","0","0","0.4815865163","","0.6","0.8","0.4","0.2","","","","","0.08531446518","0.4035982493","0.4815865163","0.1608447522","","","","","","","","","","75","K","2","","","225","main_expt",""
"","bandit","305","789285","0.0-267.0-0.0","50300033","wem/bandit_party_1","A2W8ZODKKQ7RYP","either","4","392","","","","","","","1","0","0","0.4781941344","","0.6","0.8","0.4","0.2","","","","","0.0901010045","0.3538577565","0.4781941344","0.2023183299","","","","","","","","","","75","K","2","","","226","main_expt",""
"","bandit","306","791248","0.0-268.0-0.0","50300033","wem/bandit_party_1","A2W8ZODKKQ7RYP","either","4","426","","","","","","","1","0","0","0.4742279627","","0.6","0.8","0.4","0.2","","","","","0.06499555022","0.4205879778","0.4742279627","0.1555458008","","","","","","","","","","75","K","2","","","227","main_expt",""
"","bandit","307","793471","0.0-269.0-0.0","50300033","wem/bandit_party_1","A2W8ZODKKQ7RYP","either","4","684","","","","","","","0","1","0","","0.4597327255","0.6","0.8","0.4","0.2","0.06967502077","0.4082381823","0.4597327255","0.1210896773","","","","","","","","","","","","","","75","K","2","","","228","main_expt",""
"","bandit","308","795409","0.0-270.0-0.0","50300033","wem/bandit_party_1","A2W8ZODKKQ7RYP","either","4","400","","","","","","","0","0","1","","0.4733003713","0.6","0.8","0.4","0.2","0.07642173418","0.4274963613","0.4733003713","0.1206830913","","","","","","","","","","","","","","75","K","2","","","229","main_expt",""
"","bandit","309","797272","0.0-271.0-0.0","50300033","wem/bandit_party_1","A2W8ZODKKQ7RYP","either","4","326","","","","","","","1","0","0","0.4832022084","","0.6","0.8","0.4","0.2","","","","","0.04973788902","0.4362488765","0.4832022084","0.1334008039","","","","","","","","","","75","K","2","","","230","main_expt",""
"","bandit","310","799200","0.0-272.0-0.0","50300033","wem/bandit_party_1","A2W8ZODKKQ7RYP","either","4","392","","","","","","","0","1","0","","0.4802630573","0.6","0.8","0.4","0.2","0.07419495466","0.4420629534","0.4802630573","0.1048467088","","","","","","","","","","","","","","75","K","2","","","231","main_expt",""
"","bandit","311","801209","0.0-273.0-0.0","50300033","wem/bandit_party_1","A2W8ZODKKQ7RYP","either","4","470","","","","","","","0","0","1","","0.4739318499","0.6","0.8","0.4","0.2","0.08125260149","0.4287414635","0.4739318499","0.1184002818","","","","","","","","","","","","","","75","K","2","","","232","main_expt",""
"","bandit","312","803115","0.0-274.0-0.0","50300033","wem/bandit_party_1","A2W8ZODKKQ7RYP","either","4","373","","","","","","","0","0","1","0.4709765286","","0.6","0.8","0.4","0.2","","","","","0.06057073796","0.4395511981","0.4709765286","0.08533064469","","","","","","","","","","75","K","2","","","233","main_expt",""
"","bandit","313","805017","0.0-275.0-0.0","50300033","wem/bandit_party_1","A2W8ZODKKQ7RYP","either","4","362","","","","","","","0","0","1","","0.4658145356","0.6","0.8","0.4","0.2","0.1037411708","0.4479240545","0.4658145356","0.1190123434","","","","","","","","","","","","","","75","K","2","","","234","main_expt",""
"","bandit","314","807048","0.0-276.0-0.0","50300033","wem/bandit_party_1","A2W8ZODKKQ7RYP","either","4","497","","","","","","","0","0","1","","0.1392024459","0.6","0.8","0.4","0.2","0.1267441937","0.4476644646","0.4312508187","0.1392024459","","","","","","","","","","","","","","76","L","3","","","235","main_expt",""
"","bandit","315","808661","0.0-277.0-0.0","50300033","wem/bandit_party_1","A2W8ZODKKQ7RYP","either","4","79","","","","","","","0","0","1","0.457106966","","0.6","0.8","0.4","0.2","","","","","0.1002206095","0.457106966","0.4323277229","0.1076242464","","","","","","","","","","74","J","1","","","236","main_expt",""
"","bandit","316","810488","0.0-278.0-0.0","50300033","wem/bandit_party_1","A2W8ZODKKQ7RYP","either","4","281","","","","","","","0","0","1","0.08353940566","","0.6","0.8","0.4","0.2","","","","","0.08353940566","0.4097288684","0.4517679415","0.1539911713","","","","","","","","","","72","H","0","img/none_selected.jpg","","237","main_expt",""
