"consent","trial_type","trial_index","time_elapsed","internal_node_id","subjID","study","MID","cond","drift","rt","responses","button_pressed","key_press","like","value","connected","gems","bombs","no_reward","GemPrChosen","BombPrChosen","GainOverPainPr_0","GainOverPainPr_1","GainOverPainPr_2","GainOverPainPr_3","LosePr_0","LosePr_1","LosePr_2","LosePr_3","WinPr_0","WinPr_1","WinPr_2","WinPr_3","Q0","Q1","Q2","gender","age","ethnicity","label","expt_phase","target","respCharCode","respKey","respChoiceNum","respChoice","practice","trial_counter","trial_label","Q0_index"
"GDM/GDM_behavioral_consent_30min_online.html","consent","0","23963","0.0-0.0","50897091","wem/bandit_party_1","A3CTXNQ2GXIQSP","either","6","","","","","","","","","","","","","","","","","","","","","","","","","","","","","","","","","","","","","","","","",""
"","survey-text","1","31325","0.0-1.0","50897091","wem/bandit_party_1","A3CTXNQ2GXIQSP","either","6","6352","{""Q0"":""A3CTXNQ2GXIQSP""}","","","","","","","","","","","","","","","","","","","","","","","","","","","","","","","","","","","","","","",""
"","button-response","2","33947","0.0-2.0","50897091","wem/bandit_party_1","A3CTXNQ2GXIQSP","either","6","1614","","1","","","","","","","","","","","","","","","","","","","","","","","","","","","","","","","","","","","","","",""
"","text-replacement","3","40969","0.0-3.0","50897091","wem/bandit_party_1","A3CTXNQ2GXIQSP","either","6","6017","","","32","","","","","","","","","","","","","","","","","","","","","","","","","","","","","","","","","","","","",""
"","text-replacement","4","47976","0.0-4.0","50897091","wem/bandit_party_1","A3CTXNQ2GXIQSP","either","6","7005","","","32","","","","","","","","","","","","","","","","","","","","","","","","","","","","","","","","","","","","",""
"","identification","5","55817","0.0-6.0-0.0","50897091","wem/bandit_party_1","A3CTXNQ2GXIQSP","either","6","7828","","","","6","5","5","","","","","","","","","","","","","","","","","","","","","","","","pre","identification_pre","the Democratic Party","","","","","","","",""
"","identification","6","60306","0.0-6.0-1.0","50897091","wem/bandit_party_1","A3CTXNQ2GXIQSP","either","6","3475","","","","0","0","0","","","","","","","","","","","","","","","","","","","","","","","","pre","identification_pre","the Republican party","","","","","","","",""
"","text-replacement","7","65662","0.0-7.0","50897091","wem/bandit_party_1","A3CTXNQ2GXIQSP","either","6","4350","","","32","","","","","","","","","","","","","","","","","","","","","","","","","","","","","","","","","","","","",""
"","text-replacement","8","69608","0.0-8.0","50897091","wem/bandit_party_1","A3CTXNQ2GXIQSP","either","6","3944","","","32","","","","","","","","","","","","","","","","","","","","","","","","","","","","","","","","","","","","",""
"","text-replacement","9","76084","0.0-9.0","50897091","wem/bandit_party_1","A3CTXNQ2GXIQSP","either","6","6473","","","32","","","","","","","","","","","","","","","","","","","","","","","","","","","","","","","","","","","","",""
"","text-replacement","10","80226","0.0-10.0","50897091","wem/bandit_party_1","A3CTXNQ2GXIQSP","either","6","4141","","","32","","","","","","","","","","","","","","","","","","","","","","","","","","","","","","","","","","","","",""
"","text-replacement","11","85292","0.0-11.0","50897091","wem/bandit_party_1","A3CTXNQ2GXIQSP","either","6","5064","","","32","","","","","","","","","","","","","","","","","","","","","","","","","","","","","","","","","","","","",""
"","bandit","12","88630","0.0-12.0-0.0","50897091","wem/bandit_party_1","A3CTXNQ2GXIQSP","either","6","1828","","","","","","","0","0","1","0","0","","","","","0","","","","0","","","","","","","","","","","","","74","J","0","img/none_selected_demo.jpg","true","0","",""
"","bandit","13","91416","0.0-13.0-0.0","50897091","wem/bandit_party_1","A3CTXNQ2GXIQSP","either","6","1275","","","","","","","0","0","1","0","0","","","","","0","","","","0","","","","","","","","","","","","","75","K","0","img/none_selected_demo.jpg","true","0","",""
"","text-replacement","14","110055","0.0-14.0","50897091","wem/bandit_party_1","A3CTXNQ2GXIQSP","either","6","18638","","","32","","","","","","","","","","","","","","","","","","","","","","","","","","","","","","","","","","","","",""
"","text-replacement","15","115102","0.0-15.0","50897091","wem/bandit_party_1","A3CTXNQ2GXIQSP","either","6","5045","","","32","","","","","","","","","","","","","","","","","","","","","","","","","","","","","","","","","","","","",""
"","text-replacement","16","120398","0.0-16.0","50897091","wem/bandit_party_1","A3CTXNQ2GXIQSP","either","6","5295","","","32","","","","","","","","","","","","","","","","","","","","","","","","","","","","","","","","","","","","",""
"","text-replacement","17","123964","0.0-17.0","50897091","wem/bandit_party_1","A3CTXNQ2GXIQSP","either","6","3566","","","32","","","","","","","","","","","","","","","","","","","","","","","","","","","","","","","","","","","","",""
"","bandit","18","126506","0.0-18.0-0.0","50897091","wem/bandit_party_1","A3CTXNQ2GXIQSP","either","6","1029","","","","","","","0","1","0","","0.8","0.5","0.5","","","0.8","0.2","","","","","","","","","","","","","","","","74","J","0","img/none_selected_demo.jpg","true","0","80_20_practice",""
"","bandit","19","128409","0.0-18.0-1.0","50897091","wem/bandit_party_1","A3CTXNQ2GXIQSP","either","6","392","","","","","","","0","1","0","","0.8","0.5","0.5","","","0.8","0.2","","","","","","","","","","","","","","","","74","J","0","img/none_selected_demo.jpg","true","0","80_20_practice",""
"","bandit","20","130319","0.0-18.0-2.0","50897091","wem/bandit_party_1","A3CTXNQ2GXIQSP","either","6","401","","","","","","","0","0","1","0.8","","0.5","0.5","","","","","","","0.8","0.2","","","","","","","","","","","","74","J","0","img/none_selected_demo.jpg","true","0","80_20_practice",""
"","bandit","21","132200","0.0-18.0-3.0","50897091","wem/bandit_party_1","A3CTXNQ2GXIQSP","either","6","371","","","","","","","0","0","1","","0.2","0.5","0.5","","","0.8","0.2","","","","","","","","","","","","","","","","75","K","1","","true","0","80_20_practice",""
"","bandit","22","134012","0.0-18.0-4.0","50897091","wem/bandit_party_1","A3CTXNQ2GXIQSP","either","6","306","","","","","","","0","0","1","","0.2","0.5","0.5","","","0.8","0.2","","","","","","","","","","","","","","","","75","K","1","","true","0","80_20_practice",""
"","bandit","23","135816","0.0-18.0-5.0","50897091","wem/bandit_party_1","A3CTXNQ2GXIQSP","either","6","294","","","","","","","0","0","1","","0.2","0.5","0.5","","","0.8","0.2","","","","","","","","","","","","","","","","75","K","1","","true","0","80_20_practice",""
"","bandit","24","137690","0.0-18.0-6.0","50897091","wem/bandit_party_1","A3CTXNQ2GXIQSP","either","6","361","","","","","","","0","1","0","","0.8","0.5","0.5","","","0.8","0.2","","","","","","","","","","","","","","","","74","J","0","img/none_selected_demo.jpg","true","0","80_20_practice",""
"","bandit","25","139513","0.0-18.0-7.0","50897091","wem/bandit_party_1","A3CTXNQ2GXIQSP","either","6","312","","","","","","","0","0","1","","0.2","0.5","0.5","","","0.8","0.2","","","","","","","","","","","","","","","","75","K","1","","true","0","80_20_practice",""
"","bandit","26","141312","0.0-18.0-8.0","50897091","wem/bandit_party_1","A3CTXNQ2GXIQSP","either","6","289","","","","","","","1","0","0","0.8","","0.5","0.5","","","","","","","0.8","0.2","","","","","","","","","","","","74","J","0","img/none_selected_demo.jpg","true","0","80_20_practice",""
"","bandit","27","143326","0.0-18.0-9.0","50897091","wem/bandit_party_1","A3CTXNQ2GXIQSP","either","6","505","","","","","","","0","0","1","0.2","","0.5","0.5","","","","","","","0.8","0.2","","","","","","","","","","","","75","K","1","","true","0","80_20_practice",""
"","bandit","28","145264","0.0-18.0-10.0","50897091","wem/bandit_party_1","A3CTXNQ2GXIQSP","either","6","427","","","","","","","0","1","0","","0.8","0.5","0.5","","","0.8","0.2","","","","","","","","","","","","","","","","74","J","0","img/none_selected_demo.jpg","true","0","80_20_practice",""
"","bandit","29","147063","0.0-18.0-11.0","50897091","wem/bandit_party_1","A3CTXNQ2GXIQSP","either","6","289","","","","","","","0","0","1","0.8","","0.5","0.5","","","","","","","0.8","0.2","","","","","","","","","","","","74","J","0","img/none_selected_demo.jpg","true","0","80_20_practice",""
"","bandit","30","148799","0.0-18.0-12.0","50897091","wem/bandit_party_1","A3CTXNQ2GXIQSP","either","6","225","","","","","","","1","0","0","0.8","","0.5","0.5","","","","","","","0.8","0.2","","","","","","","","","","","","74","J","0","img/none_selected_demo.jpg","true","0","80_20_practice",""
"","bandit","31","150703","0.0-18.0-13.0","50897091","wem/bandit_party_1","A3CTXNQ2GXIQSP","either","6","394","","","","","","","0","0","1","0.8","","0.5","0.5","","","","","","","0.8","0.2","","","","","","","","","","","","74","J","0","img/none_selected_demo.jpg","true","0","80_20_practice",""
"","bandit","32","152769","0.0-18.0-14.0","50897091","wem/bandit_party_1","A3CTXNQ2GXIQSP","either","6","555","","","","","","","1","0","0","0.8","","0.5","0.5","","","","","","","0.8","0.2","","","","","","","","","","","","74","J","0","img/none_selected_demo.jpg","true","0","80_20_practice",""
"","bandit","33","154701","0.0-18.0-15.0","50897091","wem/bandit_party_1","A3CTXNQ2GXIQSP","either","6","424","","","","","","","1","0","0","0.8","","0.5","0.5","","","","","","","0.8","0.2","","","","","","","","","","","","74","J","0","img/none_selected_demo.jpg","true","0","80_20_practice",""
"","bandit","34","156767","0.0-18.0-16.0","50897091","wem/bandit_party_1","A3CTXNQ2GXIQSP","either","6","555","","","","","","","0","0","1","","0.8","0.5","0.5","","","0.8","0.2","","","","","","","","","","","","","","","","74","J","0","img/none_selected_demo.jpg","true","0","80_20_practice",""
"","bandit","35","158950","0.0-18.0-17.0","50897091","wem/bandit_party_1","A3CTXNQ2GXIQSP","either","6","674","","","","","","","0","0","1","","0.2","0.5","0.5","","","0.8","0.2","","","","","","","","","","","","","","","","75","K","1","","true","0","80_20_practice",""
"","bandit","36","160784","0.0-18.0-18.0","50897091","wem/bandit_party_1","A3CTXNQ2GXIQSP","either","6","322","","","","","","","0","0","1","0.2","","0.5","0.5","","","","","","","0.8","0.2","","","","","","","","","","","","75","K","1","","true","0","80_20_practice",""
"","bandit","37","162711","0.0-18.0-19.0","50897091","wem/bandit_party_1","A3CTXNQ2GXIQSP","either","6","417","","","","","","","0","0","1","","0.2","0.5","0.5","","","0.8","0.2","","","","","","","","","","","","","","","","75","K","1","","true","0","80_20_practice",""
"","text-replacement","38","167183","0.0-19.0","50897091","wem/bandit_party_1","A3CTXNQ2GXIQSP","either","6","4470","","","32","","","","","","","","","","","","","","","","","","","","","","","","","","","","","","","","","","","","",""
"","bandit","39","169809","0.0-20.0-0.0","50897091","wem/bandit_party_1","A3CTXNQ2GXIQSP","either","6","1117","","","","","","","1","0","0","1","0","","","","","0","1","","","1","0","","","","","","","","","","","","74","J","0","img/none_selected_demo.jpg","true","0","",""
"","text-replacement","40","173365","0.0-21.0","50897091","wem/bandit_party_1","A3CTXNQ2GXIQSP","either","6","3554","","","32","","","","","","","","","","","","","","","","","","","","","","","","","","","","","","","","","","","","",""
"","text-replacement","41","175484","0.0-22.0","50897091","wem/bandit_party_1","A3CTXNQ2GXIQSP","either","6","2117","","","32","","","","","","","","","","","","","","","","","","","","","","","","","","","","","","","","","","","","",""
"","text-replacement","42","177412","0.0-23.0","50897091","wem/bandit_party_1","A3CTXNQ2GXIQSP","either","6","1925","","","32","","","","","","","","","","","","","","","","","","","","","","","","","","","","","","","","","","","","",""
"","text-replacement","43","180620","0.0-24.0","50897091","wem/bandit_party_1","A3CTXNQ2GXIQSP","either","6","3206","","","32","","","","","","","","","","","","","","","","","","","","","","","","","","","","","","","","","","","","",""
"","text-replacement","44","185537","0.0-25.0","50897091","wem/bandit_party_1","A3CTXNQ2GXIQSP","either","6","4915","","","32","","","","","","","","","","","","","","","","","","","","","","","","","","","","","","","","","","","","",""
"","text-replacement","45","187911","0.0-26.0","50897091","wem/bandit_party_1","A3CTXNQ2GXIQSP","either","6","2373","","","32","","","","","","","","","","","","","","","","","","","","","","","","","","","","","","","","","","","","",""
"","text-replacement","46","191863","0.0-27.0","50897091","wem/bandit_party_1","A3CTXNQ2GXIQSP","either","6","3949","","","32","","","","","","","","","","","","","","","","","","","","","","","","","","","","","","","","","","","","",""
"","text-replacement","47","197139","0.0-28.0","50897091","wem/bandit_party_1","A3CTXNQ2GXIQSP","either","6","5275","","","32","","","","","","","","","","","","","","","","","","","","","","","","","","","","","","","","","","","","",""
"","text-replacement","48","200529","0.0-29.0","50897091","wem/bandit_party_1","A3CTXNQ2GXIQSP","either","6","3388","","","32","","","","","","","","","","","","","","","","","","","","","","","","","","","","","","","","","","","","",""
"","text-replacement","49","202489","0.0-30.0","50897091","wem/bandit_party_1","A3CTXNQ2GXIQSP","either","6","1957","","","32","","","","","","","","","","","","","","","","","","","","","","","","","","","","","","","","","","","","",""
"","text-replacement","50","205337","0.0-31.0","50897091","wem/bandit_party_1","A3CTXNQ2GXIQSP","either","6","2846","","","32","","","","","","","","","","","","","","","","","","","","","","","","","","","","","","","","","","","","",""
"","bandit","51","207511","0.0-32.0-0.0","50897091","wem/bandit_party_1","A3CTXNQ2GXIQSP","either","6","661","","","","","","","1","0","0","0.8","","0.5","0.5","0.5","0.5","","","","","0.8","0.2","0.6","0.2","","","","","","","","","","72","H","0","img/none_selected.jpg","true","0","full_practice",""
"","bandit","52","209339","0.0-32.0-1.0","50897091","wem/bandit_party_1","A3CTXNQ2GXIQSP","either","6","319","","","","","","","1","0","0","0.8","","0.5","0.5","0.5","0.5","","","","","0.8","0.2","0.6","0.2","","","","","","","","","","72","H","0","img/none_selected.jpg","true","0","full_practice",""
"","bandit","53","211196","0.0-32.0-2.0","50897091","wem/bandit_party_1","A3CTXNQ2GXIQSP","either","6","346","","","","","","","0","1","0","","0.8","0.5","0.5","0.5","0.5","0.8","0.2","0.6","0.2","","","","","","","","","","","","","","72","H","0","img/none_selected.jpg","true","0","full_practice",""
"","bandit","54","213100","0.0-32.0-3.0","50897091","wem/bandit_party_1","A3CTXNQ2GXIQSP","either","6","392","","","","","","","0","1","0","","0.8","0.5","0.5","0.5","0.5","0.8","0.2","0.6","0.2","","","","","","","","","","","","","","72","H","0","img/none_selected.jpg","true","0","full_practice",""
"","bandit","55","214899","0.0-32.0-4.0","50897091","wem/bandit_party_1","A3CTXNQ2GXIQSP","either","6","289","","","","","","","1","0","0","0.8","","0.5","0.5","0.5","0.5","","","","","0.8","0.2","0.6","0.2","","","","","","","","","","72","H","0","img/none_selected.jpg","true","0","full_practice",""
"","bandit","56","216693","0.0-32.0-5.0","50897091","wem/bandit_party_1","A3CTXNQ2GXIQSP","either","6","283","","","","","","","0","1","0","","0.8","0.5","0.5","0.5","0.5","0.8","0.2","0.6","0.2","","","","","","","","","","","","","","72","H","0","img/none_selected.jpg","true","0","full_practice",""
"","bandit","57","218393","0.0-32.0-6.0","50897091","wem/bandit_party_1","A3CTXNQ2GXIQSP","either","6","193","","","","","","","1","0","0","0.8","","0.5","0.5","0.5","0.5","","","","","0.8","0.2","0.6","0.2","","","","","","","","","","72","H","0","img/none_selected.jpg","true","0","full_practice",""
"","bandit","58","220198","0.0-32.0-7.0","50897091","wem/bandit_party_1","A3CTXNQ2GXIQSP","either","6","294","","","","","","","1","0","0","0.8","","0.5","0.5","0.5","0.5","","","","","0.8","0.2","0.6","0.2","","","","","","","","","","72","H","0","img/none_selected.jpg","true","0","full_practice",""
"","bandit","59","221945","0.0-32.0-8.0","50897091","wem/bandit_party_1","A3CTXNQ2GXIQSP","either","6","239","","","","","","","1","0","0","0.8","","0.5","0.5","0.5","0.5","","","","","0.8","0.2","0.6","0.2","","","","","","","","","","72","H","0","img/none_selected.jpg","true","0","full_practice",""
"","bandit","60","223773","0.0-32.0-9.0","50897091","wem/bandit_party_1","A3CTXNQ2GXIQSP","either","6","316","","","","","","","0","0","1","","0.2","0.5","0.5","0.5","0.5","0.8","0.2","0.6","0.2","","","","","","","","","","","","","","74","J","1","","true","0","full_practice",""
"","bandit","61","225306","0.0-32.0-10.0","50897091","wem/bandit_party_1","A3CTXNQ2GXIQSP","either","6","18","","","","","","","0","1","0","","0.8","0.5","0.5","0.5","0.5","0.8","0.2","0.6","0.2","","","","","","","","","","","","","","72","H","0","img/none_selected.jpg","true","0","full_practice",""
"","bandit","62","227348","0.0-32.0-11.0","50897091","wem/bandit_party_1","A3CTXNQ2GXIQSP","either","6","532","","","","","","","1","0","0","0.6","","0.5","0.5","0.5","0.5","","","","","0.8","0.2","0.6","0.2","","","","","","","","","","75","K","2","","true","0","full_practice",""
"","bandit","63","229171","0.0-32.0-12.0","50897091","wem/bandit_party_1","A3CTXNQ2GXIQSP","either","6","312","","","","","","","1","0","0","0.6","","0.5","0.5","0.5","0.5","","","","","0.8","0.2","0.6","0.2","","","","","","","","","","75","K","2","","true","0","full_practice",""
"","bandit","64","231022","0.0-32.0-13.0","50897091","wem/bandit_party_1","A3CTXNQ2GXIQSP","either","6","340","","","","","","","0","1","0","","0.6","0.5","0.5","0.5","0.5","0.8","0.2","0.6","0.2","","","","","","","","","","","","","","75","K","2","","true","0","full_practice",""
"","bandit","65","232844","0.0-32.0-14.0","50897091","wem/bandit_party_1","A3CTXNQ2GXIQSP","either","6","311","","","","","","","0","0","1","","0.6","0.5","0.5","0.5","0.5","0.8","0.2","0.6","0.2","","","","","","","","","","","","","","75","K","2","","true","0","full_practice",""
"","bandit","66","234661","0.0-32.0-15.0","50897091","wem/bandit_party_1","A3CTXNQ2GXIQSP","either","6","305","","","","","","","0","0","1","0.2","","0.5","0.5","0.5","0.5","","","","","0.8","0.2","0.6","0.2","","","","","","","","","","76","L","3","","true","0","full_practice",""
"","bandit","67","236532","0.0-32.0-16.0","50897091","wem/bandit_party_1","A3CTXNQ2GXIQSP","either","6","359","","","","","","","1","0","0","0.8","","0.5","0.5","0.5","0.5","","","","","0.8","0.2","0.6","0.2","","","","","","","","","","72","H","0","img/none_selected.jpg","true","0","full_practice",""
"","bandit","68","238364","0.0-32.0-17.0","50897091","wem/bandit_party_1","A3CTXNQ2GXIQSP","either","6","321","","","","","","","1","0","0","0.8","","0.5","0.5","0.5","0.5","","","","","0.8","0.2","0.6","0.2","","","","","","","","","","72","H","0","img/none_selected.jpg","true","0","full_practice",""
"","bandit","69","240245","0.0-32.0-18.0","50897091","wem/bandit_party_1","A3CTXNQ2GXIQSP","either","6","369","","","","","","","0","1","0","","0.8","0.5","0.5","0.5","0.5","0.8","0.2","0.6","0.2","","","","","","","","","","","","","","72","H","0","img/none_selected.jpg","true","0","full_practice",""
"","bandit","70","242914","0.0-32.0-19.0","50897091","wem/bandit_party_1","A3CTXNQ2GXIQSP","either","6","1160","","","","","","","1","0","0","0.8","","0.5","0.5","0.5","0.5","","","","","0.8","0.2","0.6","0.2","","","","","","","","","","72","H","0","img/none_selected.jpg","true","0","full_practice",""
"","text","71","247182","0.0-33.0","50897091","wem/bandit_party_1","A3CTXNQ2GXIQSP","either","6","4260","","","32","","","","","","","","","","","","","","","","","","","","","","","","","","","","","","","","","","","","",""
"","text-replacement","72","257950","0.0-34.0","50897091","wem/bandit_party_1","A3CTXNQ2GXIQSP","either","6","9760","","","32","","","","","","","","","","","","","","","","","","","","","","","","","","","","","","","","","","","","",""
"","text-replacement","73","265457","0.0-35.0","50897091","wem/bandit_party_1","A3CTXNQ2GXIQSP","either","6","7504","","","32","","","","","","","","","","","","","","","","","","","","","","","","","","","","","","","","","","","","",""
"","text-replacement","74","270352","0.0-36.0","50897091","wem/bandit_party_1","A3CTXNQ2GXIQSP","either","6","4894","","","32","","","","","","","","","","","","","","","","","","","","","","","","","","","","","","","","","","","","",""
"","text-replacement","75","274915","0.0-37.0","50897091","wem/bandit_party_1","A3CTXNQ2GXIQSP","either","6","4560","","","32","","","","","","","","","","","","","","","","","","","","","","","","","","","","","","","","","","","","",""
"","text-replacement","76","280852","0.0-38.0","50897091","wem/bandit_party_1","A3CTXNQ2GXIQSP","either","6","5934","","","32","","","","","","","","","","","","","","","","","","","","","","","","","","","","","","","","","","","","",""
"","survey-multi-choice-replacement","77","286728","0.0-39.0-0.0","50897091","wem/bandit_party_1","A3CTXNQ2GXIQSP","either","6","5867","","","","","","","","","","","","","","","","","","","","","","","","Money will be added to the pool for <span style='color:blue;'>DEMOCRATS</span>","","","","","","","attn_check","","","","","","","","","0"
"","survey-multi-choice-replacement","78","290703","0.0-40.0-0.0","50897091","wem/bandit_party_1","A3CTXNQ2GXIQSP","either","6","2964","","","","","","","","","","","","","","","","","","","","","","","","Equal amounts of money will be added to the pool for <span style='color:blue;'>DEMOCRATS</span> and subtracted from the pool for <span style='color:red;'>REPUBLICANS</span>","","","","","","","attn_check","","","","","","","","","2"
"","survey-multi-choice-replacement","79","294657","0.0-41.0-0.0","50897091","wem/bandit_party_1","A3CTXNQ2GXIQSP","either","6","2943","","","","","","","","","","","","","","","","","","","","","","","","No money will be added to either pool","","","","","","","attn_check","","","","","","","","","3"
"","bandit","80","299995","0.0-42.0-0.0","50897091","wem/bandit_party_1","A3CTXNQ2GXIQSP","either","6","2825","","","","","","","0","0","1","0.1734470434","","0.6","0.4","0.8","0.2","","","","","0.1734470434","0.4656478179","0.1720655487","0.06094066238","","","","","","","","","","72","H","0","img/none_selected.jpg","","1","main_expt",""
"","bandit","81","302166","0.0-43.0-0.0","50897091","wem/bandit_party_1","A3CTXNQ2GXIQSP","either","6","658","","","","","","","1","0","0","0.4661883906","","0.6","0.4","0.8","0.2","","","","","0.1582158198","0.4661883906","0.1607886358","0.04941180107","","","","","","","","","","74","J","1","","","2","main_expt",""
"","bandit","82","304328","0.0-44.0-0.0","50897091","wem/bandit_party_1","A3CTXNQ2GXIQSP","either","6","648","","","","","","","0","0","1","","0.4608397999","0.6","0.4","0.8","0.2","0.1264016625","0.4608397999","0.1825924006","0.09066711981","","","","","","","","","","","","","","74","J","1","","","3","main_expt",""
"","bandit","83","306176","0.0-45.0-0.0","50897091","wem/bandit_party_1","A3CTXNQ2GXIQSP","either","6","334","","","","","","","0","0","1","0.1572982515","","0.6","0.4","0.8","0.2","","","","","0.1212924903","0.4568511376","0.1572982515","0.07815644495","","","","","","","","","","75","K","2","","","4","main_expt",""
"","bandit","84","308260","0.0-46.0-0.0","50897091","wem/bandit_party_1","A3CTXNQ2GXIQSP","either","6","572","","","","","","","0","0","1","","0.06547040057","0.6","0.4","0.8","0.2","0.1603104869","0.4576747282","0.1873501432","0.06547040057","","","","","","","","","","","","","","76","L","3","","","5","main_expt",""
"","bandit","85","311365","0.0-47.0-0.0","50897091","wem/bandit_party_1","A3CTXNQ2GXIQSP","either","6","1593","","","","","","","0","0","1","","0.4673201091","0.6","0.4","0.8","0.2","0.1916070739","0.4673201091","0.1484719509","0.09500806419","","","","","","","","","","","","","","74","J","1","","","6","main_expt",""
"","bandit","86","314059","0.0-48.0-0.0","50897091","wem/bandit_party_1","A3CTXNQ2GXIQSP","either","6","1184","","","","","","","1","0","0","0.4671816856","","0.6","0.4","0.8","0.2","","","","","0.1624213819","0.4671816856","0.1368680622","0.1156714339","","","","","","","","","","74","J","1","","","7","main_expt",""
"","bandit","87","316182","0.0-49.0-0.0","50897091","wem/bandit_party_1","A3CTXNQ2GXIQSP","either","6","611","","","","","","","0","1","0","","0.4577650209","0.6","0.4","0.8","0.2","0.1529627983","0.4577650209","0.1412197478","0.08939878806","","","","","","","","","","","","","","74","J","1","","","8","main_expt",""
"","bandit","88","318486","0.0-50.0-0.0","50897091","wem/bandit_party_1","A3CTXNQ2GXIQSP","either","6","790","","","","","","","0","1","0","","0.4538037209","0.6","0.4","0.8","0.2","0.1638779","0.4538037209","0.1285241668","0.1379609943","","","","","","","","","","","","","","74","J","1","","","9","main_expt",""
"","bandit","89","320692","0.0-51.0-0.0","50897091","wem/bandit_party_1","A3CTXNQ2GXIQSP","either","6","691","","","","","","","0","0","1","0.4567906288","","0.6","0.4","0.8","0.2","","","","","0.1682184418","0.4567906288","0.1137500729","0.08892925829","","","","","","","","","","74","J","1","","","10","main_expt",""
"","bandit","90","322868","0.0-52.0-0.0","50897091","wem/bandit_party_1","A3CTXNQ2GXIQSP","either","6","665","","","","","","","1","0","0","0.4707556997","","0.6","0.4","0.8","0.2","","","","","0.1511948373","0.4707556997","0.1134058804","0.1053961985","","","","","","","","","","74","J","1","","","11","main_expt",""
"","bandit","91","325280","0.0-53.0-0.0","50897091","wem/bandit_party_1","A3CTXNQ2GXIQSP","either","6","896","","","","","","","0","0","1","","0.4534589675","0.6","0.4","0.8","0.2","0.2144966391","0.4534589675","0.1358134986","0.1267534428","","","","","","","","","","","","","","74","J","1","","","12","main_expt",""
"","bandit","92","327181","0.0-54.0-0.0","50897091","wem/bandit_party_1","A3CTXNQ2GXIQSP","either","6","390","","","","","","","0","0","1","0.1443049275","","0.6","0.4","0.8","0.2","","","","","0.1443049275","0.4474824422","0.1105925571","0.1179877152","","","","","","","","","","72","H","0","img/none_selected.jpg","","13","main_expt",""
"","bandit","93","329328","0.0-55.0-0.0","50897091","wem/bandit_party_1","A3CTXNQ2GXIQSP","either","6","632","","","","","","","0","0","1","0.4125602811","","0.6","0.4","0.8","0.2","","","","","0.149160688","0.4125602811","0.09057326494","0.1300626215","","","","","","","","","","74","J","1","","","14","main_expt",""
"","bandit","94","331528","0.0-56.0-0.0","50897091","wem/bandit_party_1","A3CTXNQ2GXIQSP","either","6","684","","","","","","","0","0","1","0.3715785473","","0.6","0.4","0.8","0.2","","","","","0.1525333278","0.3715785473","0.05963436345","0.1129073675","","","","","","","","","","74","J","1","","","15","main_expt",""
"","bandit","95","333426","0.0-57.0-0.0","50897091","wem/bandit_party_1","A3CTXNQ2GXIQSP","either","6","388","","","","","","","0","0","1","","0.1437253933","0.6","0.4","0.8","0.2","0.1437253933","0.3670357029","0.03970917029","0.1132840383","","","","","","","","","","","","","","72","H","0","img/none_selected.jpg","","16","main_expt",""
"","bandit","96","335765","0.0-58.0-0.0","50897091","wem/bandit_party_1","A3CTXNQ2GXIQSP","either","6","827","","","","","","","0","0","1","0.03301664506","","0.6","0.4","0.8","0.2","","","","","0.1191274054","0.333794799","0.03301664506","0.1530786807","","","","","","","","","","75","K","2","","","17","main_expt",""
"","bandit","97","337784","0.0-59.0-0.0","50897091","wem/bandit_party_1","A3CTXNQ2GXIQSP","either","6","505","","","","","","","1","0","0","0.1367655081","","0.6","0.4","0.8","0.2","","","","","0.1231388663","0.3720862831","0.0325619","0.1367655081","","","","","","","","","","76","L","3","","","18","main_expt",""
"","bandit","98","339862","0.0-60.0-0.0","50897091","wem/bandit_party_1","A3CTXNQ2GXIQSP","either","6","564","","","","","","","0","1","0","","0.1519969922","0.6","0.4","0.8","0.2","0.1014962652","0.3940248177","0.05136562407","0.1519969922","","","","","","","","","","","","","","76","L","3","","","19","main_expt",""
"","bandit","99","341835","0.0-61.0-0.0","50897091","wem/bandit_party_1","A3CTXNQ2GXIQSP","either","6","462","","","","","","","0","0","1","","0.2344823222","0.6","0.4","0.8","0.2","0.1184271466","0.3980303587","0.05620034239","0.2344823222","","","","","","","","","","","","","","76","L","3","","","20","main_expt",""
"","bandit","100","343798","0.0-62.0-0.0","50897091","wem/bandit_party_1","A3CTXNQ2GXIQSP","either","6","450","","","","","","","0","0","1","","0.2227593861","0.6","0.4","0.8","0.2","0.1434190777","0.405953395","0.04865895453","0.2227593861","","","","","","","","","","","","","","76","L","3","","","21","main_expt",""
"","bandit","101","345910","0.0-63.0-0.0","50897091","wem/bandit_party_1","A3CTXNQ2GXIQSP","either","6","599","","","","","","","0","1","0","","0.1831098024","0.6","0.4","0.8","0.2","0.1323354157","0.37898799","0.05276066643","0.1831098024","","","","","","","","","","","","","","76","L","3","","","22","main_expt",""
"","bandit","102","348295","0.0-64.0-0.0","50897091","wem/bandit_party_1","A3CTXNQ2GXIQSP","either","6","872","","","","","","","0","1","0","","0.1660310818","0.6","0.4","0.8","0.2","0.1384191998","0.3661255489","0.05284133488","0.1660310818","","","","","","","","","","","","","","76","L","3","","","23","main_expt",""
"","bandit","103","350686","0.0-65.0-0.0","50897091","wem/bandit_party_1","A3CTXNQ2GXIQSP","either","6","877","","","","","","","0","0","1","","0.1400827643","0.6","0.4","0.8","0.2","0.1395593146","0.3576379461","0.0333904923","0.1400827643","","","","","","","","","","","","","","76","L","3","","","24","main_expt",""
"","bandit","104","352932","0.0-66.0-0.0","50897091","wem/bandit_party_1","A3CTXNQ2GXIQSP","either","6","734","","","","","","","0","0","1","0.04666446392","","0.6","0.4","0.8","0.2","","","","","0.1696236693","0.3346121782","0.04666446392","0.2022937807","","","","","","","","","","75","K","2","","","25","main_expt",""
"","bandit","105","355213","0.0-67.0-0.0","50897091","wem/bandit_party_1","A3CTXNQ2GXIQSP","either","6","768","","","","","","","0","0","1","0.04067930801","","0.6","0.4","0.8","0.2","","","","","0.1754084838","0.3790434843","0.04067930801","0.1725383963","","","","","","","","","","75","K","2","","","26","main_expt",""
"","bandit","106","357361","0.0-68.0-0.0","50897091","wem/bandit_party_1","A3CTXNQ2GXIQSP","either","6","638","","","","","","","0","0","1","0.03070036018","","0.6","0.4","0.8","0.2","","","","","0.118483546","0.3744762435","0.03070036018","0.1735642386","","","","","","","","","","75","K","2","","","27","main_expt",""
"","bandit","107","359740","0.0-69.0-0.0","50897091","wem/bandit_party_1","A3CTXNQ2GXIQSP","either","6","868","","","","","","","0","0","1","","0.1259847853","0.6","0.4","0.8","0.2","0.1259847853","0.3650769418","0.02292460278","0.149532802","","","","","","","","","","","","","","72","H","0","img/none_selected.jpg","","28","main_expt",""
"","bandit","108","361731","0.0-70.0-0.0","50897091","wem/bandit_party_1","A3CTXNQ2GXIQSP","either","6","478","","","","","","","0","0","1","0.1072727049","","0.6","0.4","0.8","0.2","","","","","0.1072727049","0.3299345172","0.03476379039","0.1597785082","","","","","","","","","","72","H","0","img/none_selected.jpg","","29","main_expt",""
"","bandit","109","364012","0.0-71.0-0.0","50897091","wem/bandit_party_1","A3CTXNQ2GXIQSP","either","6","769","","","","","","","0","0","1","","0.1978771271","0.6","0.4","0.8","0.2","0.07952930744","0.3010095271","0.04211589453","0.1978771271","","","","","","","","","","","","","","76","L","3","","","30","main_expt",""
"","bandit","110","365939","0.0-72.0-0.0","50897091","wem/bandit_party_1","A3CTXNQ2GXIQSP","either","6","415","","","","","","","0","0","1","","0.1928768267","0.6","0.4","0.8","0.2","0.09691030242","0.331530841","0.04495483672","0.1928768267","","","","","","","","","","","","","","76","L","3","","","31","main_expt",""
"","bandit","111","368411","0.0-73.0-0.0","50897091","wem/bandit_party_1","A3CTXNQ2GXIQSP","either","6","961","","","","","","","0","1","0","","0.3469043085","0.6","0.4","0.8","0.2","0.1338720944","0.3469043085","0.04126869591","0.1511047494","","","","","","","","","","","","","","74","J","1","","","32","main_expt",""
"","bandit","112","371006","0.0-74.0-0.0","50897091","wem/bandit_party_1","A3CTXNQ2GXIQSP","either","6","1080","","","","","","","0","0","1","0.2778139242","","0.6","0.4","0.8","0.2","","","","","0.1428203538","0.2778139242","0.02396570111","0.09247049486","","","","","","","","","","74","J","1","","","33","main_expt",""
"","bandit","113","373948","0.0-75.0-0.0","50897091","wem/bandit_party_1","A3CTXNQ2GXIQSP","either","6","1429","","","","","","","0","0","1","","0.236883459","0.6","0.4","0.8","0.2","0.1258169527","0.236883459","0.03561151332","0.1127946788","","","","","","","","","","","","","","74","J","1","","","34","main_expt",""
"","bandit","114","376084","0.0-76.0-0.0","50897091","wem/bandit_party_1","A3CTXNQ2GXIQSP","either","6","621","","","","","","","0","0","1","","0.1279928094","0.6","0.4","0.8","0.2","0.1652362889","0.2656196476","0.04565222073","0.1279928094","","","","","","","","","","","","","","76","L","3","","","35","main_expt",""
"","bandit","115","378371","0.0-77.0-0.0","50897091","wem/bandit_party_1","A3CTXNQ2GXIQSP","either","6","774","","","","","","","0","0","1","0.09285608896","","0.6","0.4","0.8","0.2","","","","","0.1472348388","0.2309028503","0.05036449293","0.09285608896","","","","","","","","","","76","L","3","","","36","main_expt",""
"","bandit","116","380553","0.0-78.0-0.0","50897091","wem/bandit_party_1","A3CTXNQ2GXIQSP","either","6","672","","","","","","","0","0","1","","0.1251507517","0.6","0.4","0.8","0.2","0.20581188","0.1961267878","0.04764774511","0.1251507517","","","","","","","","","","","","","","76","L","3","","","37","main_expt",""
"","bandit","117","382671","0.0-79.0-0.0","50897091","wem/bandit_party_1","A3CTXNQ2GXIQSP","either","6","603","","","","","","","0","0","1","0.04692466818","","0.6","0.4","0.8","0.2","","","","","0.2096070571","0.2197692452","0.04692466818","0.1248439258","","","","","","","","","","75","K","2","","","38","main_expt",""
"","bandit","118","384958","0.0-80.0-0.0","50897091","wem/bandit_party_1","A3CTXNQ2GXIQSP","either","6","772","","","","","","","0","0","1","0.06150360576","","0.6","0.4","0.8","0.2","","","","","0.1888903691","0.1783178102","0.06150360576","0.1192858938","","","","","","","","","","75","K","2","","","39","main_expt",""
"","bandit","119","386810","0.0-81.0-0.0","50897091","wem/bandit_party_1","A3CTXNQ2GXIQSP","either","6","340","","","","","","","0","0","1","","0.1769314034","0.6","0.4","0.8","0.2","0.1769314034","0.1354267005","0.1025324214","0.1457630933","","","","","","","","","","","","","","72","H","0","img/none_selected.jpg","","40","main_expt",""
"","bandit","120","388806","0.0-82.0-0.0","50897091","wem/bandit_party_1","A3CTXNQ2GXIQSP","either","6","482","","","","","","","0","0","1","0.1307301687","","0.6","0.4","0.8","0.2","","","","","0.1764673912","0.1307301687","0.1278282258","0.1788887836","","","","","","","","","","74","J","1","","","41","main_expt",""
"","bandit","121","390872","0.0-83.0-0.0","50897091","wem/bandit_party_1","A3CTXNQ2GXIQSP","either","6","557","","","","","","","0","0","1","0.1002459791","","0.6","0.4","0.8","0.2","","","","","0.1164002711","0.1002459791","0.1144783829","0.1550439797","","","","","","","","","","74","J","1","","","42","main_expt",""
"","bandit","122","392991","0.0-84.0-0.0","50897091","wem/bandit_party_1","A3CTXNQ2GXIQSP","either","6","604","","","","","","","0","0","1","0.06131682752","","0.6","0.4","0.8","0.2","","","","","0.1248357276","0.06131682752","0.148274456","0.1624336935","","","","","","","","","","74","J","1","","","43","main_expt",""
"","bandit","123","394906","0.0-85.0-0.0","50897091","wem/bandit_party_1","A3CTXNQ2GXIQSP","either","6","403","","","","","","","0","0","1","0.05757194937","","0.6","0.4","0.8","0.2","","","","","0.1801883524","0.05757194937","0.1733993608","0.2610419313","","","","","","","","","","74","J","1","","","44","main_expt",""
"","bandit","124","396787","0.0-86.0-0.0","50897091","wem/bandit_party_1","A3CTXNQ2GXIQSP","either","6","369","","","","","","","0","0","1","0.1731137141","","0.6","0.4","0.8","0.2","","","","","0.1536252234","0.06317169253","0.1731137141","0.2547096211","","","","","","","","","","75","K","2","","","45","main_expt",""
"","bandit","125","399034","0.0-87.0-0.0","50897091","wem/bandit_party_1","A3CTXNQ2GXIQSP","either","6","735","","","","","","","0","0","1","0.2577534017","","0.6","0.4","0.8","0.2","","","","","0.1453657368","0.08604650327","0.2577534017","0.2690630982","","","","","","","","","","75","K","2","","","46","main_expt",""
"","bandit","126","401477","0.0-88.0-0.0","50897091","wem/bandit_party_1","A3CTXNQ2GXIQSP","either","6","929","","","","","","","0","0","1","0.1163474927","","0.6","0.4","0.8","0.2","","","","","0.1163474927","0.07503215105","0.2436059896","0.2613787364","","","","","","","","","","72","H","0","img/none_selected.jpg","","47","main_expt",""
"","bandit","127","403681","0.0-89.0-0.0","50897091","wem/bandit_party_1","A3CTXNQ2GXIQSP","either","6","693","","","","","","","0","0","1","","0.1187671899","0.6","0.4","0.8","0.2","0.1187671899","0.09661626413","0.261356988","0.2764851171","","","","","","","","","","","","","","72","H","0","img/none_selected.jpg","","48","main_expt",""
"","bandit","128","405831","0.0-90.0-0.0","50897091","wem/bandit_party_1","A3CTXNQ2GXIQSP","either","6","633","","","","","","","0","0","1","0.1321787199","","0.6","0.4","0.8","0.2","","","","","0.1321787199","0.141419135","0.2707362224","0.2628846066","","","","","","","","","","72","H","0","img/none_selected.jpg","","49","main_expt",""
"","bandit","129","407988","0.0-91.0-0.0","50897091","wem/bandit_party_1","A3CTXNQ2GXIQSP","either","6","643","","","","","","","0","0","1","","0.1310663867","0.6","0.4","0.8","0.2","0.1310663867","0.1341637883","0.2733601765","0.3634831931","","","","","","","","","","","","","","72","H","0","img/none_selected.jpg","","50","main_expt",""
"","bandit","130","410037","0.0-92.0-0.0","50897091","wem/bandit_party_1","A3CTXNQ2GXIQSP","either","6","534","","","","","","","0","1","0","","0.3771608335","0.6","0.4","0.8","0.2","0.1450472339","0.1225974466","0.2590969561","0.3771608335","","","","","","","","","","","","","","76","L","3","","","51","main_expt",""
"","bandit","131","412185","0.0-93.0-0.0","50897091","wem/bandit_party_1","A3CTXNQ2GXIQSP","either","6","637","","","","","","","0","1","0","","0.3093307572","0.6","0.4","0.8","0.2","0.1731775471","0.1145468474","0.2515646212","0.3093307572","","","","","","","","","","","","","","76","L","3","","","52","main_expt",""
"","bandit","132","414633","0.0-94.0-0.0","50897091","wem/bandit_party_1","A3CTXNQ2GXIQSP","either","6","938","","","","","","","0","1","0","","0.2990929044","0.6","0.4","0.8","0.2","0.2258016315","0.1059564611","0.2257746054","0.2990929044","","","","","","","","","","","","","","76","L","3","","","53","main_expt",""
"","bandit","133","416996","0.0-95.0-0.0","50897091","wem/bandit_party_1","A3CTXNQ2GXIQSP","either","6","848","","","","","","","0","0","1","","0.2221679908","0.6","0.4","0.8","0.2","0.2172527187","0.1090017536","0.2750925763","0.2221679908","","","","","","","","","","","","","","76","L","3","","","54","main_expt",""
"","bandit","134","419201","0.0-96.0-0.0","50897091","wem/bandit_party_1","A3CTXNQ2GXIQSP","either","6","695","","","","","","","0","0","1","0.1886471815","","0.6","0.4","0.8","0.2","","","","","0.1652356872","0.1249444004","0.3608357377","0.1886471815","","","","","","","","","","76","L","3","","","55","main_expt",""
"","bandit","135","421586","0.0-97.0-0.0","50897091","wem/bandit_party_1","A3CTXNQ2GXIQSP","either","6","872","","","","","","","0","0","1","","0.1973213641","0.6","0.4","0.8","0.2","0.1576418272","0.09043885587","0.4022545085","0.1973213641","","","","","","","","","","","","","","76","L","3","","","56","main_expt",""
"","bandit","136","424209","0.0-98.0-0.0","50897091","wem/bandit_party_1","A3CTXNQ2GXIQSP","either","6","1112","","","","","","","0","0","1","","0.2207101474","0.6","0.4","0.8","0.2","0.180776926","0.07448640425","0.3867568464","0.2207101474","","","","","","","","","","","","","","76","L","3","","","57","main_expt",""
"","bandit","137","427015","0.0-99.0-0.0","50897091","wem/bandit_party_1","A3CTXNQ2GXIQSP","either","6","1289","","","","","","","0","0","1","","0.2480089655","0.6","0.4","0.8","0.2","0.1489081552","0.09808879237","0.3840355114","0.2480089655","","","","","","","","","","","","","","76","L","3","","","58","main_expt",""
"","bandit","138","428836","0.0-100.0-0.0","50897091","wem/bandit_party_1","A3CTXNQ2GXIQSP","either","6","307","","","","","","","0","0","1","0.3617876187","","0.6","0.4","0.8","0.2","","","","","0.125555473","0.0721355853","0.3617876187","0.2667579505","","","","","","","","","","75","K","2","","","59","main_expt",""
"","bandit","139","431193","0.0-101.0-0.0","50897091","wem/bandit_party_1","A3CTXNQ2GXIQSP","either","6","846","","","","","","","0","0","1","","0.3018070945","0.6","0.4","0.8","0.2","0.1228814318","0.08871326978","0.3018070945","0.2637313595","","","","","","","","","","","","","","75","K","2","","","60","main_expt",""
"","bandit","140","433136","0.0-102.0-0.0","50897091","wem/bandit_party_1","A3CTXNQ2GXIQSP","either","6","432","","","","","","","0","0","1","0.1472383223","","0.6","0.4","0.8","0.2","","","","","0.195834737","0.1472383223","0.2687465691","0.2400462537","","","","","","","","","","74","J","1","","","61","main_expt",""
"","bandit","141","435051","0.0-103.0-0.0","50897091","wem/bandit_party_1","A3CTXNQ2GXIQSP","either","6","402","","","","","","","0","0","1","","0.1625866577","0.6","0.4","0.8","0.2","0.1952904108","0.1625866577","0.287622952","0.2396546157","","","","","","","","","","","","","","74","J","1","","","62","main_expt",""
"","bandit","142","437274","0.0-104.0-0.0","50897091","wem/bandit_party_1","A3CTXNQ2GXIQSP","either","6","710","","","","","","","0","0","1","0.187392073","","0.6","0.4","0.8","0.2","","","","","0.187392073","0.1196153378","0.2060093557","0.2558687718","","","","","","","","","","72","H","0","img/none_selected.jpg","","63","main_expt",""
"","bandit","143","439503","0.0-105.0-0.0","50897091","wem/bandit_party_1","A3CTXNQ2GXIQSP","either","6","719","","","","","","","0","0","1","","0.1774517964","0.6","0.4","0.8","0.2","0.1774517964","0.1025290435","0.1865830226","0.1789331692","","","","","","","","","","","","","","72","H","0","img/none_selected.jpg","","64","main_expt",""
"","bandit","144","442056","0.0-106.0-0.0","50897091","wem/bandit_party_1","A3CTXNQ2GXIQSP","either","6","1041","","","","","","","0","0","1","0.1956590225","","0.6","0.4","0.8","0.2","","","","","0.1956590225","0.06637487434","0.2242960511","0.2041721298","","","","","","","","","","72","H","0","img/none_selected.jpg","","65","main_expt",""
"","bandit","145","443925","0.0-107.0-0.0","50897091","wem/bandit_party_1","A3CTXNQ2GXIQSP","either","6","353","","","","","","","1","0","0","0.1083731131","","0.6","0.4","0.8","0.2","","","","","0.1559932489","0.09888809835","0.213739571","0.1083731131","","","","","","","","","","76","L","3","","","66","main_expt",""
"","bandit","146","446067","0.0-108.0-0.0","50897091","wem/bandit_party_1","A3CTXNQ2GXIQSP","either","6","627","","","","","","","0","0","1","","0.08148965902","0.6","0.4","0.8","0.2","0.1327283285","0.08542348091","0.2463093088","0.08148965902","","","","","","","","","","","","","","76","L","3","","","67","main_expt",""
"","bandit","147","447924","0.0-109.0-0.0","50897091","wem/bandit_party_1","A3CTXNQ2GXIQSP","either","6","344","","","","","","","0","1","0","","0.115871946","0.6","0.4","0.8","0.2","0.1646421129","0.05648132023","0.1863602012","0.115871946","","","","","","","","","","","","","","76","L","3","","","68","main_expt",""
"","bandit","148","450681","0.0-110.0-0.0","50897091","wem/bandit_party_1","A3CTXNQ2GXIQSP","either","6","1244","","","","","","","0","0","1","","0.1049465522","0.6","0.4","0.8","0.2","0.1879918005","0.07427448495","0.1481768435","0.1049465522","","","","","","","","","","","","","","76","L","3","","","69","main_expt",""
"","bandit","149","453252","0.0-111.0-0.0","50897091","wem/bandit_party_1","A3CTXNQ2GXIQSP","either","6","1056","","","","","","","0","0","1","","0.1224614501","0.6","0.4","0.8","0.2","0.1708527721","0.1052870039","0.2062415021","0.1224614501","","","","","","","","","","","","","","76","L","3","","","70","main_expt",""
"","bandit","150","455452","0.0-112.0-0.0","50897091","wem/bandit_party_1","A3CTXNQ2GXIQSP","either","6","684","","","","","","","0","0","1","0.1687358413","","0.6","0.4","0.8","0.2","","","","","0.1930923514","0.1114501371","0.2175562698","0.1687358413","","","","","","","","","","76","L","3","","","71","main_expt",""
"","bandit","151","457298","0.0-113.0-0.0","50897091","wem/bandit_party_1","A3CTXNQ2GXIQSP","either","6","332","","","","","","","0","0","1","0.2182173038","","0.6","0.4","0.8","0.2","","","","","0.2289396243","0.1282799478","0.2182173038","0.1902964731","","","","","","","","","","75","K","2","","","72","main_expt",""
"","bandit","152","459236","0.0-114.0-0.0","50897091","wem/bandit_party_1","A3CTXNQ2GXIQSP","either","6","424","","","","","","","0","0","1","0.1629952044","","0.6","0.4","0.8","0.2","","","","","0.2223781067","0.1113050996","0.1629952044","0.1764690901","","","","","","","","","","75","K","2","","","73","main_expt",""
"","bandit","153","461169","0.0-115.0-0.0","50897091","wem/bandit_party_1","A3CTXNQ2GXIQSP","either","6","421","","","","","","","0","0","1","","0.1573287606","0.6","0.4","0.8","0.2","0.1664819569","0.1573287606","0.2291178652","0.1720288853","","","","","","","","","","","","","","74","J","1","","","74","main_expt",""
"","bandit","154","464065","0.0-116.0-0.0","50897091","wem/bandit_party_1","A3CTXNQ2GXIQSP","either","6","1383","","","","","","","0","1","0","","0.168318459","0.6","0.4","0.8","0.2","0.1157276324","0.168318459","0.2087405931","0.098780463","","","","","","","","","","","","","","74","J","1","","","75","main_expt",""
"","bandit","155","466380","0.0-117.0-0.0","50897091","wem/bandit_party_1","A3CTXNQ2GXIQSP","either","6","800","","","","","","","0","0","1","","0.131742089","0.6","0.4","0.8","0.2","0.06912044911","0.131742089","0.1981976751","0.08192786134","","","","","","","","","","","","","","74","J","1","","","76","main_expt",""
"","bandit","156","468673","0.0-118.0-0.0","50897091","wem/bandit_party_1","A3CTXNQ2GXIQSP","either","6","779","","","","","","","0","1","0","","0.1382621175","0.6","0.4","0.8","0.2","0.06151132513","0.1382621175","0.2302368041","0.03620126105","","","","","","","","","","","","","","74","J","1","","","77","main_expt",""
"","bandit","157","470718","0.0-119.0-0.0","50897091","wem/bandit_party_1","A3CTXNQ2GXIQSP","either","6","528","","","","","","","0","0","1","","0.1351161864","0.6","0.4","0.8","0.2","0.08824794056","0.1351161864","0.2538269909","0.03362754592","","","","","","","","","","","","","","74","J","1","","","78","main_expt",""
"","bandit","158","472840","0.0-120.0-0.0","50897091","wem/bandit_party_1","A3CTXNQ2GXIQSP","either","6","610","","","","","","","0","0","1","","0.1125986002","0.6","0.4","0.8","0.2","0.08425003046","0.1125986002","0.221492582","0.03917851348","","","","","","","","","","","","","","74","J","1","","","79","main_expt",""
"","bandit","159","475052","0.0-121.0-0.0","50897091","wem/bandit_party_1","A3CTXNQ2GXIQSP","either","6","696","","","","","","","0","0","1","","0.1071358869","0.6","0.4","0.8","0.2","0.1059393704","0.1071358869","0.2126184008","0.06916691586","","","","","","","","","","","","","","74","J","1","","","80","main_expt",""
"","bandit","160","477472","0.0-122.0-0.0","50897091","wem/bandit_party_1","A3CTXNQ2GXIQSP","either","6","909","","","","","","","0","0","1","","0.1410751298","0.6","0.4","0.8","0.2","0.114990546","0.1410751298","0.1803612399","0.1110223174","","","","","","","","","","","","","","74","J","1","","","81","main_expt",""
"","bandit","161","479335","0.0-123.0-0.0","50897091","wem/bandit_party_1","A3CTXNQ2GXIQSP","either","6","351","","","","","","","0","0","1","","0.1246300745","0.6","0.4","0.8","0.2","0.1246300745","0.1518454263","0.1883980103","0.08899533144","","","","","","","","","","","","","","72","H","0","img/none_selected.jpg","","82","main_expt",""
"","bandit","162","481507","0.0-124.0-0.0","50897091","wem/bandit_party_1","A3CTXNQ2GXIQSP","either","6","658","","","","","","","0","0","1","","0.1523433176","0.6","0.4","0.8","0.2","0.1523433176","0.1285150734","0.2099895667","0.1383499545","","","","","","","","","","","","","","72","H","0","img/none_selected.jpg","","83","main_expt",""
"","bandit","163","483490","0.0-125.0-0.0","50897091","wem/bandit_party_1","A3CTXNQ2GXIQSP","either","6","469","","","","","","","0","0","1","","0.1230513595","0.6","0.4","0.8","0.2","0.1230513595","0.1083679187","0.1760666055","0.1815119679","","","","","","","","","","","","","","72","H","0","img/none_selected.jpg","","84","main_expt",""
"","bandit","164","485541","0.0-126.0-0.0","50897091","wem/bandit_party_1","A3CTXNQ2GXIQSP","either","6","533","","","","","","","0","0","1","","0.2121304898","0.6","0.4","0.8","0.2","0.1460595132","0.08985983991","0.2077415988","0.2121304898","","","","","","","","","","","","","","76","L","3","","","85","main_expt",""
"","bandit","165","488068","0.0-127.0-0.0","50897091","wem/bandit_party_1","A3CTXNQ2GXIQSP","either","6","1018","","","","","","","0","1","0","","0.1931166697","0.6","0.4","0.8","0.2","0.1578730034","0.08377758623","0.1940704576","0.1931166697","","","","","","","","","","","","","","76","L","3","","","86","main_expt",""
"","bandit","166","490497","0.0-128.0-0.0","50897091","wem/bandit_party_1","A3CTXNQ2GXIQSP","either","6","915","","","","","","","0","0","1","","0.1908876969","0.6","0.4","0.8","0.2","0.1329566931","0.08340742779","0.1920524506","0.1908876969","","","","","","","","","","","","","","76","L","3","","","87","main_expt",""
"","bandit","167","492751","0.0-129.0-0.0","50897091","wem/bandit_party_1","A3CTXNQ2GXIQSP","either","6","744","","","","","","","0","0","1","0.1727332377","","0.6","0.4","0.8","0.2","","","","","0.1156353122","0.06937011617","0.2525081946","0.1727332377","","","","","","","","","","76","L","3","","","88","main_expt",""
"","bandit","168","495081","0.0-130.0-0.0","50897091","wem/bandit_party_1","A3CTXNQ2GXIQSP","either","6","816","","","","","","","0","0","1","","0.1747664758","0.6","0.4","0.8","0.2","0.1169245856","0.08556693901","0.2476280913","0.1747664758","","","","","","","","","","","","","","76","L","3","","","89","main_expt",""
"","bandit","169","497129","0.0-131.0-0.0","50897091","wem/bandit_party_1","A3CTXNQ2GXIQSP","either","6","535","","","","","","","0","0","1","","0.1013294801","0.6","0.4","0.8","0.2","0.1276927611","0.1013294801","0.2476417222","0.1302891894","","","","","","","","","","","","","","74","J","1","","","90","main_expt",""
"","bandit","170","499231","0.0-132.0-0.0","50897091","wem/bandit_party_1","A3CTXNQ2GXIQSP","either","6","590","","","","","","","0","0","1","0.1567130635","","0.6","0.4","0.8","0.2","","","","","0.1633868825","0.1567130635","0.1875867431","0.1143331172","","","","","","","","","","74","J","1","","","91","main_expt",""
"","bandit","171","501703","0.0-133.0-0.0","50897091","wem/bandit_party_1","A3CTXNQ2GXIQSP","either","6","960","","","","","","","0","0","1","","0.1674068059","0.6","0.4","0.8","0.2","0.2172033847","0.1214255195","0.1804963823","0.1674068059","","","","","","","","","","","","","","76","L","3","","","92","main_expt",""
"","bandit","172","504069","0.0-134.0-0.0","50897091","wem/bandit_party_1","A3CTXNQ2GXIQSP","either","6","858","","","","","","","0","0","1","","0.1405005834","0.6","0.4","0.8","0.2","0.2178255547","0.1317465968","0.1468121695","0.1405005834","","","","","","","","","","","","","","76","L","3","","","93","main_expt",""
"","bandit","173","505969","0.0-135.0-0.0","50897091","wem/bandit_party_1","A3CTXNQ2GXIQSP","either","6","385","","","","","","","0","0","1","0.1270151289","","0.6","0.4","0.8","0.2","","","","","0.2058786334","0.1810196293","0.1270151289","0.1338278818","","","","","","","","","","75","K","2","","","94","main_expt",""
"","bandit","174","508304","0.0-136.0-0.0","50897091","wem/bandit_party_1","A3CTXNQ2GXIQSP","either","6","823","","","","","","","0","0","1","","0.1049494322","0.6","0.4","0.8","0.2","0.2009860572","0.1537803575","0.1049494322","0.16416917","","","","","","","","","","","","","","75","K","2","","","95","main_expt",""
"","bandit","175","511186","0.0-137.0-0.0","50897091","wem/bandit_party_1","A3CTXNQ2GXIQSP","either","6","1366","","","","","","","1","0","0","0.2792576191","","0.6","0.4","0.8","0.2","","","","","0.2792576191","0.2255368078","0.1242023773","0.1075549125","","","","","","","","","","72","H","0","img/none_selected.jpg","","96","main_expt",""
"","bandit","176","513264","0.0-138.0-0.0","50897091","wem/bandit_party_1","A3CTXNQ2GXIQSP","either","6","563","","","","","","","0","0","1","","0.291042229","0.6","0.4","0.8","0.2","0.291042229","0.1881791955","0.101802889","0.07285617598","","","","","","","","","","","","","","72","H","0","img/none_selected.jpg","","97","main_expt",""
"","bandit","177","515104","0.0-139.0-0.0","50897091","wem/bandit_party_1","A3CTXNQ2GXIQSP","either","6","328","","","","","","","0","0","1","","0.2919937097","0.6","0.4","0.8","0.2","0.2919937097","0.1722186849","0.08559904752","0.1128802937","","","","","","","","","","","","","","72","H","0","img/none_selected.jpg","","98","main_expt",""
"","bandit","178","516892","0.0-140.0-0.0","50897091","wem/bandit_party_1","A3CTXNQ2GXIQSP","either","6","271","","","","","","","1","0","0","0.338066437","","0.6","0.4","0.8","0.2","","","","","0.338066437","0.2581810796","0.04480153982","0.07338875894","","","","","","","","","","72","H","0","img/none_selected.jpg","","99","main_expt",""
"","bandit","179","518714","0.0-141.0-0.0","50897091","wem/bandit_party_1","A3CTXNQ2GXIQSP","either","6","307","","","","","","","1","0","0","0.3466775547","","0.6","0.4","0.8","0.2","","","","","0.3466775547","0.3094702251","0.03694367041","0.06256672301","","","","","","","","","","72","H","0","img/none_selected.jpg","","100","main_expt",""
"","bandit","180","520531","0.0-142.0-0.0","50897091","wem/bandit_party_1","A3CTXNQ2GXIQSP","either","6","300","","","","","","","0","0","1","","0.3776837944","0.6","0.4","0.8","0.2","0.3776837944","0.3217449289","0.02534596886","0.06765033746","","","","","","","","","","","","","","72","H","0","img/none_selected.jpg","","101","main_expt",""
"","bandit","181","522359","0.0-143.0-0.0","50897091","wem/bandit_party_1","A3CTXNQ2GXIQSP","either","6","315","","","","","","","1","0","0","0.3988278911","","0.6","0.4","0.8","0.2","","","","","0.3988278911","0.3656493725","0.03456503798","0.08460413752","","","","","","","","","","72","H","0","img/none_selected.jpg","","102","main_expt",""
"","bandit","182","524413","0.0-144.0-0.0","50897091","wem/bandit_party_1","A3CTXNQ2GXIQSP","either","6","542","","","","","","","0","1","0","","0.3642388176","0.6","0.4","0.8","0.2","0.3642388176","0.4097417878","0.03116272615","0.1149622558","","","","","","","","","","","","","","72","H","0","img/none_selected.jpg","","103","main_expt",""
"","bandit","183","526648","0.0-145.0-0.0","50897091","wem/bandit_party_1","A3CTXNQ2GXIQSP","either","6","723","","","","","","","0","0","1","0.3059376685","","0.6","0.4","0.8","0.2","","","","","0.3059376685","0.4005896235","0.04034009898","0.1223821921","","","","","","","","","","72","H","0","img/none_selected.jpg","","104","main_expt",""
"","bandit","184","528615","0.0-146.0-0.0","50897091","wem/bandit_party_1","A3CTXNQ2GXIQSP","either","6","455","","","","","","","0","0","1","","0.2658022239","0.6","0.4","0.8","0.2","0.2658022239","0.3967946647","0.06132200156","0.1302837569","","","","","","","","","","","","","","72","H","0","img/none_selected.jpg","","105","main_expt",""
"","bandit","185","530670","0.0-147.0-0.0","50897091","wem/bandit_party_1","A3CTXNQ2GXIQSP","either","6","542","","","","","","","0","1","0","","0.2583534607","0.6","0.4","0.8","0.2","0.2583534607","0.3920329447","0.03171667797","0.1405927316","","","","","","","","","","","","","","72","H","0","img/none_selected.jpg","","106","main_expt",""
"","bandit","186","532923","0.0-148.0-0.0","50897091","wem/bandit_party_1","A3CTXNQ2GXIQSP","either","6","736","","","","","","","0","0","1","","0.2402432731","0.6","0.4","0.8","0.2","0.2402432731","0.3973329777","0.06603394544","0.1835021143","","","","","","","","","","","","","","72","H","0","img/none_selected.jpg","","107","main_expt",""
"","bandit","187","535095","0.0-149.0-0.0","50897091","wem/bandit_party_1","A3CTXNQ2GXIQSP","either","6","659","","","","","","","0","0","1","0.2364509509","","0.6","0.4","0.8","0.2","","","","","0.2364509509","0.3839010997","0.08137973005","0.2124513917","","","","","","","","","","72","H","0","img/none_selected.jpg","","108","main_expt",""
"","bandit","188","537188","0.0-150.0-0.0","50897091","wem/bandit_party_1","A3CTXNQ2GXIQSP","either","6","575","","","","","","","0","0","1","0.3879107289","","0.6","0.4","0.8","0.2","","","","","0.2164051194","0.3879107289","0.04765661509","0.218007314","","","","","","","","","","74","J","1","","","109","main_expt",""
"","bandit","189","539312","0.0-151.0-0.0","50897091","wem/bandit_party_1","A3CTXNQ2GXIQSP","either","6","611","","","","","","","0","0","1","0.06789381979","","0.6","0.4","0.8","0.2","","","","","0.1611838666","0.3989855113","0.06789381979","0.229469423","","","","","","","","","","75","K","2","","","110","main_expt",""
"","bandit","190","541680","0.0-152.0-0.0","50897091","wem/bandit_party_1","A3CTXNQ2GXIQSP","either","6","854","","","","","","","0","0","1","0.08972795074","","0.6","0.4","0.8","0.2","","","","","0.2042622235","0.3959495959","0.08972795074","0.2923436213","","","","","","","","","","75","K","2","","","111","main_expt",""
"","bandit","191","543752","0.0-153.0-0.0","50897091","wem/bandit_party_1","A3CTXNQ2GXIQSP","either","6","557","","","","","","","0","0","1","","0.2113733305","0.6","0.4","0.8","0.2","0.2113733305","0.335596647","0.1176683061","0.2778802509","","","","","","","","","","","","","","72","H","0","img/none_selected.jpg","","112","main_expt",""
"","bandit","192","545702","0.0-154.0-0.0","50897091","wem/bandit_party_1","A3CTXNQ2GXIQSP","either","6","438","","","","","","","0","0","1","0.2852166322","","0.6","0.4","0.8","0.2","","","","","0.220236308","0.2876347753","0.1973953549","0.2852166322","","","","","","","","","","76","L","3","","","113","main_expt",""
"","bandit","193","547681","0.0-155.0-0.0","50897091","wem/bandit_party_1","A3CTXNQ2GXIQSP","either","6","465","","","","","","","0","0","1","0.2453392608","","0.6","0.4","0.8","0.2","","","","","0.2453392608","0.2811359795","0.200840576","0.3222351196","","","","","","","","","","72","H","0","img/none_selected.jpg","","114","main_expt",""
"","bandit","194","550131","0.0-156.0-0.0","50897091","wem/bandit_party_1","A3CTXNQ2GXIQSP","either","6","932","","","","","","","0","0","1","","0.2311931225","0.6","0.4","0.8","0.2","0.2311931225","0.2056035349","0.2544006126","0.2865303103","","","","","","","","","","","","","","72","H","0","img/none_selected.jpg","","115","main_expt",""
"","bandit","195","552168","0.0-157.0-0.0","50897091","wem/bandit_party_1","A3CTXNQ2GXIQSP","either","6","524","","","","","","","0","0","1","0.2435386161","","0.6","0.4","0.8","0.2","","","","","0.2290532582","0.2435386161","0.2264812366","0.1901772154","","","","","","","","","","74","J","1","","","116","main_expt",""
"","bandit","196","554205","0.0-158.0-0.0","50897091","wem/bandit_party_1","A3CTXNQ2GXIQSP","either","6","526","","","","","","","0","0","1","0.2610634121","","0.6","0.4","0.8","0.2","","","","","0.2610634121","0.2523066444","0.2535822563","0.1854727963","","","","","","","","","","72","H","0","img/none_selected.jpg","","117","main_expt",""
"","bandit","197","556433","0.0-159.0-0.0","50897091","wem/bandit_party_1","A3CTXNQ2GXIQSP","either","6","713","","","","","","","0","0","1","","0.2915584027","0.6","0.4","0.8","0.2","0.2915584027","0.258758296","0.288462609","0.223078523","","","","","","","","","","","","","","72","H","0","img/none_selected.jpg","","118","main_expt",""
"","bandit","198","558587","0.0-160.0-0.0","50897091","wem/bandit_party_1","A3CTXNQ2GXIQSP","either","6","638","","","","","","","0","0","1","","0.3240034744","0.6","0.4","0.8","0.2","0.3240034744","0.2513882557","0.3077733757","0.2157898803","","","","","","","","","","","","","","72","H","0","img/none_selected.jpg","","119","main_expt",""
"","bandit","199","560769","0.0-161.0-0.0","50897091","wem/bandit_party_1","A3CTXNQ2GXIQSP","either","6","667","","","","","","","0","0","1","0.3584552205","","0.6","0.4","0.8","0.2","","","","","0.3584552205","0.2178230887","0.3470363664","0.2055853597","","","","","","","","","","72","H","0","img/none_selected.jpg","","120","main_expt",""
"","bandit","200","562760","0.0-162.0-0.0","50897091","wem/bandit_party_1","A3CTXNQ2GXIQSP","either","6","476","","","","","","","0","0","1","","0.2308362602","0.6","0.4","0.8","0.2","0.3392259721","0.2249913612","0.36369082","0.2308362602","","","","","","","","","","","","","","76","L","3","","","121","main_expt",""
"","bandit","201","564599","0.0-163.0-0.0","50897091","wem/bandit_party_1","A3CTXNQ2GXIQSP","either","6","327","","","","","","","0","0","1","0.3740977319","","0.6","0.4","0.8","0.2","","","","","0.3211990091","0.2135386538","0.3740977319","0.1858821776","","","","","","","","","","75","K","2","","","122","main_expt",""
"","bandit","202","566526","0.0-164.0-0.0","50897091","wem/bandit_party_1","A3CTXNQ2GXIQSP","either","6","413","","","","","","","0","0","1","0.2742148462","","0.6","0.4","0.8","0.2","","","","","0.3082515077","0.2742148462","0.3617230251","0.1948645322","","","","","","","","","","74","J","1","","","123","main_expt",""
"","bandit","203","568494","0.0-165.0-0.0","50897091","wem/bandit_party_1","A3CTXNQ2GXIQSP","either","6","454","","","","","","","0","0","1","","0.1875433284","0.6","0.4","0.8","0.2","0.3337980485","0.3092488957","0.3189133642","0.1875433284","","","","","","","","","","","","","","76","L","3","","","124","main_expt",""
"","bandit","204","570555","0.0-166.0-0.0","50897091","wem/bandit_party_1","A3CTXNQ2GXIQSP","either","6","545","","","","","","","0","0","1","0.3134342975","","0.6","0.4","0.8","0.2","","","","","0.2815584253","0.2832498899","0.3134342975","0.1805360773","","","","","","","","","","75","K","2","","","125","main_expt",""
"","bandit","205","572487","0.0-167.0-0.0","50897091","wem/bandit_party_1","A3CTXNQ2GXIQSP","either","6","419","","","","","","","0","0","1","0.321902755","","0.6","0.4","0.8","0.2","","","","","0.2544389989","0.321902755","0.2889117865","0.2199741614","","","","","","","","","","74","J","1","","","126","main_expt",""
"","bandit","206","574350","0.0-168.0-0.0","50897091","wem/bandit_party_1","A3CTXNQ2GXIQSP","either","6","349","","","","","","","0","0","1","0.217883989","","0.6","0.4","0.8","0.2","","","","","0.217883989","0.3163630435","0.3101500906","0.212963778","","","","","","","","","","72","H","0","img/none_selected.jpg","","127","main_expt",""
"","bandit","207","576376","0.0-169.0-0.0","50897091","wem/bandit_party_1","A3CTXNQ2GXIQSP","either","6","511","","","","","","","0","0","1","0.1941215274","","0.6","0.4","0.8","0.2","","","","","0.1941215274","0.3242789072","0.3257933697","0.1853882534","","","","","","","","","","72","H","0","img/none_selected.jpg","","128","main_expt",""
"","bandit","208","578430","0.0-170.0-0.0","50897091","wem/bandit_party_1","A3CTXNQ2GXIQSP","either","6","540","","","","","","","0","0","1","","0.2093197904","0.6","0.4","0.8","0.2","0.2093197904","0.3430844202","0.2767822115","0.1486900389","","","","","","","","","","","","","","72","H","0","img/none_selected.jpg","","129","main_expt",""
"","bandit","209","580417","0.0-171.0-0.0","50897091","wem/bandit_party_1","A3CTXNQ2GXIQSP","either","6","472","","","","","","","1","0","0","0.3487272729","","0.6","0.4","0.8","0.2","","","","","0.2325895014","0.3487272729","0.3389859305","0.1581202816","","","","","","","","","","74","J","1","","","130","main_expt",""
"","bandit","210","582400","0.0-172.0-0.0","50897091","wem/bandit_party_1","A3CTXNQ2GXIQSP","either","6","469","","","","","","","0","1","0","","0.3850752379","0.6","0.4","0.8","0.2","0.2680880231","0.3850752379","0.2807576759","0.1189605486","","","","","","","","","","","","","","74","J","1","","","131","main_expt",""
"","bandit","211","584375","0.0-173.0-0.0","50897091","wem/bandit_party_1","A3CTXNQ2GXIQSP","either","6","461","","","","","","","0","0","1","","0.3547422913","0.6","0.4","0.8","0.2","0.2053564998","0.3547422913","0.2044414959","0.08638656351","","","","","","","","","","","","","","74","J","1","","","132","main_expt",""
"","bandit","212","586445","0.0-174.0-0.0","50897091","wem/bandit_party_1","A3CTXNQ2GXIQSP","either","6","558","","","","","","","0","1","0","","0.3256782816","0.6","0.4","0.8","0.2","0.2102644512","0.3256782816","0.2352631215","0.104542274","","","","","","","","","","","","","","74","J","1","","","133","main_expt",""
"","bandit","213","588448","0.0-175.0-0.0","50897091","wem/bandit_party_1","A3CTXNQ2GXIQSP","either","6","487","","","","","","","0","0","1","","0.2479378245","0.6","0.4","0.8","0.2","0.2028105977","0.2479378245","0.2808822736","0.1401790922","","","","","","","","","","","","","","74","J","1","","","134","main_expt",""
"","bandit","214","591048","0.0-176.0-0.0","50897091","wem/bandit_party_1","A3CTXNQ2GXIQSP","either","6","1085","","","","","","","0","0","1","0.24301602","","0.6","0.4","0.8","0.2","","","","","0.1556880781","0.24301602","0.3053704558","0.1818128853","","","","","","","","","","74","J","1","","","135","main_expt",""
"","bandit","215","593607","0.0-177.0-0.0","50897091","wem/bandit_party_1","A3CTXNQ2GXIQSP","either","6","1046","","","","","","","0","0","1","0.2630427063","","0.6","0.4","0.8","0.2","","","","","0.1428421262","0.2630427063","0.3140058771","0.1583738081","","","","","","","","","","74","J","1","","","136","main_expt",""
"","bandit","216","596056","0.0-178.0-0.0","50897091","wem/bandit_party_1","A3CTXNQ2GXIQSP","either","6","933","","","","","","","0","1","0","","0.1497920091","0.6","0.4","0.8","0.2","0.1039390038","0.3053425806","0.323699752","0.1497920091","","","","","","","","","","","","","","76","L","3","","","137","main_expt",""
"","bandit","217","598552","0.0-179.0-0.0","50897091","wem/bandit_party_1","A3CTXNQ2GXIQSP","either","6","980","","","","","","","0","0","1","","0.1128601551","0.6","0.4","0.8","0.2","0.07132433681","0.3588623722","0.3435108126","0.1128601551","","","","","","","","","","","","","","76","L","3","","","138","main_expt",""
"","bandit","218","600601","0.0-180.0-0.0","50897091","wem/bandit_party_1","A3CTXNQ2GXIQSP","either","6","533","","","","","","","0","1","0","","0.1073604677","0.6","0.4","0.8","0.2","0.1047165976","0.2762704672","0.3505637202","0.1073604677","","","","","","","","","","","","","","76","L","3","","","139","main_expt",""
"","bandit","219","602912","0.0-181.0-0.0","50897091","wem/bandit_party_1","A3CTXNQ2GXIQSP","either","6","797","","","","","","","0","0","1","0.1376710563","","0.6","0.4","0.8","0.2","","","","","0.09043849554","0.2475753012","0.4185251601","0.1376710563","","","","","","","","","","76","L","3","","","140","main_expt",""
"","bandit","220","605232","0.0-182.0-0.0","50897091","wem/bandit_party_1","A3CTXNQ2GXIQSP","either","6","805","","","","","","","0","1","0","","0.1412662962","0.6","0.4","0.8","0.2","0.05096505815","0.2436306075","0.4225289085","0.1412662962","","","","","","","","","","","","","","76","L","3","","","141","main_expt",""
"","bandit","221","607693","0.0-183.0-0.0","50897091","wem/bandit_party_1","A3CTXNQ2GXIQSP","either","6","947","","","","","","","0","0","1","","0.1543424817","0.6","0.4","0.8","0.2","0.02973759478","0.1998899021","0.455259632","0.1543424817","","","","","","","","","","","","","","76","L","3","","","142","main_expt",""
"","bandit","222","609800","0.0-184.0-0.0","50897091","wem/bandit_party_1","A3CTXNQ2GXIQSP","either","6","591","","","","","","","0","0","1","","0.1552636118","0.6","0.4","0.8","0.2","0.04457260366","0.2568100034","0.4287003803","0.1552636118","","","","","","","","","","","","","","76","L","3","","","143","main_expt",""
"","bandit","223","612029","0.0-185.0-0.0","50897091","wem/bandit_party_1","A3CTXNQ2GXIQSP","either","6","716","","","","","","","0","1","0","","0.2241753426","0.6","0.4","0.8","0.2","0.04060115041","0.2859833531","0.4260506414","0.2241753426","","","","","","","","","","","","","","76","L","3","","","144","main_expt",""
"","bandit","224","614344","0.0-186.0-0.0","50897091","wem/bandit_party_1","A3CTXNQ2GXIQSP","either","6","798","","","","","","","0","0","1","","0.2484131349","0.6","0.4","0.8","0.2","0.06712401514","0.2080640158","0.4202170594","0.2484131349","","","","","","","","","","","","","","76","L","3","","","145","main_expt",""
"","bandit","225","616364","0.0-187.0-0.0","50897091","wem/bandit_party_1","A3CTXNQ2GXIQSP","either","6","509","","","","","","","0","0","1","","0.2905032103","0.6","0.4","0.8","0.2","0.08780921534","0.2469639643","0.4333226383","0.2905032103","","","","","","","","","","","","","","76","L","3","","","146","main_expt",""
"","bandit","226","618837","0.0-188.0-0.0","50897091","wem/bandit_party_1","A3CTXNQ2GXIQSP","either","6","959","","","","","","","0","0","1","0.1333368233","","0.6","0.4","0.8","0.2","","","","","0.1333368233","0.2169279296","0.4340954059","0.2846703457","","","","","","","","","","72","H","0","img/none_selected.jpg","","147","main_expt",""
"","bandit","227","620955","0.0-189.0-0.0","50897091","wem/bandit_party_1","A3CTXNQ2GXIQSP","either","6","607","","","","","","","0","0","1","0.09264147873","","0.6","0.4","0.8","0.2","","","","","0.09264147873","0.1248284812","0.3903754431","0.3010433131","","","","","","","","","","72","H","0","img/none_selected.jpg","","148","main_expt",""
"","bandit","228","622894","0.0-190.0-0.0","50897091","wem/bandit_party_1","A3CTXNQ2GXIQSP","either","6","424","","","","","","","0","0","1","","0.1498862571","0.6","0.4","0.8","0.2","0.123708687","0.1498862571","0.4161192262","0.3421268102","","","","","","","","","","","","","","74","J","1","","","149","main_expt",""
"","bandit","229","624728","0.0-191.0-0.0","50897091","wem/bandit_party_1","A3CTXNQ2GXIQSP","either","6","318","","","","","","","0","0","1","0.2044632824","","0.6","0.4","0.8","0.2","","","","","0.1087811601","0.2044632824","0.4545257836","0.3382865341","","","","","","","","","","74","J","1","","","150","main_expt",""
"","bandit","230","626562","0.0-192.0-0.0","50897091","wem/bandit_party_1","A3CTXNQ2GXIQSP","either","6","316","","","","","","","0","0","1","0.4553704948","","0.6","0.4","0.8","0.2","","","","","0.1640336927","0.1630699797","0.4553704948","0.3031951358","","","","","","","","","","75","K","2","","","151","main_expt",""
"","bandit","231","628454","0.0-193.0-0.0","50897091","wem/bandit_party_1","A3CTXNQ2GXIQSP","either","6","378","","","","","","","0","0","1","","0.4692720684","0.6","0.4","0.8","0.2","0.1474195158","0.1534962237","0.4692720684","0.3163498213","","","","","","","","","","","","","","75","K","2","","","152","main_expt",""
"","bandit","232","630363","0.0-194.0-0.0","50897091","wem/bandit_party_1","A3CTXNQ2GXIQSP","either","6","397","","","","","","","0","0","1","","0.3205280093","0.6","0.4","0.8","0.2","0.1200421148","0.1506701345","0.4794448159","0.3205280093","","","","","","","","","","","","","","76","L","3","","","153","main_expt",""
"","bandit","233","632267","0.0-195.0-0.0","50897091","wem/bandit_party_1","A3CTXNQ2GXIQSP","either","6","392","","","","","","","0","0","1","","0.2780981807","0.6","0.4","0.8","0.2","0.1295208369","0.1810992197","0.4762011242","0.2780981807","","","","","","","","","","","","","","76","L","3","","","154","main_expt",""
"","bandit","234","634164","0.0-196.0-0.0","50897091","wem/bandit_party_1","A3CTXNQ2GXIQSP","either","6","384","","","","","","","0","0","1","","0.2543788853","0.6","0.4","0.8","0.2","0.1189574303","0.2574031695","0.4797315341","0.2543788853","","","","","","","","","","","","","","76","L","3","","","155","main_expt",""
"","bandit","235","636109","0.0-197.0-0.0","50897091","wem/bandit_party_1","A3CTXNQ2GXIQSP","either","6","432","","","","","","","0","1","0","","0.2601772157","0.6","0.4","0.8","0.2","0.1511338071","0.1838662476","0.4815153028","0.2601772157","","","","","","","","","","","","","","76","L","3","","","156","main_expt",""
"","bandit","236","638256","0.0-198.0-0.0","50897091","wem/bandit_party_1","A3CTXNQ2GXIQSP","either","6","631","","","","","","","0","0","1","","0.27050514","0.6","0.4","0.8","0.2","0.1494559257","0.1951262555","0.4769669351","0.27050514","","","","","","","","","","","","","","76","L","3","","","157","main_expt",""
"","bandit","237","640363","0.0-199.0-0.0","50897091","wem/bandit_party_1","A3CTXNQ2GXIQSP","either","6","595","","","","","","","1","0","0","0.2912044809","","0.6","0.4","0.8","0.2","","","","","0.1398300683","0.1711173681","0.4819637572","0.2912044809","","","","","","","","","","76","L","3","","","158","main_expt",""
"","bandit","238","642603","0.0-200.0-0.0","50897091","wem/bandit_party_1","A3CTXNQ2GXIQSP","either","6","728","","","","","","","0","0","1","","0.2863852675","0.6","0.4","0.8","0.2","0.1482700517","0.1262927185","0.4802617926","0.2863852675","","","","","","","","","","","","","","76","L","3","","","159","main_expt",""
"","bandit","239","644868","0.0-201.0-0.0","50897091","wem/bandit_party_1","A3CTXNQ2GXIQSP","either","6","752","","","","","","","0","1","0","","0.3188379944","0.6","0.4","0.8","0.2","0.1327856751","0.1289005464","0.4834703177","0.3188379944","","","","","","","","","","","","","","76","L","3","","","160","main_expt",""
"","bandit","240","646863","0.0-202.0-0.0","50897091","wem/bandit_party_1","A3CTXNQ2GXIQSP","either","6","479","","","","","","","0","0","1","0.07062595825","","0.6","0.4","0.8","0.2","","","","","0.1936248495","0.07062595825","0.4783639554","0.3918259889","","","","","","","","","","74","J","1","","","161","main_expt",""
"","bandit","241","648728","0.0-203.0-0.0","50897091","wem/bandit_party_1","A3CTXNQ2GXIQSP","either","6","349","","","","","","","0","1","0","","0.3825352776","0.6","0.4","0.8","0.2","0.1917288119","0.08554885259","0.4702379588","0.3825352776","","","","","","","","","","","","","","76","L","3","","","162","main_expt",""
"","bandit","242","650630","0.0-204.0-0.0","50897091","wem/bandit_party_1","A3CTXNQ2GXIQSP","either","6","387","","","","","","","0","1","0","","0.4761999765","0.6","0.4","0.8","0.2","0.2410074379","0.05790820845","0.4761999765","0.3500114378","","","","","","","","","","","","","","75","K","2","","","163","main_expt",""
"","bandit","243","652667","0.0-205.0-0.0","50897091","wem/bandit_party_1","A3CTXNQ2GXIQSP","either","6","525","","","","","","","0","1","0","","0.3138306729","0.6","0.4","0.8","0.2","0.2717164652","0.04744410613","0.4683988395","0.3138306729","","","","","","","","","","","","","","76","L","3","","","164","main_expt",""
"","bandit","244","654821","0.0-206.0-0.0","50897091","wem/bandit_party_1","A3CTXNQ2GXIQSP","either","6","640","","","","","","","0","1","0","","0.4594806004","0.6","0.4","0.8","0.2","0.3360488911","0.07721988326","0.4594806004","0.3066591237","","","","","","","","","","","","","","75","K","2","","","165","main_expt",""
"","bandit","245","656846","0.0-207.0-0.0","50897091","wem/bandit_party_1","A3CTXNQ2GXIQSP","either","6","508","","","","","","","0","1","0","","0.359337808","0.6","0.4","0.8","0.2","0.3288768439","0.09276645858","0.4769271284","0.359337808","","","","","","","","","","","","","","76","L","3","","","166","main_expt",""
"","bandit","246","662638","0.0-208.0-0.0","50897091","wem/bandit_party_1","A3CTXNQ2GXIQSP","either","6","4278","","","","","","","1","0","0","0.4824675089","","0.6","0.4","0.8","0.2","","","","","0.341079324","0.1092251717","0.4824675089","0.3888119778","","","","","","","","","","75","K","2","","","167","main_expt",""
"","bandit","247","665848","0.0-209.0-0.0","50897091","wem/bandit_party_1","A3CTXNQ2GXIQSP","either","6","1692","","","","","","","0","0","1","","0.4731218304","0.6","0.4","0.8","0.2","0.2972081376","0.09704797424","0.4731218304","0.3188253523","","","","","","","","","","","","","","75","K","2","","","168","main_expt",""
"","bandit","248","667926","0.0-210.0-0.0","50897091","wem/bandit_party_1","A3CTXNQ2GXIQSP","either","6","561","","","","","","","0","0","1","","0.3035082617","0.6","0.4","0.8","0.2","0.2716537329","0.1131958007","0.4558692975","0.3035082617","","","","","","","","","","","","","","76","L","3","","","169","main_expt",""
"","bandit","249","670143","0.0-211.0-0.0","50897091","wem/bandit_party_1","A3CTXNQ2GXIQSP","either","6","701","","","","","","","0","0","1","0.1636150477","","0.6","0.4","0.8","0.2","","","","","0.3705489528","0.1636150477","0.424927817","0.3540810543","","","","","","","","","","74","J","1","","","170","main_expt",""
"","bandit","250","672290","0.0-212.0-0.0","50897091","wem/bandit_party_1","A3CTXNQ2GXIQSP","either","6","636","","","","","","","1","0","0","0.3259531709","","0.6","0.4","0.8","0.2","","","","","0.3259531709","0.1889182236","0.4254050478","0.2912941695","","","","","","","","","","72","H","0","img/none_selected.jpg","","171","main_expt",""
"","bandit","251","674501","0.0-213.0-0.0","50897091","wem/bandit_party_1","A3CTXNQ2GXIQSP","either","6","699","","","","","","","1","0","0","0.3253578443","","0.6","0.4","0.8","0.2","","","","","0.3253578443","0.1494540944","0.4319935488","0.2964718019","","","","","","","","","","72","H","0","img/none_selected.jpg","","172","main_expt",""
"","bandit","252","676834","0.0-214.0-0.0","50897091","wem/bandit_party_1","A3CTXNQ2GXIQSP","either","6","821","","","","","","","1","0","0","0.3133285256","","0.6","0.4","0.8","0.2","","","","","0.3133285256","0.1700291406","0.4157756128","0.2411205861","","","","","","","","","","72","H","0","img/none_selected.jpg","","173","main_expt",""
"","bandit","253","678987","0.0-215.0-0.0","50897091","wem/bandit_party_1","A3CTXNQ2GXIQSP","either","6","640","","","","","","","1","0","0","0.3470844982","","0.6","0.4","0.8","0.2","","","","","0.3470844982","0.2007600912","0.3650518631","0.2132737127","","","","","","","","","","72","H","0","img/none_selected.jpg","","174","main_expt",""
"","bandit","254","681083","0.0-216.0-0.0","50897091","wem/bandit_party_1","A3CTXNQ2GXIQSP","either","6","583","","","","","","","0","0","1","0.3615725976","","0.6","0.4","0.8","0.2","","","","","0.3615725976","0.1613291475","0.3583375904","0.2722172758","","","","","","","","","","72","H","0","img/none_selected.jpg","","175","main_expt",""
"","bandit","255","683126","0.0-217.0-0.0","50897091","wem/bandit_party_1","A3CTXNQ2GXIQSP","either","6","526","","","","","","","0","0","1","0.3592449917","","0.6","0.4","0.8","0.2","","","","","0.3592449917","0.1618540135","0.3849487833","0.3158297255","","","","","","","","","","72","H","0","img/none_selected.jpg","","176","main_expt",""
"","bandit","256","685066","0.0-218.0-0.0","50897091","wem/bandit_party_1","A3CTXNQ2GXIQSP","either","6","428","","","","","","","0","1","0","","0.3614776984","0.6","0.4","0.8","0.2","0.3614776984","0.1337509382","0.3741193846","0.3033070912","","","","","","","","","","","","","","72","H","0","img/none_selected.jpg","","177","main_expt",""
"","bandit","257","687224","0.0-219.0-0.0","50897091","wem/bandit_party_1","A3CTXNQ2GXIQSP","either","6","639","","","","","","","0","0","1","0.4042649322","","0.6","0.4","0.8","0.2","","","","","0.4042649322","0.172909152","0.3704436283","0.3070990366","","","","","","","","","","72","H","0","img/none_selected.jpg","","178","main_expt",""
"","bandit","258","689125","0.0-220.0-0.0","50897091","wem/bandit_party_1","A3CTXNQ2GXIQSP","either","6","385","","","","","","","0","0","1","0.3626499081","","0.6","0.4","0.8","0.2","","","","","0.3626499081","0.2306318455","0.3718647044","0.349206168","","","","","","","","","","72","H","0","img/none_selected.jpg","","179","main_expt",""
"","bandit","259","691063","0.0-221.0-0.0","50897091","wem/bandit_party_1","A3CTXNQ2GXIQSP","either","6","429","","","","","","","0","0","1","","0.2531752843","0.6","0.4","0.8","0.2","0.365831292","0.2531752843","0.3144845341","0.3533593609","","","","","","","","","","","","","","74","J","1","","","180","main_expt",""
"","bandit","260","692964","0.0-222.0-0.0","50897091","wem/bandit_party_1","A3CTXNQ2GXIQSP","either","6","387","","","","","","","0","0","1","0.3720079561","","0.6","0.4","0.8","0.2","","","","","0.3720079561","0.2995137733","0.3328992573","0.3792633926","","","","","","","","","","72","H","0","img/none_selected.jpg","","181","main_expt",""
"","bandit","261","694950","0.0-223.0-0.0","50897091","wem/bandit_party_1","A3CTXNQ2GXIQSP","either","6","469","","","","","","","0","0","1","","0.3747751333","0.6","0.4","0.8","0.2","0.3747751333","0.2818604164","0.3443004049","0.4170401524","","","","","","","","","","","","","","72","H","0","img/none_selected.jpg","","182","main_expt",""
"","bandit","262","696875","0.0-224.0-0.0","50897091","wem/bandit_party_1","A3CTXNQ2GXIQSP","either","6","412","","","","","","","1","0","0","0.3572445505","","0.6","0.4","0.8","0.2","","","","","0.3772869326","0.2706787236","0.3572445505","0.4349898381","","","","","","","","","","75","K","2","","","183","main_expt",""
"","bandit","263","698860","0.0-225.0-0.0","50897091","wem/bandit_party_1","A3CTXNQ2GXIQSP","either","6","470","","","","","","","1","0","0","0.358140682","","0.6","0.4","0.8","0.2","","","","","0.3719200221","0.2788381055","0.358140682","0.4355724899","","","","","","","","","","75","K","2","","","184","main_expt",""
"","bandit","264","701092","0.0-226.0-0.0","50897091","wem/bandit_party_1","A3CTXNQ2GXIQSP","either","6","716","","","","","","","0","0","1","0.2938856532","","0.6","0.4","0.8","0.2","","","","","0.3759280431","0.2591604306","0.2938856532","0.443517249","","","","","","","","","","75","K","2","","","185","main_expt",""
"","bandit","265","702917","0.0-227.0-0.0","50897091","wem/bandit_party_1","A3CTXNQ2GXIQSP","either","6","308","","","","","","","0","0","1","","0.2570442146","0.6","0.4","0.8","0.2","0.3686405037","0.1717283936","0.2570442146","0.4185550765","","","","","","","","","","","","","","75","K","2","","","186","main_expt",""
"","bandit","266","704954","0.0-228.0-0.0","50897091","wem/bandit_party_1","A3CTXNQ2GXIQSP","either","6","523","","","","","","","0","0","1","0.2781151114","","0.6","0.4","0.8","0.2","","","","","0.3693778387","0.1399016055","0.2781151114","0.4582246802","","","","","","","","","","75","K","2","","","187","main_expt",""
"","bandit","267","707065","0.0-229.0-0.0","50897091","wem/bandit_party_1","A3CTXNQ2GXIQSP","either","6","599","","","","","","","0","0","1","0.2510368257","","0.6","0.4","0.8","0.2","","","","","0.3858781765","0.116743447","0.2510368257","0.4499637214","","","","","","","","","","75","K","2","","","188","main_expt",""
"","bandit","268","709011","0.0-230.0-0.0","50897091","wem/bandit_party_1","A3CTXNQ2GXIQSP","either","6","432","","","","","","","0","0","1","0.2299291889","","0.6","0.4","0.8","0.2","","","","","0.353665234","0.09810356538","0.2299291889","0.4681283031","","","","","","","","","","75","K","2","","","189","main_expt",""
"","bandit","269","710938","0.0-231.0-0.0","50897091","wem/bandit_party_1","A3CTXNQ2GXIQSP","either","6","413","","","","","","","0","1","0","","0.4672384316","0.6","0.4","0.8","0.2","0.3702546744","0.1333212727","0.2957770397","0.4672384316","","","","","","","","","","","","","","76","L","3","","","190","main_expt",""
"","bandit","270","712819","0.0-232.0-0.0","50897091","wem/bandit_party_1","A3CTXNQ2GXIQSP","either","6","366","","","","","","","0","1","0","","0.4633056668","0.6","0.4","0.8","0.2","0.3373283559","0.07289491444","0.2806998676","0.4633056668","","","","","","","","","","","","","","76","L","3","","","191","main_expt",""
"","bandit","271","714867","0.0-233.0-0.0","50897091","wem/bandit_party_1","A3CTXNQ2GXIQSP","either","6","533","","","","","","","0","0","1","","0.4701423021","0.6","0.4","0.8","0.2","0.3717228864","0.09060717316","0.2578649702","0.4701423021","","","","","","","","","","","","","","76","L","3","","","192","main_expt",""
"","bandit","272","716725","0.0-234.0-0.0","50897091","wem/bandit_party_1","A3CTXNQ2GXIQSP","either","6","341","","","","","","","0","0","1","0.4625827917","","0.6","0.4","0.8","0.2","","","","","0.3861484819","0.1038106097","0.3019093773","0.4625827917","","","","","","","","","","76","L","3","","","193","main_expt",""
"","bandit","273","718814","0.0-235.0-0.0","50897091","wem/bandit_party_1","A3CTXNQ2GXIQSP","either","6","572","","","","","","","1","0","0","0.4480064119","","0.6","0.4","0.8","0.2","","","","","0.3884838939","0.1222204007","0.3028603149","0.4480064119","","","","","","","","","","76","L","3","","","194","main_expt",""
"","bandit","274","720770","0.0-236.0-0.0","50897091","wem/bandit_party_1","A3CTXNQ2GXIQSP","either","6","442","","","","","","","0","0","1","","0.4263193963","0.6","0.4","0.8","0.2","0.4058549971","0.1230179676","0.2933095063","0.4263193963","","","","","","","","","","","","","","76","L","3","","","195","main_expt",""
"","bandit","275","723062","0.0-237.0-0.0","50897091","wem/bandit_party_1","A3CTXNQ2GXIQSP","either","6","782","","","","","","","1","0","0","0.4399191733","","0.6","0.4","0.8","0.2","","","","","0.3894648227","0.1972068901","0.3333663608","0.4399191733","","","","","","","","","","76","L","3","","","196","main_expt",""
"","bandit","276","725123","0.0-238.0-0.0","50897091","wem/bandit_party_1","A3CTXNQ2GXIQSP","either","6","546","","","","","","","0","0","1","0.4303685687","","0.6","0.4","0.8","0.2","","","","","0.3452919481","0.2091218652","0.3472763543","0.4303685687","","","","","","","","","","76","L","3","","","197","main_expt",""
"","bandit","277","727096","0.0-239.0-0.0","50897091","wem/bandit_party_1","A3CTXNQ2GXIQSP","either","6","459","","","","","","","0","0","1","","0.4166638701","0.6","0.4","0.8","0.2","0.3571156804","0.2316117542","0.3420385624","0.4166638701","","","","","","","","","","","","","","76","L","3","","","198","main_expt",""
"","bandit","278","728932","0.0-240.0-0.0","50897091","wem/bandit_party_1","A3CTXNQ2GXIQSP","either","6","321","","","","","","","0","0","1","0.3009927129","","0.6","0.4","0.8","0.2","","","","","0.3761278261","0.1983173389","0.3009927129","0.4166192342","","","","","","","","","","75","K","2","","","199","main_expt",""
"","bandit","279","730793","0.0-241.0-0.0","50897091","wem/bandit_party_1","A3CTXNQ2GXIQSP","either","6","348","","","","","","","1","0","0","0.4065109498","","0.6","0.4","0.8","0.2","","","","","0.3623939384","0.2275108597","0.2834367318","0.4065109498","","","","","","","","","","76","L","3","","","200","main_expt",""
"","bandit","280","733133","0.0-242.0-0.0","50897091","wem/bandit_party_1","A3CTXNQ2GXIQSP","either","6","822","","","","","","","0","0","1","","0.4210367682","0.6","0.4","0.8","0.2","0.3470966653","0.2753755663","0.2305195973","0.4210367682","","","","","","","","","","","","","","76","L","3","","","201","main_expt",""
"","bandit","281","735251","0.0-243.0-0.0","50897091","wem/bandit_party_1","A3CTXNQ2GXIQSP","either","6","603","","","","","","","0","0","1","0.3738670455","","0.6","0.4","0.8","0.2","","","","","0.3738670455","0.2867984519","0.236439039","0.4059774394","","","","","","","","","","72","H","0","img/none_selected.jpg","","202","main_expt",""
"","bandit","282","736916","0.0-244.0-0.0","50897091","wem/bandit_party_1","A3CTXNQ2GXIQSP","either","6","149","","","","","","","1","0","0","0.227681123","","0.6","0.4","0.8","0.2","","","","","0.4434414113","0.227681123","0.207292508","0.4217634448","","","","","","","","","","74","J","1","","","203","main_expt",""
"","bandit","283","739511","0.0-245.0-0.0","50897091","wem/bandit_party_1","A3CTXNQ2GXIQSP","either","6","1077","","","","","","","0","0","1","","0.2421814767","0.6","0.4","0.8","0.2","0.4363530878","0.2421814767","0.2706274655","0.417590799","","","","","","","","","","","","","","74","J","1","","","204","main_expt",""
"","bandit","284","741716","0.0-246.0-0.0","50897091","wem/bandit_party_1","A3CTXNQ2GXIQSP","either","6","688","","","","","","","0","0","1","","0.2250127273","0.6","0.4","0.8","0.2","0.4390009565","0.2250127273","0.2688171721","0.3892328218","","","","","","","","","","","","","","74","J","1","","","205","main_expt",""
"","bandit","285","746498","0.0-247.0-0.0","50897091","wem/bandit_party_1","A3CTXNQ2GXIQSP","either","6","3267","","","","","","","0","0","1","0.2148063869","","0.6","0.4","0.8","0.2","","","","","0.4606838579","0.2148063869","0.2774640617","0.3877758809","","","","","","","","","","74","J","1","","","206","main_expt",""
"","bandit","286","749853","0.0-248.0-0.0","50897091","wem/bandit_party_1","A3CTXNQ2GXIQSP","either","6","1838","","","","","","","0","0","1","","0.2370073307","0.6","0.4","0.8","0.2","0.4679198071","0.2370073307","0.31303597","0.3344078408","","","","","","","","","","","","","","74","J","1","","","207","main_expt",""
"","bandit","287","752213","0.0-249.0-0.0","50897091","wem/bandit_party_1","A3CTXNQ2GXIQSP","either","6","842","","","","","","","0","0","1","0.3187850143","","0.6","0.4","0.8","0.2","","","","","0.4731710197","0.1736764344","0.3187850143","0.3285414067","","","","","","","","","","75","K","2","","","208","main_expt",""
"","bandit","288","755669","0.0-250.0-0.0","50897091","wem/bandit_party_1","A3CTXNQ2GXIQSP","either","6","1938","","","","","","","0","0","1","0.472507437","","0.6","0.4","0.8","0.2","","","","","0.472507437","0.2033963155","0.3031297305","0.337659841","","","","","","","","","","72","H","0","img/none_selected.jpg","","209","main_expt",""
"","bandit","289","758176","0.0-251.0-0.0","50897091","wem/bandit_party_1","A3CTXNQ2GXIQSP","either","6","995","","","","","","","0","1","0","","0.4759946166","0.6","0.4","0.8","0.2","0.4759946166","0.1849029676","0.3593083662","0.322880172","","","","","","","","","","","","","","72","H","0","img/none_selected.jpg","","210","main_expt",""
"","bandit","290","760782","0.0-252.0-0.0","50897091","wem/bandit_party_1","A3CTXNQ2GXIQSP","either","6","1089","","","","","","","1","0","0","0.4838002785","","0.6","0.4","0.8","0.2","","","","","0.4838002785","0.08033524441","0.3758292662","0.3440981268","","","","","","","","","","72","H","0","img/none_selected.jpg","","211","main_expt",""
"","bandit","291","763097","0.0-253.0-0.0","50897091","wem/bandit_party_1","A3CTXNQ2GXIQSP","either","6","802","","","","","","","0","1","0","","0.4871609062","0.6","0.4","0.8","0.2","0.4871609062","0.1024936548","0.3771764803","0.3135232579","","","","","","","","","","","","","","72","H","0","img/none_selected.jpg","","212","main_expt",""
"","bandit","292","765340","0.0-254.0-0.0","50897091","wem/bandit_party_1","A3CTXNQ2GXIQSP","either","6","726","","","","","","","1","0","0","0.4829725273","","0.6","0.4","0.8","0.2","","","","","0.4829725273","0.1380366818","0.3935517348","0.328558382","","","","","","","","","","72","H","0","img/none_selected.jpg","","213","main_expt",""
"","bandit","293","767474","0.0-255.0-0.0","50897091","wem/bandit_party_1","A3CTXNQ2GXIQSP","either","6","620","","","","","","","0","0","1","0.4742933803","","0.6","0.4","0.8","0.2","","","","","0.4742933803","0.1206441992","0.3792377037","0.3024402918","","","","","","","","","","72","H","0","img/none_selected.jpg","","214","main_expt",""
"","bandit","294","769371","0.0-256.0-0.0","50897091","wem/bandit_party_1","A3CTXNQ2GXIQSP","either","6","382","","","","","","","0","0","1","0.4754417465","","0.6","0.4","0.8","0.2","","","","","0.4754417465","0.1320715796","0.3364308411","0.3024001881","","","","","","","","","","72","H","0","img/none_selected.jpg","","215","main_expt",""
"","bandit","295","771588","0.0-257.0-0.0","50897091","wem/bandit_party_1","A3CTXNQ2GXIQSP","either","6","701","","","","","","","0","1","0","","0.4764866221","0.6","0.4","0.8","0.2","0.4764866221","0.1152906885","0.3348871659","0.2975117226","","","","","","","","","","","","","","72","H","0","img/none_selected.jpg","","216","main_expt",""
"","bandit","296","774072","0.0-258.0-0.0","50897091","wem/bandit_party_1","A3CTXNQ2GXIQSP","either","6","971","","","","","","","1","0","0","0.4727866334","","0.6","0.4","0.8","0.2","","","","","0.4727866334","0.1191406027","0.321293363","0.3331298207","","","","","","","","","","72","H","0","img/none_selected.jpg","","217","main_expt",""
"","bandit","297","776285","0.0-259.0-0.0","50897091","wem/bandit_party_1","A3CTXNQ2GXIQSP","either","6","695","","","","","","","0","0","1","0.4664653133","","0.6","0.4","0.8","0.2","","","","","0.4664653133","0.1177717736","0.3530973922","0.2905667849","","","","","","","","","","72","H","0","img/none_selected.jpg","","218","main_expt",""
"","bandit","298","778338","0.0-260.0-0.0","50897091","wem/bandit_party_1","A3CTXNQ2GXIQSP","either","6","538","","","","","","","0","0","1","0.4636837267","","0.6","0.4","0.8","0.2","","","","","0.4636837267","0.1178729669","0.3837093308","0.2701708387","","","","","","","","","","72","H","0","img/none_selected.jpg","","219","main_expt",""
"","bandit","299","780140","0.0-261.0-0.0","50897091","wem/bandit_party_1","A3CTXNQ2GXIQSP","either","6","285","","","","","","","0","0","1","","0.4599900571","0.6","0.4","0.8","0.2","0.4599900571","0.1284790336","0.3651541458","0.2395453957","","","","","","","","","","","","","","72","H","0","img/none_selected.jpg","","220","main_expt",""
"","bandit","300","782134","0.0-262.0-0.0","50897091","wem/bandit_party_1","A3CTXNQ2GXIQSP","either","6","476","","","","","","","0","0","1","0.4490722186","","0.6","0.4","0.8","0.2","","","","","0.4490722186","0.147465279","0.254085412","0.2770622605","","","","","","","","","","72","H","0","img/none_selected.jpg","","221","main_expt",""
"","bandit","301","784978","0.0-263.0-0.0","50897091","wem/bandit_party_1","A3CTXNQ2GXIQSP","either","6","1329","","","","","","","0","0","1","0.4253353094","","0.6","0.4","0.8","0.2","","","","","0.4253353094","0.1441925756","0.2590796483","0.3390746663","","","","","","","","","","72","H","0","img/none_selected.jpg","","222","main_expt",""
"","bandit","302","789836","0.0-264.0-0.0","50897091","wem/bandit_party_1","A3CTXNQ2GXIQSP","either","6","3342","","","","","","","0","0","1","0.1731110736","","0.6","0.4","0.8","0.2","","","","","0.4559825987","0.1731110736","0.2640852941","0.384843876","","","","","","","","","","74","J","1","","","223","main_expt",""
"","bandit","303","791914","0.0-265.0-0.0","50897091","wem/bandit_party_1","A3CTXNQ2GXIQSP","either","6","565","","","","","","","1","0","0","0.2636590797","","0.6","0.4","0.8","0.2","","","","","0.464560515","0.1124600034","0.2636590797","0.4367619307","","","","","","","","","","75","K","2","","","224","main_expt",""
"","bandit","304","793852","0.0-266.0-0.0","50897091","wem/bandit_party_1","A3CTXNQ2GXIQSP","either","6","423","","","","","","","0","0","1","0.3110444069","","0.6","0.4","0.8","0.2","","","","","0.4528378766","0.1174510337","0.3110444069","0.42055701","","","","","","","","","","75","K","2","","","225","main_expt",""
"","bandit","305","799157","0.0-267.0-0.0","50897091","wem/bandit_party_1","A3CTXNQ2GXIQSP","either","6","3792","","","","","","","0","0","1","0.3268768972","","0.6","0.4","0.8","0.2","","","","","0.4585160156","0.1494320736","0.3268768972","0.4282593698","","","","","","","","","","75","K","2","","","226","main_expt",""
"","bandit","306","801386","0.0-268.0-0.0","50897091","wem/bandit_party_1","A3CTXNQ2GXIQSP","either","6","711","","","","","","","0","0","1","0.4213985596","","0.6","0.4","0.8","0.2","","","","","0.4525914875","0.1655037845","0.3112991039","0.4213985596","","","","","","","","","","76","L","3","","","227","main_expt",""
"","bandit","307","803289","0.0-269.0-0.0","50897091","wem/bandit_party_1","A3CTXNQ2GXIQSP","either","6","386","","","","","","","0","0","1","0.4618810074","","0.6","0.4","0.8","0.2","","","","","0.4618810074","0.1595877114","0.3481066565","0.4115599459","","","","","","","","","","72","H","0","img/none_selected.jpg","","228","main_expt",""
"","bandit","308","805320","0.0-270.0-0.0","50897091","wem/bandit_party_1","A3CTXNQ2GXIQSP","either","6","515","","","","","","","0","0","1","0.4661541784","","0.6","0.4","0.8","0.2","","","","","0.4661541784","0.1811982871","0.3267856819","0.375967734","","","","","","","","","","72","H","0","img/none_selected.jpg","","229","main_expt",""
"","bandit","309","807568","0.0-271.0-0.0","50897091","wem/bandit_party_1","A3CTXNQ2GXIQSP","either","6","731","","","","","","","0","1","0","","0.4681373403","0.6","0.4","0.8","0.2","0.4681373403","0.2088208598","0.3043034776","0.4172813036","","","","","","","","","","","","","","72","H","0","img/none_selected.jpg","","230","main_expt",""
"","bandit","310","809453","0.0-272.0-0.0","50897091","wem/bandit_party_1","A3CTXNQ2GXIQSP","either","6","372","","","","","","","0","0","1","","0.4733838814","0.6","0.4","0.8","0.2","0.4733838814","0.2062946352","0.3127123154","0.3871641603","","","","","","","","","","","","","","72","H","0","img/none_selected.jpg","","231","main_expt",""
"","bandit","311","811502","0.0-273.0-0.0","50897091","wem/bandit_party_1","A3CTXNQ2GXIQSP","either","6","534","","","","","","","0","0","1","0.455942125","","0.6","0.4","0.8","0.2","","","","","0.455942125","0.1448621505","0.3039198066","0.3381606844","","","","","","","","","","72","H","0","img/none_selected.jpg","","232","main_expt",""
"","bandit","312","813585","0.0-274.0-0.0","50897091","wem/bandit_party_1","A3CTXNQ2GXIQSP","either","6","566","","","","","","","1","0","0","0.4523014459","","0.6","0.4","0.8","0.2","","","","","0.4523014459","0.1096360744","0.2846072758","0.2918198365","","","","","","","","","","72","H","0","img/none_selected.jpg","","233","main_expt",""
"","bandit","313","815657","0.0-275.0-0.0","50897091","wem/bandit_party_1","A3CTXNQ2GXIQSP","either","6","555","","","","","","","0","0","1","0.4715877437","","0.6","0.4","0.8","0.2","","","","","0.4715877437","0.1102272527","0.2430061478","0.3016980071","","","","","","","","","","72","H","0","img/none_selected.jpg","","234","main_expt",""
"","bandit","314","817549","0.0-276.0-0.0","50897091","wem/bandit_party_1","A3CTXNQ2GXIQSP","either","6","378","","","","","","","0","0","1","0.1428859574","","0.6","0.4","0.8","0.2","","","","","0.4667146267","0.1428859574","0.263037213","0.2940059945","","","","","","","","","","74","J","1","","","235","main_expt",""
