"consent","trial_type","trial_index","time_elapsed","internal_node_id","subjID","study","MID","cond","drift","rt","responses","button_pressed","key_press","like","value","connected","gems","bombs","no_reward","GemPrChosen","BombPrChosen","GainOverPainPr_0","GainOverPainPr_1","GainOverPainPr_2","GainOverPainPr_3","LosePr_0","LosePr_1","LosePr_2","LosePr_3","WinPr_0","WinPr_1","WinPr_2","WinPr_3","Q0","Q1","Q2","gender","age","ethnicity","label","expt_phase","target","respCharCode","respKey","respChoiceNum","respChoice","practice","trial_counter","trial_label","Q0_index"
"GDM/GDM_behavioral_consent_30min_online.html","consent","0","15566","0.0-0.0","51166309","wem/bandit_party_1","A4FGOT6ID768H","either","8","","","","","","","","","","","","","","","","","","","","","","","","","","","","","","","","","","","","","","","","",""
"","survey-text","1","25829","0.0-1.0","51166309","wem/bandit_party_1","A4FGOT6ID768H","either","8","9254","{""Q0"":""A4FGOT6ID768H""}","","","","","","","","","","","","","","","","","","","","","","","","","","","","","","","","","","","","","","",""
"","button-response","2","28798","0.0-2.0","51166309","wem/bandit_party_1","A4FGOT6ID768H","either","8","1964","","0","","","","","","","","","","","","","","","","","","","","","","","","","","","","","","","","","","","","","",""
"","text-replacement","3","48409","0.0-3.0","51166309","wem/bandit_party_1","A4FGOT6ID768H","either","8","18606","","","32","","","","","","","","","","","","","","","","","","","","","","","","","","","","","","","","","","","","",""
"","text-replacement","4","57092","0.0-4.0","51166309","wem/bandit_party_1","A4FGOT6ID768H","either","8","8679","","","32","","","","","","","","","","","","","","","","","","","","","","","","","","","","","","","","","","","","",""
"","identification","5","65971","0.0-6.0-0.0","51166309","wem/bandit_party_1","A4FGOT6ID768H","either","8","8871","","","","4","3","3","","","","","","","","","","","","","","","","","","","","","","","","pre","identification_pre","the Republican party","","","","","","","",""
"","identification","6","70959","0.0-6.0-1.0","51166309","wem/bandit_party_1","A4FGOT6ID768H","either","8","3972","","","","0","0","0","","","","","","","","","","","","","","","","","","","","","","","","pre","identification_pre","the Democratic Party","","","","","","","",""
"","text-replacement","7","83556","0.0-7.0","51166309","wem/bandit_party_1","A4FGOT6ID768H","either","8","11593","","","32","","","","","","","","","","","","","","","","","","","","","","","","","","","","","","","","","","","","",""
"","text-replacement","8","91383","0.0-8.0","51166309","wem/bandit_party_1","A4FGOT6ID768H","either","8","7825","","","32","","","","","","","","","","","","","","","","","","","","","","","","","","","","","","","","","","","","",""
"","text-replacement","9","102736","0.0-9.0","51166309","wem/bandit_party_1","A4FGOT6ID768H","either","8","11352","","","32","","","","","","","","","","","","","","","","","","","","","","","","","","","","","","","","","","","","",""
"","text-replacement","10","109033","0.0-10.0","51166309","wem/bandit_party_1","A4FGOT6ID768H","either","8","6293","","","32","","","","","","","","","","","","","","","","","","","","","","","","","","","","","","","","","","","","",""
"","text-replacement","11","117593","0.0-11.0","51166309","wem/bandit_party_1","A4FGOT6ID768H","either","8","8560","","","32","","","","","","","","","","","","","","","","","","","","","","","","","","","","","","","","","","","","",""
"","bandit","12","121802","0.0-12.0-0.0","51166309","wem/bandit_party_1","A4FGOT6ID768H","either","8","2693","","","","","","","0","0","1","0","0","","","","","0","","","","0","","","","","","","","","","","","","74","J","0","img/none_selected_demo.jpg","true","0","",""
"","bandit","13","125044","0.0-13.0-0.0","51166309","wem/bandit_party_1","A4FGOT6ID768H","either","8","1731","","","","","","","0","0","1","0","0","","","","","0","","","","0","","","","","","","","","","","","","75","K","0","img/none_selected_demo.jpg","true","0","",""
"","text-replacement","14","144878","0.0-14.0","51166309","wem/bandit_party_1","A4FGOT6ID768H","either","8","19834","","","32","","","","","","","","","","","","","","","","","","","","","","","","","","","","","","","","","","","","",""
"","text-replacement","15","151566","0.0-15.0","51166309","wem/bandit_party_1","A4FGOT6ID768H","either","8","6688","","","32","","","","","","","","","","","","","","","","","","","","","","","","","","","","","","","","","","","","",""
"","text-replacement","16","158715","0.0-16.0","51166309","wem/bandit_party_1","A4FGOT6ID768H","either","8","7149","","","32","","","","","","","","","","","","","","","","","","","","","","","","","","","","","","","","","","","","",""
"","text-replacement","17","163358","0.0-17.0","51166309","wem/bandit_party_1","A4FGOT6ID768H","either","8","4639","","","32","","","","","","","","","","","","","","","","","","","","","","","","","","","","","","","","","","","","",""
"","bandit","18","166893","0.0-18.0-0.0","51166309","wem/bandit_party_1","A4FGOT6ID768H","either","8","2018","","","","","","","0","0","1","","0.2","0.5","0.5","","","0.8","0.2","","","","","","","","","","","","","","","","75","K","1","","true","0","80_20_practice",""
"","bandit","19","171627","0.0-18.0-1.0","51166309","wem/bandit_party_1","A4FGOT6ID768H","either","8","3224","","","","","","","0","0","1","","0.8","0.5","0.5","","","0.8","0.2","","","","","","","","","","","","","","","","74","J","0","img/none_selected_demo.jpg","true","0","80_20_practice",""
"","bandit","20","174934","0.0-18.0-2.0","51166309","wem/bandit_party_1","A4FGOT6ID768H","either","8","1798","","","","","","","0","0","1","","0.2","0.5","0.5","","","0.8","0.2","","","","","","","","","","","","","","","","75","K","1","","true","0","80_20_practice",""
"","bandit","21","178980","0.0-18.0-3.0","51166309","wem/bandit_party_1","A4FGOT6ID768H","either","8","2538","","","","","","","0","0","1","0.2","","0.5","0.5","","","","","","","0.8","0.2","","","","","","","","","","","","75","K","1","","true","0","80_20_practice",""
"","bandit","22","182643","0.0-18.0-4.0","51166309","wem/bandit_party_1","A4FGOT6ID768H","either","8","2154","","","","","","","0","0","1","0.2","","0.5","0.5","","","","","","","0.8","0.2","","","","","","","","","","","","75","K","1","","true","0","80_20_practice",""
"","bandit","23","189439","0.0-18.0-5.0","51166309","wem/bandit_party_1","A4FGOT6ID768H","either","8","5287","","","","","","","1","0","0","0.8","","0.5","0.5","","","","","","","0.8","0.2","","","","","","","","","","","","74","J","0","img/none_selected_demo.jpg","true","0","80_20_practice",""
"","bandit","24","192481","0.0-18.0-6.0","51166309","wem/bandit_party_1","A4FGOT6ID768H","either","8","1533","","","","","","","0","0","1","0.8","","0.5","0.5","","","","","","","0.8","0.2","","","","","","","","","","","","74","J","0","img/none_selected_demo.jpg","true","0","80_20_practice",""
"","bandit","25","194961","0.0-18.0-7.0","51166309","wem/bandit_party_1","A4FGOT6ID768H","either","8","971","","","","","","","0","1","0","","0.8","0.5","0.5","","","0.8","0.2","","","","","","","","","","","","","","","","74","J","0","img/none_selected_demo.jpg","true","0","80_20_practice",""
"","bandit","26","196577","0.0-18.0-8.0","51166309","wem/bandit_party_1","A4FGOT6ID768H","either","8","110","","","","","","","0","1","0","","0.8","0.5","0.5","","","0.8","0.2","","","","","","","","","","","","","","","","74","J","0","img/none_selected_demo.jpg","true","0","80_20_practice",""
"","bandit","27","199793","0.0-18.0-9.0","51166309","wem/bandit_party_1","A4FGOT6ID768H","either","8","1702","","","","","","","1","0","0","0.8","","0.5","0.5","","","","","","","0.8","0.2","","","","","","","","","","","","74","J","0","img/none_selected_demo.jpg","true","0","80_20_practice",""
"","bandit","28","203421","0.0-18.0-10.0","51166309","wem/bandit_party_1","A4FGOT6ID768H","either","8","2117","","","","","","","1","0","0","0.8","","0.5","0.5","","","","","","","0.8","0.2","","","","","","","","","","","","74","J","0","img/none_selected_demo.jpg","true","0","80_20_practice",""
"","bandit","29","210746","0.0-18.0-11.0","51166309","wem/bandit_party_1","A4FGOT6ID768H","either","8","5809","","","","","","","1","0","0","0.8","","0.5","0.5","","","","","","","0.8","0.2","","","","","","","","","","","","74","J","0","img/none_selected_demo.jpg","true","0","80_20_practice",""
"","bandit","30","212679","0.0-18.0-12.0","51166309","wem/bandit_party_1","A4FGOT6ID768H","either","8","427","","","","","","","1","0","0","0.8","","0.5","0.5","","","","","","","0.8","0.2","","","","","","","","","","","","74","J","0","img/none_selected_demo.jpg","true","0","80_20_practice",""
"","bandit","31","217735","0.0-18.0-13.0","51166309","wem/bandit_party_1","A4FGOT6ID768H","either","8","3543","","","","","","","0","1","0","","0.8","0.5","0.5","","","0.8","0.2","","","","","","","","","","","","","","","","74","J","0","img/none_selected_demo.jpg","true","0","80_20_practice",""
"","bandit","32","221637","0.0-18.0-14.0","51166309","wem/bandit_party_1","A4FGOT6ID768H","either","8","2392","","","","","","","1","0","0","0.8","","0.5","0.5","","","","","","","0.8","0.2","","","","","","","","","","","","74","J","0","img/none_selected_demo.jpg","true","0","80_20_practice",""
"","bandit","33","224494","0.0-18.0-15.0","51166309","wem/bandit_party_1","A4FGOT6ID768H","either","8","1349","","","","","","","0","1","0","","0.8","0.5","0.5","","","0.8","0.2","","","","","","","","","","","","","","","","74","J","0","img/none_selected_demo.jpg","true","0","80_20_practice",""
"","bandit","34","226414","0.0-18.0-16.0","51166309","wem/bandit_party_1","A4FGOT6ID768H","either","8","412","","","","","","","0","0","1","0.8","","0.5","0.5","","","","","","","0.8","0.2","","","","","","","","","","","","74","J","0","img/none_selected_demo.jpg","true","0","80_20_practice",""
"","bandit","35","229615","0.0-18.0-17.0","51166309","wem/bandit_party_1","A4FGOT6ID768H","either","8","1689","","","","","","","0","1","0","","0.8","0.5","0.5","","","0.8","0.2","","","","","","","","","","","","","","","","74","J","0","img/none_selected_demo.jpg","true","0","80_20_practice",""
"","bandit","36","231681","0.0-18.0-18.0","51166309","wem/bandit_party_1","A4FGOT6ID768H","either","8","547","","","","","","","0","1","0","","0.8","0.5","0.5","","","0.8","0.2","","","","","","","","","","","","","","","","74","J","0","img/none_selected_demo.jpg","true","0","80_20_practice",""
"","bandit","37","233829","0.0-18.0-19.0","51166309","wem/bandit_party_1","A4FGOT6ID768H","either","8","628","","","","","","","0","1","0","","0.8","0.5","0.5","","","0.8","0.2","","","","","","","","","","","","","","","","74","J","0","img/none_selected_demo.jpg","true","0","80_20_practice",""
"","text-replacement","38","254887","0.0-19.0","51166309","wem/bandit_party_1","A4FGOT6ID768H","either","8","21057","","","32","","","","","","","","","","","","","","","","","","","","","","","","","","","","","","","","","","","","",""
"","bandit","39","257657","0.0-20.0-0.0","51166309","wem/bandit_party_1","A4FGOT6ID768H","either","8","1264","","","","","","","1","0","0","1","0","","","","","0","1","","","1","0","","","","","","","","","","","","74","J","0","img/none_selected_demo.jpg","true","0","",""
"","text-replacement","40","263691","0.0-21.0","51166309","wem/bandit_party_1","A4FGOT6ID768H","either","8","6031","","","32","","","","","","","","","","","","","","","","","","","","","","","","","","","","","","","","","","","","",""
"","text-replacement","41","267078","0.0-22.0","51166309","wem/bandit_party_1","A4FGOT6ID768H","either","8","3383","","","32","","","","","","","","","","","","","","","","","","","","","","","","","","","","","","","","","","","","",""
"","text-replacement","42","269508","0.0-23.0","51166309","wem/bandit_party_1","A4FGOT6ID768H","either","8","2430","","","32","","","","","","","","","","","","","","","","","","","","","","","","","","","","","","","","","","","","",""
"","text-replacement","43","273176","0.0-24.0","51166309","wem/bandit_party_1","A4FGOT6ID768H","either","8","3668","","","32","","","","","","","","","","","","","","","","","","","","","","","","","","","","","","","","","","","","",""
"","text-replacement","44","285960","0.0-25.0","51166309","wem/bandit_party_1","A4FGOT6ID768H","either","8","12784","","","32","","","","","","","","","","","","","","","","","","","","","","","","","","","","","","","","","","","","",""
"","text-replacement","45","296289","0.0-26.0","51166309","wem/bandit_party_1","A4FGOT6ID768H","either","8","10329","","","32","","","","","","","","","","","","","","","","","","","","","","","","","","","","","","","","","","","","",""
"","text-replacement","46","299859","0.0-27.0","51166309","wem/bandit_party_1","A4FGOT6ID768H","either","8","3563","","","32","","","","","","","","","","","","","","","","","","","","","","","","","","","","","","","","","","","","",""
"","text-replacement","47","302474","0.0-28.0","51166309","wem/bandit_party_1","A4FGOT6ID768H","either","8","2615","","","32","","","","","","","","","","","","","","","","","","","","","","","","","","","","","","","","","","","","",""
"","text-replacement","48","343856","0.0-29.0","51166309","wem/bandit_party_1","A4FGOT6ID768H","either","8","41381","","","32","","","","","","","","","","","","","","","","","","","","","","","","","","","","","","","","","","","","",""
"","text-replacement","49","345891","0.0-30.0","51166309","wem/bandit_party_1","A4FGOT6ID768H","either","8","2033","","","32","","","","","","","","","","","","","","","","","","","","","","","","","","","","","","","","","","","","",""
"","text-replacement","50","352015","0.0-31.0","51166309","wem/bandit_party_1","A4FGOT6ID768H","either","8","6122","","","32","","","","","","","","","","","","","","","","","","","","","","","","","","","","","","","","","","","","",""
"","bandit","51","354246","0.0-32.0-0.0","51166309","wem/bandit_party_1","A4FGOT6ID768H","either","8","723","","","","","","","1","0","0","0.6","","0.5","0.5","0.5","0.5","","","","","0.8","0.2","0.6","0.2","","","","","","","","","","75","K","2","","true","0","full_practice",""
"","bandit","52","356223","0.0-32.0-1.0","51166309","wem/bandit_party_1","A4FGOT6ID768H","either","8","470","","","","","","","0","0","1","0.6","","0.5","0.5","0.5","0.5","","","","","0.8","0.2","0.6","0.2","","","","","","","","","","75","K","2","","true","0","full_practice",""
"","bandit","53","358393","0.0-32.0-2.0","51166309","wem/bandit_party_1","A4FGOT6ID768H","either","8","662","","","","","","","0","1","0","","0.6","0.5","0.5","0.5","0.5","0.8","0.2","0.6","0.2","","","","","","","","","","","","","","75","K","2","","true","0","full_practice",""
"","bandit","54","360434","0.0-32.0-3.0","51166309","wem/bandit_party_1","A4FGOT6ID768H","either","8","530","","","","","","","0","0","1","0.6","","0.5","0.5","0.5","0.5","","","","","0.8","0.2","0.6","0.2","","","","","","","","","","75","K","2","","true","0","full_practice",""
"","bandit","55","362989","0.0-32.0-4.0","51166309","wem/bandit_party_1","A4FGOT6ID768H","either","8","1045","","","","","","","1","0","0","0.6","","0.5","0.5","0.5","0.5","","","","","0.8","0.2","0.6","0.2","","","","","","","","","","75","K","2","","true","0","full_practice",""
"","bandit","56","364926","0.0-32.0-5.0","51166309","wem/bandit_party_1","A4FGOT6ID768H","either","8","428","","","","","","","0","0","1","0.6","","0.5","0.5","0.5","0.5","","","","","0.8","0.2","0.6","0.2","","","","","","","","","","75","K","2","","true","0","full_practice",""
"","bandit","57","366870","0.0-32.0-6.0","51166309","wem/bandit_party_1","A4FGOT6ID768H","either","8","429","","","","","","","0","0","1","","0.6","0.5","0.5","0.5","0.5","0.8","0.2","0.6","0.2","","","","","","","","","","","","","","75","K","2","","true","0","full_practice",""
"","bandit","58","368749","0.0-32.0-7.0","51166309","wem/bandit_party_1","A4FGOT6ID768H","either","8","364","","","","","","","1","0","0","0.2","","0.5","0.5","0.5","0.5","","","","","0.8","0.2","0.6","0.2","","","","","","","","","","76","L","3","","true","0","full_practice",""
"","bandit","59","370319","0.0-32.0-8.0","51166309","wem/bandit_party_1","A4FGOT6ID768H","either","8","62","","","","","","","0","0","1","0.2","","0.5","0.5","0.5","0.5","","","","","0.8","0.2","0.6","0.2","","","","","","","","","","76","L","3","","true","0","full_practice",""
"","bandit","60","371917","0.0-32.0-9.0","51166309","wem/bandit_party_1","A4FGOT6ID768H","either","8","91","","","","","","","0","0","1","","0.2","0.5","0.5","0.5","0.5","0.8","0.2","0.6","0.2","","","","","","","","","","","","","","76","L","3","","true","0","full_practice",""
"","bandit","61","375646","0.0-32.0-10.0","51166309","wem/bandit_party_1","A4FGOT6ID768H","either","8","2214","","","","","","","0","0","1","0.8","","0.5","0.5","0.5","0.5","","","","","0.8","0.2","0.6","0.2","","","","","","","","","","72","H","0","img/none_selected.jpg","true","0","full_practice",""
"","bandit","62","377451","0.0-32.0-11.0","51166309","wem/bandit_party_1","A4FGOT6ID768H","either","8","290","","","","","","","0","1","0","","0.8","0.5","0.5","0.5","0.5","0.8","0.2","0.6","0.2","","","","","","","","","","","","","","72","H","0","img/none_selected.jpg","true","0","full_practice",""
"","bandit","63","378973","0.0-32.0-12.0","51166309","wem/bandit_party_1","A4FGOT6ID768H","either","8","8","","","","","","","1","0","0","0.8","","0.5","0.5","0.5","0.5","","","","","0.8","0.2","0.6","0.2","","","","","","","","","","72","H","0","img/none_selected.jpg","true","0","full_practice",""
"","bandit","64","380579","0.0-32.0-13.0","51166309","wem/bandit_party_1","A4FGOT6ID768H","either","8","97","","","","","","","0","0","1","0.8","","0.5","0.5","0.5","0.5","","","","","0.8","0.2","0.6","0.2","","","","","","","","","","72","H","0","img/none_selected.jpg","true","0","full_practice",""
"","bandit","65","382513","0.0-32.0-14.0","51166309","wem/bandit_party_1","A4FGOT6ID768H","either","8","427","","","","","","","1","0","0","0.8","","0.5","0.5","0.5","0.5","","","","","0.8","0.2","0.6","0.2","","","","","","","","","","72","H","0","img/none_selected.jpg","true","0","full_practice",""
"","bandit","66","384279","0.0-32.0-15.0","51166309","wem/bandit_party_1","A4FGOT6ID768H","either","8","257","","","","","","","0","1","0","","0.8","0.5","0.5","0.5","0.5","0.8","0.2","0.6","0.2","","","","","","","","","","","","","","72","H","0","img/none_selected.jpg","true","0","full_practice",""
"","bandit","67","386857","0.0-32.0-16.0","51166309","wem/bandit_party_1","A4FGOT6ID768H","either","8","1063","","","","","","","0","0","1","0.8","","0.5","0.5","0.5","0.5","","","","","0.8","0.2","0.6","0.2","","","","","","","","","","72","H","0","img/none_selected.jpg","true","0","full_practice",""
"","bandit","68","389937","0.0-32.0-17.0","51166309","wem/bandit_party_1","A4FGOT6ID768H","either","8","1566","","","","","","","0","1","0","","0.8","0.5","0.5","0.5","0.5","0.8","0.2","0.6","0.2","","","","","","","","","","","","","","72","H","0","img/none_selected.jpg","true","0","full_practice",""
"","bandit","69","391948","0.0-32.0-18.0","51166309","wem/bandit_party_1","A4FGOT6ID768H","either","8","495","","","","","","","1","0","0","0.8","","0.5","0.5","0.5","0.5","","","","","0.8","0.2","0.6","0.2","","","","","","","","","","72","H","0","img/none_selected.jpg","true","0","full_practice",""
"","bandit","70","393761","0.0-32.0-19.0","51166309","wem/bandit_party_1","A4FGOT6ID768H","either","8","303","","","","","","","0","1","0","","0.8","0.5","0.5","0.5","0.5","0.8","0.2","0.6","0.2","","","","","","","","","","","","","","72","H","0","img/none_selected.jpg","true","0","full_practice",""
"","text","71","397449","0.0-33.0","51166309","wem/bandit_party_1","A4FGOT6ID768H","either","8","3672","","","32","","","","","","","","","","","","","","","","","","","","","","","","","","","","","","","","","","","","",""
"","text-replacement","72","409717","0.0-34.0","51166309","wem/bandit_party_1","A4FGOT6ID768H","either","8","11249","","","32","","","","","","","","","","","","","","","","","","","","","","","","","","","","","","","","","","","","",""
"","text-replacement","73","424107","0.0-35.0","51166309","wem/bandit_party_1","A4FGOT6ID768H","either","8","14388","","","32","","","","","","","","","","","","","","","","","","","","","","","","","","","","","","","","","","","","",""
"","text-replacement","74","428722","0.0-36.0","51166309","wem/bandit_party_1","A4FGOT6ID768H","either","8","4613","","","32","","","","","","","","","","","","","","","","","","","","","","","","","","","","","","","","","","","","",""
"","text-replacement","75","435249","0.0-37.0","51166309","wem/bandit_party_1","A4FGOT6ID768H","either","8","6527","","","32","","","","","","","","","","","","","","","","","","","","","","","","","","","","","","","","","","","","",""
"","text-replacement","76","437909","0.0-38.0","51166309","wem/bandit_party_1","A4FGOT6ID768H","either","8","2656","","","32","","","","","","","","","","","","","","","","","","","","","","","","","","","","","","","","","","","","",""
"","survey-multi-choice-replacement","77","445438","0.0-39.0-0.0","51166309","wem/bandit_party_1","A4FGOT6ID768H","either","8","7521","","","","","","","","","","","","","","","","","","","","","","","","Money will be added to the pool for <span style='color:red;'>REPUBLICANS</span>","","","","","","","attn_check","","","","","","","","","0"
"","survey-multi-choice-replacement","78","456099","0.0-40.0-0.0","51166309","wem/bandit_party_1","A4FGOT6ID768H","either","8","9648","","","","","","","","","","","","","","","","","","","","","","","","Equal amounts of money will be added to the pool for <span style='color:red;'>REPUBLICANS</span> and subtracted from the pool for <span style='color:blue;'>DEMOCRATS</span>","","","","","","","attn_check","","","","","","","","","2"
"","survey-multi-choice-replacement","79","461858","0.0-41.0-0.0","51166309","wem/bandit_party_1","A4FGOT6ID768H","either","8","4751","","","","","","","","","","","","","","","","","","","","","","","","No money will be added to either pool","","","","","","","attn_check","","","","","","","","","3"
"","bandit","80","469633","0.0-42.0-0.0","51166309","wem/bandit_party_1","A4FGOT6ID768H","either","8","5250","","","","","","","0","0","1","0.3540548627","","0.6","0.4","0.2","0.8","","","","","0.2928194041","0.1351790469","0.2637293772","0.3540548627","","","","","","","","","","76","L","3","","","1","main_expt",""
"","bandit","81","471508","0.0-43.0-0.0","51166309","wem/bandit_party_1","A4FGOT6ID768H","either","8","362","","","","","","","1","0","0","0.3812516843","","0.6","0.4","0.2","0.8","","","","","0.3040419902","0.125602744","0.2760013096","0.3812516843","","","","","","","","","","76","L","3","","","2","main_expt",""
"","bandit","82","473414","0.0-44.0-0.0","51166309","wem/bandit_party_1","A4FGOT6ID768H","either","8","394","","","","","","","0","0","1","0.3901316494","","0.6","0.4","0.2","0.8","","","","","0.2875251023","0.09574082279","0.3240499928","0.3901316494","","","","","","","","","","76","L","3","","","3","main_expt",""
"","bandit","83","476040","0.0-45.0-0.0","51166309","wem/bandit_party_1","A4FGOT6ID768H","either","8","1119","","","","","","","0","0","1","0.3945399471","","0.6","0.4","0.2","0.8","","","","","0.2965567903","0.0913382225","0.3510822359","0.3945399471","","","","","","","","","","76","L","3","","","4","main_expt",""
"","bandit","84","477714","0.0-46.0-0.0","51166309","wem/bandit_party_1","A4FGOT6ID768H","either","8","170","","","","","","","0","0","1","","0.3522827721","0.6","0.4","0.2","0.8","0.2681113314","0.106177601","0.3522827721","0.3997977613","","","","","","","","","","","","","","75","K","2","","","5","main_expt",""
"","bandit","85","480876","0.0-47.0-0.0","51166309","wem/bandit_party_1","A4FGOT6ID768H","either","8","1650","","","","","","","1","0","0","0.382674005","","0.6","0.4","0.2","0.8","","","","","0.2330443498","0.08998955495","0.382674005","0.390783501","","","","","","","","","","75","K","2","","","6","main_expt",""
"","bandit","86","482713","0.0-48.0-0.0","51166309","wem/bandit_party_1","A4FGOT6ID768H","either","8","323","","","","","","","0","1","0","","0.3998463606","0.6","0.4","0.2","0.8","0.1630509172","0.1077526668","0.3998463606","0.3305693427","","","","","","","","","","","","","","75","K","2","","","7","main_expt",""
"","bandit","87","484677","0.0-49.0-0.0","51166309","wem/bandit_party_1","A4FGOT6ID768H","either","8","452","","","","","","","0","0","1","","0.3832029687","0.6","0.4","0.2","0.8","0.2002468685","0.1243697388","0.3832029687","0.3056545716","","","","","","","","","","","","","","75","K","2","","","8","main_expt",""
"","bandit","88","486969","0.0-50.0-0.0","51166309","wem/bandit_party_1","A4FGOT6ID768H","either","8","772","","","","","","","0","1","0","","0.3796681134","0.6","0.4","0.2","0.8","0.1835034381","0.1698108096","0.3796681134","0.3278889804","","","","","","","","","","","","","","75","K","2","","","9","main_expt",""
"","bandit","89","489160","0.0-51.0-0.0","51166309","wem/bandit_party_1","A4FGOT6ID768H","either","8","686","","","","","","","0","1","0","","0.3614311416","0.6","0.4","0.2","0.8","0.1939723001","0.221757114","0.3614311416","0.3137855556","","","","","","","","","","","","","","75","K","2","","","10","main_expt",""
"","bandit","90","491110","0.0-52.0-0.0","51166309","wem/bandit_party_1","A4FGOT6ID768H","either","8","441","","","","","","","0","1","0","","0.3938737051","0.6","0.4","0.2","0.8","0.1949806013","0.1961062924","0.3938737051","0.3253079181","","","","","","","","","","","","","","75","K","2","","","11","main_expt",""
"","bandit","91","495843","0.0-53.0-0.0","51166309","wem/bandit_party_1","A4FGOT6ID768H","either","8","3222","","","","","","","0","1","0","","0.3810544723","0.6","0.4","0.2","0.8","0.2587943474","0.1907056259","0.3810544723","0.3298150516","","","","","","","","","","","","","","75","K","2","","","12","main_expt",""
"","bandit","92","498879","0.0-54.0-0.0","51166309","wem/bandit_party_1","A4FGOT6ID768H","either","8","1528","","","","","","","0","0","1","0.3707046684","","0.6","0.4","0.2","0.8","","","","","0.3085985727","0.2162865666","0.3707046684","0.3673307406","","","","","","","","","","75","K","2","","","13","main_expt",""
"","bandit","93","500963","0.0-55.0-0.0","51166309","wem/bandit_party_1","A4FGOT6ID768H","either","8","575","","","","","","","0","0","1","","0.3486531997","0.6","0.4","0.2","0.8","0.2464992766","0.2399362825","0.3486531997","0.3679224674","","","","","","","","","","","","","","75","K","2","","","14","main_expt",""
"","bandit","94","504652","0.0-56.0-0.0","51166309","wem/bandit_party_1","A4FGOT6ID768H","either","8","2179","","","","","","","0","0","1","0.1986859052","","0.6","0.4","0.2","0.8","","","","","0.2474611475","0.1986859052","0.3263578384","0.3062507314","","","","","","","","","","74","J","1","","","15","main_expt",""
"","bandit","95","506200","0.0-57.0-0.0","51166309","wem/bandit_party_1","A4FGOT6ID768H","either","8","38","","","","","","","0","1","0","","0.1865641621","0.6","0.4","0.2","0.8","0.2835538477","0.1865641621","0.3514189979","0.2892976033","","","","","","","","","","","","","","74","J","1","","","16","main_expt",""
"","bandit","96","508313","0.0-58.0-0.0","51166309","wem/bandit_party_1","A4FGOT6ID768H","either","8","604","","","","","","","0","0","1","","0.2035525071","0.6","0.4","0.2","0.8","0.3256112075","0.2035525071","0.3532592314","0.2861796528","","","","","","","","","","","","","","74","J","1","","","17","main_expt",""
"","bandit","97","510777","0.0-59.0-0.0","51166309","wem/bandit_party_1","A4FGOT6ID768H","either","8","954","","","","","","","0","0","1","0.2039336531","","0.6","0.4","0.2","0.8","","","","","0.3802227677","0.2039336531","0.3858608091","0.2958570682","","","","","","","","","","74","J","1","","","18","main_expt",""
"","bandit","98","513695","0.0-60.0-0.0","51166309","wem/bandit_party_1","A4FGOT6ID768H","either","8","1407","","","","","","","0","0","1","0.360566968","","0.6","0.4","0.2","0.8","","","","","0.360566968","0.1598579642","0.3837638756","0.3353028819","","","","","","","","","","72","H","0","img/none_selected.jpg","","19","main_expt",""
"","bandit","99","516047","0.0-61.0-0.0","51166309","wem/bandit_party_1","A4FGOT6ID768H","either","8","847","","","","","","","0","1","0","","0.3696799013","0.6","0.4","0.2","0.8","0.3696799013","0.1437622327","0.2872100501","0.3139704528","","","","","","","","","","","","","","72","H","0","img/none_selected.jpg","","20","main_expt",""
"","bandit","100","517991","0.0-62.0-0.0","51166309","wem/bandit_party_1","A4FGOT6ID768H","either","8","440","","","","","","","0","0","1","0.4006907501","","0.6","0.4","0.2","0.8","","","","","0.4006907501","0.07974703335","0.2975414498","0.2524707143","","","","","","","","","","72","H","0","img/none_selected.jpg","","21","main_expt",""
"","bandit","101","520100","0.0-63.0-0.0","51166309","wem/bandit_party_1","A4FGOT6ID768H","either","8","605","","","","","","","0","1","0","","0.4081217326","0.6","0.4","0.2","0.8","0.4081217326","0.1361132429","0.2741965999","0.248326021","","","","","","","","","","","","","","72","H","0","img/none_selected.jpg","","22","main_expt",""
"","bandit","102","522364","0.0-64.0-0.0","51166309","wem/bandit_party_1","A4FGOT6ID768H","either","8","751","","","","","","","0","0","1","0.3740207531","","0.6","0.4","0.2","0.8","","","","","0.3740207531","0.1705973249","0.2379064449","0.2937153481","","","","","","","","","","72","H","0","img/none_selected.jpg","","23","main_expt",""
"","bandit","103","525356","0.0-65.0-0.0","51166309","wem/bandit_party_1","A4FGOT6ID768H","either","8","1483","","","","","","","0","0","1","0.3913756451","","0.6","0.4","0.2","0.8","","","","","0.3913756451","0.1392759225","0.2078598572","0.2625315469","","","","","","","","","","72","H","0","img/none_selected.jpg","","24","main_expt",""
"","bandit","104","527375","0.0-66.0-0.0","51166309","wem/bandit_party_1","A4FGOT6ID768H","either","8","510","","","","","","","0","0","1","","0.1800538527","0.6","0.4","0.2","0.8","0.4100905738","0.1800538527","0.2764850733","0.2405651368","","","","","","","","","","","","","","74","J","1","","","25","main_expt",""
"","bandit","105","529376","0.0-67.0-0.0","51166309","wem/bandit_party_1","A4FGOT6ID768H","either","8","492","","","","","","","0","0","1","0.2503350336","","0.6","0.4","0.2","0.8","","","","","0.3600668969","0.2146400533","0.3080191348","0.2503350336","","","","","","","","","","76","L","3","","","26","main_expt",""
"","bandit","106","531540","0.0-68.0-0.0","51166309","wem/bandit_party_1","A4FGOT6ID768H","either","8","647","","","","","","","0","0","1","0.354091838","","0.6","0.4","0.2","0.8","","","","","0.3703096079","0.1948367851","0.3606197488","0.354091838","","","","","","","","","","76","L","3","","","27","main_expt",""
"","bandit","107","533611","0.0-69.0-0.0","51166309","wem/bandit_party_1","A4FGOT6ID768H","either","8","566","","","","","","","0","1","0","","0.3696097963","0.6","0.4","0.2","0.8","0.3527269899","0.2282666016","0.3696097963","0.3419366675","","","","","","","","","","","","","","75","K","2","","","28","main_expt",""
"","bandit","108","535839","0.0-70.0-0.0","51166309","wem/bandit_party_1","A4FGOT6ID768H","either","8","715","","","","","","","0","0","1","","0.3434444954","0.6","0.4","0.2","0.8","0.2854860911","0.1842618798","0.3434444954","0.361896517","","","","","","","","","","","","","","75","K","2","","","29","main_expt",""
"","bandit","109","537737","0.0-71.0-0.0","51166309","wem/bandit_party_1","A4FGOT6ID768H","either","8","389","","","","","","","0","0","1","","0.3528183973","0.6","0.4","0.2","0.8","0.2971434158","0.1930267653","0.3528183973","0.3701160785","","","","","","","","","","","","","","75","K","2","","","30","main_expt",""
"","bandit","110","539286","0.0-72.0-0.0","51166309","wem/bandit_party_1","A4FGOT6ID768H","either","8","40","","","","","","","0","0","1","","0.3436926249","0.6","0.4","0.2","0.8","0.3192935598","0.2279264959","0.3436926249","0.3602312343","","","","","","","","","","","","","","75","K","2","","","31","main_expt",""
"","bandit","111","541767","0.0-73.0-0.0","51166309","wem/bandit_party_1","A4FGOT6ID768H","either","8","974","","","","","","","0","0","1","0.3550043818","","0.6","0.4","0.2","0.8","","","","","0.2910845839","0.1922668126","0.3392376576","0.3550043818","","","","","","","","","","76","L","3","","","32","main_expt",""
"","bandit","112","544614","0.0-74.0-0.0","51166309","wem/bandit_party_1","A4FGOT6ID768H","either","8","1338","","","","","","","0","0","1","0.1503247695","","0.6","0.4","0.2","0.8","","","","","0.2956883229","0.1503247695","0.2524106513","0.3927862597","","","","","","","","","","74","J","1","","","33","main_expt",""
"","bandit","113","546312","0.0-75.0-0.0","51166309","wem/bandit_party_1","A4FGOT6ID768H","either","8","189","","","","","","","0","0","1","","0.1875072744","0.6","0.4","0.2","0.8","0.2918182698","0.1875072744","0.2378308988","0.4185963197","","","","","","","","","","","","","","74","J","1","","","34","main_expt",""
"","bandit","114","548931","0.0-76.0-0.0","51166309","wem/bandit_party_1","A4FGOT6ID768H","either","8","1105","","","","","","","0","0","1","0.3063909307","","0.6","0.4","0.2","0.8","","","","","0.3063909307","0.2135507624","0.2683654211","0.441983755","","","","","","","","","","72","H","0","img/none_selected.jpg","","35","main_expt",""
"","bandit","115","551183","0.0-77.0-0.0","51166309","wem/bandit_party_1","A4FGOT6ID768H","either","8","733","","","","","","","1","0","0","0.2820805085","","0.6","0.4","0.2","0.8","","","","","0.2820805085","0.2042402853","0.2645223933","0.4352827683","","","","","","","","","","72","H","0","img/none_selected.jpg","","36","main_expt",""
"","bandit","116","553379","0.0-78.0-0.0","51166309","wem/bandit_party_1","A4FGOT6ID768H","either","8","688","","","","","","","0","0","1","0.2610370824","","0.6","0.4","0.2","0.8","","","","","0.2610370824","0.2024605481","0.2360561858","0.450520142","","","","","","","","","","72","H","0","img/none_selected.jpg","","37","main_expt",""
"","bandit","117","555301","0.0-79.0-0.0","51166309","wem/bandit_party_1","A4FGOT6ID768H","either","8","409","","","","","","","0","0","1","","0.1896233007","0.6","0.4","0.2","0.8","0.1896233007","0.1677713785","0.2001865083","0.4681224698","","","","","","","","","","","","","","72","H","0","img/none_selected.jpg","","38","main_expt",""
"","bandit","118","557928","0.0-80.0-0.0","51166309","wem/bandit_party_1","A4FGOT6ID768H","either","8","1116","","","","","","","1","0","0","0.1687915361","","0.6","0.4","0.2","0.8","","","","","0.168851025","0.221779122","0.1687915361","0.4711022053","","","","","","","","","","75","K","2","","","39","main_expt",""
"","bandit","119","560087","0.0-81.0-0.0","51166309","wem/bandit_party_1","A4FGOT6ID768H","either","8","648","","","","","","","0","1","0","","0.1503151413","0.6","0.4","0.2","0.8","0.1615787635","0.2722397218","0.1503151413","0.4559447699","","","","","","","","","","","","","","75","K","2","","","40","main_expt",""
"","bandit","120","561999","0.0-82.0-0.0","51166309","wem/bandit_party_1","A4FGOT6ID768H","either","8","404","","","","","","","0","0","1","","0.08168262283","0.6","0.4","0.2","0.8","0.1472326003","0.3298230943","0.08168262283","0.4412687596","","","","","","","","","","","","","","75","K","2","","","41","main_expt",""
"","bandit","121","564393","0.0-83.0-0.0","51166309","wem/bandit_party_1","A4FGOT6ID768H","either","8","880","","","","","","","0","0","1","0.07668629145","","0.6","0.4","0.2","0.8","","","","","0.1533480506","0.3104885444","0.07668629145","0.4457751761","","","","","","","","","","75","K","2","","","42","main_expt",""
"","bandit","122","566356","0.0-84.0-0.0","51166309","wem/bandit_party_1","A4FGOT6ID768H","either","8","454","","","","","","","0","0","1","","0.07394587158","0.6","0.4","0.2","0.8","0.1414351437","0.3005355489","0.07394587158","0.4298378352","","","","","","","","","","","","","","75","K","2","","","43","main_expt",""
"","bandit","123","568511","0.0-85.0-0.0","51166309","wem/bandit_party_1","A4FGOT6ID768H","either","8","642","","","","","","","0","0","1","","0.1192337685","0.6","0.4","0.2","0.8","0.1067646429","0.2456242138","0.1192337685","0.4416915379","","","","","","","","","","","","","","75","K","2","","","44","main_expt",""
"","bandit","124","570318","0.0-86.0-0.0","51166309","wem/bandit_party_1","A4FGOT6ID768H","either","8","296","","","","","","","0","1","0","","0.3915522423","0.6","0.4","0.2","0.8","0.1250796286","0.2839901561","0.1285724119","0.3915522423","","","","","","","","","","","","","","76","L","3","","","45","main_expt",""
"","bandit","125","572446","0.0-87.0-0.0","51166309","wem/bandit_party_1","A4FGOT6ID768H","either","8","616","","","","","","","0","0","1","0.4318427431","","0.6","0.4","0.2","0.8","","","","","0.1927264636","0.2353621531","0.1112684106","0.4318427431","","","","","","","","","","76","L","3","","","46","main_expt",""
"","bandit","126","574472","0.0-88.0-0.0","51166309","wem/bandit_party_1","A4FGOT6ID768H","either","8","517","","","","","","","0","0","1","0.4395998441","","0.6","0.4","0.2","0.8","","","","","0.1804488412","0.2405257196","0.1207340475","0.4395998441","","","","","","","","","","76","L","3","","","47","main_expt",""
"","bandit","127","578079","0.0-89.0-0.0","51166309","wem/bandit_party_1","A4FGOT6ID768H","either","8","2100","","","","","","","0","0","1","0.168268176","","0.6","0.4","0.2","0.8","","","","","0.168268176","0.2629408555","0.1182533935","0.4630443269","","","","","","","","","","72","H","0","img/none_selected.jpg","","48","main_expt",""
"","bandit","128","580052","0.0-90.0-0.0","51166309","wem/bandit_party_1","A4FGOT6ID768H","either","8","462","","","","","","","1","0","0","0.2902453213","","0.6","0.4","0.2","0.8","","","","","0.1466838001","0.2902453213","0.1460801474","0.4794982466","","","","","","","","","","74","J","1","","","49","main_expt",""
"","bandit","129","582692","0.0-91.0-0.0","51166309","wem/bandit_party_1","A4FGOT6ID768H","either","8","1131","","","","","","","0","0","1","0.3033715012","","0.6","0.4","0.2","0.8","","","","","0.1336340117","0.3033715012","0.1765155983","0.4562783041","","","","","","","","","","74","J","1","","","50","main_expt",""
"","bandit","130","584958","0.0-92.0-0.0","51166309","wem/bandit_party_1","A4FGOT6ID768H","either","8","761","","","","","","","0","0","1","","0.1614266163","0.6","0.4","0.2","0.8","0.1067821754","0.3536831403","0.1614266163","0.4515646323","","","","","","","","","","","","","","75","K","2","","","51","main_expt",""
"","bandit","131","587107","0.0-93.0-0.0","51166309","wem/bandit_party_1","A4FGOT6ID768H","either","8","641","","","","","","","0","0","1","0.4344137529","","0.6","0.4","0.2","0.8","","","","","0.07294577227","0.3058792917","0.1938643747","0.4344137529","","","","","","","","","","76","L","3","","","52","main_expt",""
"","bandit","132","589824","0.0-94.0-0.0","51166309","wem/bandit_party_1","A4FGOT6ID768H","either","8","1206","","","","","","","0","0","1","","0.07676454597","0.6","0.4","0.2","0.8","0.07676454597","0.3466820038","0.1721886996","0.4421766306","","","","","","","","","","","","","","72","H","0","img/none_selected.jpg","","53","main_expt",""
"","bandit","133","592007","0.0-95.0-0.0","51166309","wem/bandit_party_1","A4FGOT6ID768H","either","8","673","","","","","","","0","0","1","","0.07707135067","0.6","0.4","0.2","0.8","0.07707135067","0.3159173384","0.1542880765","0.4591875032","","","","","","","","","","","","","","72","H","0","img/none_selected.jpg","","54","main_expt",""
"","bandit","134","594107","0.0-96.0-0.0","51166309","wem/bandit_party_1","A4FGOT6ID768H","either","8","591","","","","","","","0","0","1","0.2155598061","","0.6","0.4","0.2","0.8","","","","","0.08227932488","0.3205246683","0.2155598061","0.4455250987","","","","","","","","","","75","K","2","","","55","main_expt",""
"","bandit","135","596126","0.0-97.0-0.0","51166309","wem/bandit_party_1","A4FGOT6ID768H","either","8","503","","","","","","","0","0","1","","0.199350645","0.6","0.4","0.2","0.8","0.09013031375","0.3067659888","0.199350645","0.4200701886","","","","","","","","","","","","","","75","K","2","","","56","main_expt",""
"","bandit","136","597804","0.0-98.0-0.0","51166309","wem/bandit_party_1","A4FGOT6ID768H","either","8","166","","","","","","","0","1","0","","0.3786279545","0.6","0.4","0.2","0.8","0.106866739","0.3786279545","0.1991981904","0.3635567377","","","","","","","","","","","","","","74","J","1","","","57","main_expt",""
"","bandit","137","599688","0.0-99.0-0.0","51166309","wem/bandit_party_1","A4FGOT6ID768H","either","8","375","","","","","","","0","0","1","0.3796022377","","0.6","0.4","0.2","0.8","","","","","0.0915584437","0.3796022377","0.1307276253","0.3647217687","","","","","","","","","","74","J","1","","","58","main_expt",""
"","bandit","138","602874","0.0-100.0-0.0","51166309","wem/bandit_party_1","A4FGOT6ID768H","either","8","1675","","","","","","","0","1","0","","0.3570845549","0.6","0.4","0.2","0.8","0.1036540812","0.3570845549","0.1540949786","0.3975499765","","","","","","","","","","","","","","74","J","1","","","59","main_expt",""
"","bandit","139","606106","0.0-101.0-0.0","51166309","wem/bandit_party_1","A4FGOT6ID768H","either","8","1720","","","","","","","0","0","1","","0.398525789","0.6","0.4","0.2","0.8","0.07948280662","0.398525789","0.1187181044","0.376383165","","","","","","","","","","","","","","74","J","1","","","60","main_expt",""
"","bandit","140","608237","0.0-102.0-0.0","51166309","wem/bandit_party_1","A4FGOT6ID768H","either","8","621","","","","","","","0","0","1","","0.380986593","0.6","0.4","0.2","0.8","0.0685056185","0.380986593","0.1734870435","0.3384437455","","","","","","","","","","","","","","74","J","1","","","61","main_expt",""
"","bandit","141","610058","0.0-103.0-0.0","51166309","wem/bandit_party_1","A4FGOT6ID768H","either","8","306","","","","","","","0","0","1","","0.3928002855","0.6","0.4","0.2","0.8","0.04196312691","0.3928002855","0.2056999461","0.3086389155","","","","","","","","","","","","","","74","J","1","","","62","main_expt",""
"","bandit","142","611916","0.0-104.0-0.0","51166309","wem/bandit_party_1","A4FGOT6ID768H","either","8","344","","","","","","","0","0","1","0.4097838671","","0.6","0.4","0.2","0.8","","","","","0.06524357318","0.4097838671","0.2421495796","0.3098998428","","","","","","","","","","74","J","1","","","63","main_expt",""
"","bandit","143","613506","0.0-105.0-0.0","51166309","wem/bandit_party_1","A4FGOT6ID768H","either","8","83","","","","","","","0","1","0","","0.3942475769","0.6","0.4","0.2","0.8","0.04599317762","0.3942475769","0.2678986655","0.2859800092","","","","","","","","","","","","","","74","J","1","","","64","main_expt",""
"","bandit","144","615935","0.0-106.0-0.0","51166309","wem/bandit_party_1","A4FGOT6ID768H","either","8","910","","","","","","","0","1","0","","0.3756823908","0.6","0.4","0.2","0.8","0.04738713632","0.3756823908","0.2780805564","0.2780623804","","","","","","","","","","","","","","74","J","1","","","65","main_expt",""
"","bandit","145","618160","0.0-107.0-0.0","51166309","wem/bandit_party_1","A4FGOT6ID768H","either","8","705","","","","","","","1","0","0","0.3780323226","","0.6","0.4","0.2","0.8","","","","","0.02873144913","0.3780323226","0.2923516192","0.2740889186","","","","","","","","","","74","J","1","","","66","main_expt",""
"","bandit","146","620649","0.0-108.0-0.0","51166309","wem/bandit_party_1","A4FGOT6ID768H","either","8","977","","","","","","","0","0","1","","0.382091886","0.6","0.4","0.2","0.8","0.0355516853","0.382091886","0.3481747094","0.3122756929","","","","","","","","","","","","","","74","J","1","","","67","main_expt",""
"","bandit","147","622838","0.0-109.0-0.0","51166309","wem/bandit_party_1","A4FGOT6ID768H","either","8","677","","","","","","","0","1","0","","0.4080562953","0.6","0.4","0.2","0.8","0.04483006882","0.4080562953","0.3540590834","0.3004294993","","","","","","","","","","","","","","74","J","1","","","68","main_expt",""
"","bandit","148","625121","0.0-110.0-0.0","51166309","wem/bandit_party_1","A4FGOT6ID768H","either","8","773","","","","","","","0","0","1","0.419826639","","0.6","0.4","0.2","0.8","","","","","0.04300650393","0.419826639","0.3348318208","0.3312842332","","","","","","","","","","74","J","1","","","69","main_expt",""
"","bandit","149","626982","0.0-111.0-0.0","51166309","wem/bandit_party_1","A4FGOT6ID768H","either","8","348","","","","","","","0","1","0","","0.3889643965","0.6","0.4","0.2","0.8","0.03960880855","0.3889643965","0.3844983113","0.2362018798","","","","","","","","","","","","","","74","J","1","","","70","main_expt",""
"","bandit","150","628816","0.0-112.0-0.0","51166309","wem/bandit_party_1","A4FGOT6ID768H","either","8","328","","","","","","","0","0","1","","0.3492343966","0.6","0.4","0.2","0.8","0.02401392238","0.3492343966","0.3753843975","0.1838323472","","","","","","","","","","","","","","74","J","1","","","71","main_expt",""
"","bandit","151","630329","0.0-113.0-0.0","51166309","wem/bandit_party_1","A4FGOT6ID768H","either","8","1","","","","","","","0","0","1","","0.3502155883","0.6","0.4","0.2","0.8","0.008756159955","0.3502155883","0.3861429343","0.1749810972","","","","","","","","","","","","","","74","J","1","","","72","main_expt",""
"","bandit","152","633844","0.0-114.0-0.0","51166309","wem/bandit_party_1","A4FGOT6ID768H","either","8","2000","","","","","","","1","0","0","0.3568691787","","0.6","0.4","0.2","0.8","","","","","0.006257651783","0.3568691787","0.3978436086","0.1664097112","","","","","","","","","","74","J","1","","","73","main_expt",""
"","bandit","153","636882","0.0-115.0-0.0","51166309","wem/bandit_party_1","A4FGOT6ID768H","either","8","1523","","","","","","","0","0","1","","0.3303653739","0.6","0.4","0.2","0.8","0.004732084297","0.3303653739","0.3847979518","0.2001176207","","","","","","","","","","","","","","74","J","1","","","74","main_expt",""
"","bandit","154","643003","0.0-116.0-0.0","51166309","wem/bandit_party_1","A4FGOT6ID768H","either","8","4612","","","","","","","0","0","1","","0.3353283381","0.6","0.4","0.2","0.8","0.006967558871","0.3353283381","0.3974319157","0.1848717924","","","","","","","","","","","","","","74","J","1","","","75","main_expt",""
"","bandit","155","646250","0.0-117.0-0.0","51166309","wem/bandit_party_1","A4FGOT6ID768H","either","8","1733","","","","","","","0","0","1","","0.3987985884","0.6","0.4","0.2","0.8","0.004525860487","0.3009524994","0.3987985884","0.1510178238","","","","","","","","","","","","","","75","K","2","","","76","main_expt",""
"","bandit","156","648590","0.0-118.0-0.0","51166309","wem/bandit_party_1","A4FGOT6ID768H","either","8","829","","","","","","","0","1","0","","0.4127312768","0.6","0.4","0.2","0.8","0.007245535115","0.3316028908","0.4127312768","0.2089633591","","","","","","","","","","","","","","75","K","2","","","77","main_expt",""
"","bandit","157","650696","0.0-119.0-0.0","51166309","wem/bandit_party_1","A4FGOT6ID768H","either","8","586","","","","","","","0","0","1","","0.4257675477","0.6","0.4","0.2","0.8","0.00483057751","0.3571024926","0.4257675477","0.2285147345","","","","","","","","","","","","","","75","K","2","","","78","main_expt",""
"","bandit","158","652678","0.0-120.0-0.0","51166309","wem/bandit_party_1","A4FGOT6ID768H","either","8","467","","","","","","","0","0","1","0.4331167668","","0.6","0.4","0.2","0.8","","","","","0.005956317848","0.3542776451","0.4331167668","0.2246975601","","","","","","","","","","75","K","2","","","79","main_expt",""
"","bandit","159","655414","0.0-121.0-0.0","51166309","wem/bandit_party_1","A4FGOT6ID768H","either","8","1228","","","","","","","0","0","1","0.1878766281","","0.6","0.4","0.2","0.8","","","","","0.0076590047","0.3201174307","0.4294395537","0.1878766281","","","","","","","","","","76","L","3","","","80","main_expt",""
"","bandit","160","657143","0.0-122.0-0.0","51166309","wem/bandit_party_1","A4FGOT6ID768H","either","8","220","","","","","","","0","0","1","0.2436254364","","0.6","0.4","0.2","0.8","","","","","0.009115568074","0.3503003334","0.4234249918","0.2436254364","","","","","","","","","","76","L","3","","","81","main_expt",""
"","bandit","161","660373","0.0-123.0-0.0","51166309","wem/bandit_party_1","A4FGOT6ID768H","either","8","1722","","","","","","","0","0","1","","0.3509066846","0.6","0.4","0.2","0.8","0.01382977225","0.3509066846","0.3956977209","0.2627531714","","","","","","","","","","","","","","74","J","1","","","82","main_expt",""
"","bandit","162","662436","0.0-124.0-0.0","51166309","wem/bandit_party_1","A4FGOT6ID768H","either","8","554","","","","","","","0","0","1","","0.4248650233","0.6","0.4","0.2","0.8","0.01500629599","0.3951868033","0.4248650233","0.2672212524","","","","","","","","","","","","","","75","K","2","","","83","main_expt",""
"","bandit","163","664606","0.0-125.0-0.0","51166309","wem/bandit_party_1","A4FGOT6ID768H","either","8","658","","","","","","","0","0","1","","0.4196907627","0.6","0.4","0.2","0.8","0.02310127573","0.4131477378","0.4196907627","0.2817484998","","","","","","","","","","","","","","75","K","2","","","84","main_expt",""
"","bandit","164","666747","0.0-126.0-0.0","51166309","wem/bandit_party_1","A4FGOT6ID768H","either","8","632","","","","","","","0","0","1","0.02639065846","","0.6","0.4","0.2","0.8","","","","","0.02639065846","0.3889697292","0.435633498","0.3074775227","","","","","","","","","","72","H","0","img/none_selected.jpg","","85","main_expt",""
"","bandit","165","668972","0.0-127.0-0.0","51166309","wem/bandit_party_1","A4FGOT6ID768H","either","8","716","","","","","","","0","0","1","","0.01746441632","0.6","0.4","0.2","0.8","0.01746441632","0.3885636443","0.4322222521","0.2717847629","","","","","","","","","","","","","","72","H","0","img/none_selected.jpg","","86","main_expt",""
"","bandit","166","671214","0.0-128.0-0.0","51166309","wem/bandit_party_1","A4FGOT6ID768H","either","8","728","","","","","","","0","0","1","","0.4028282504","0.6","0.4","0.2","0.8","0.01256144444","0.4028282504","0.4476119451","0.2183858348","","","","","","","","","","","","","","74","J","1","","","87","main_expt",""
"","bandit","167","673107","0.0-129.0-0.0","51166309","wem/bandit_party_1","A4FGOT6ID768H","either","8","379","","","","","","","0","0","1","0.4306890759","","0.6","0.4","0.2","0.8","","","","","0.01178158386","0.4306890759","0.4073123198","0.2054961256","","","","","","","","","","74","J","1","","","88","main_expt",""
"","bandit","168","675618","0.0-130.0-0.0","51166309","wem/bandit_party_1","A4FGOT6ID768H","either","8","998","","","","","","","0","1","0","","0.4103738654","0.6","0.4","0.2","0.8","0.008722555822","0.4103738654","0.3862301724","0.1452714398","","","","","","","","","","","","","","74","J","1","","","89","main_expt",""
"","bandit","169","677794","0.0-131.0-0.0","51166309","wem/bandit_party_1","A4FGOT6ID768H","either","8","663","","","","","","","1","0","0","0.3980827974","","0.6","0.4","0.2","0.8","","","","","0.008232471735","0.3980827974","0.3596745144","0.1077779513","","","","","","","","","","74","J","1","","","90","main_expt",""
"","bandit","170","679626","0.0-132.0-0.0","51166309","wem/bandit_party_1","A4FGOT6ID768H","either","8","317","","","","","","","0","1","0","","0.4040531024","0.6","0.4","0.2","0.8","0.01249180717","0.4040531024","0.3082854458","0.1308407065","","","","","","","","","","","","","","74","J","1","","","91","main_expt",""
"","bandit","171","681614","0.0-133.0-0.0","51166309","wem/bandit_party_1","A4FGOT6ID768H","either","8","462","","","","","","","0","0","1","0.3462944796","","0.6","0.4","0.2","0.8","","","","","0.01470986316","0.3462944796","0.312225492","0.1652322036","","","","","","","","","","74","J","1","","","92","main_expt",""
"","bandit","172","683464","0.0-134.0-0.0","51166309","wem/bandit_party_1","A4FGOT6ID768H","either","8","332","","","","","","","0","0","1","","0.3411451966","0.6","0.4","0.2","0.8","0.02655281846","0.3411451966","0.3671658277","0.1344678182","","","","","","","","","","","","","","74","J","1","","","93","main_expt",""
"","bandit","173","685327","0.0-135.0-0.0","51166309","wem/bandit_party_1","A4FGOT6ID768H","either","8","340","","","","","","","0","0","1","0.3384154489","","0.6","0.4","0.2","0.8","","","","","0.02575246025","0.3384154489","0.3401731108","0.1301314301","","","","","","","","","","74","J","1","","","94","main_expt",""
"","bandit","174","687846","0.0-136.0-0.0","51166309","wem/bandit_party_1","A4FGOT6ID768H","either","8","1000","","","","","","","0","1","0","","0.3126988266","0.6","0.4","0.2","0.8","0.02262355665","0.3126988266","0.3413923724","0.1746055711","","","","","","","","","","","","","","74","J","1","","","95","main_expt",""
"","bandit","175","689980","0.0-137.0-0.0","51166309","wem/bandit_party_1","A4FGOT6ID768H","either","8","621","","","","","","","0","0","1","","0.3800019137","0.6","0.4","0.2","0.8","0.02047181149","0.3800019137","0.3570420485","0.1994244555","","","","","","","","","","","","","","74","J","1","","","96","main_expt",""
"","bandit","176","692742","0.0-138.0-0.0","51166309","wem/bandit_party_1","A4FGOT6ID768H","either","8","1251","","","","","","","0","0","1","","0.3328121005","0.6","0.4","0.2","0.8","0.0207754381","0.3328121005","0.3435474977","0.1834602947","","","","","","","","","","","","","","74","J","1","","","97","main_expt",""
"","bandit","177","694685","0.0-139.0-0.0","51166309","wem/bandit_party_1","A4FGOT6ID768H","either","8","433","","","","","","","0","0","1","","0.3614714926","0.6","0.4","0.2","0.8","0.02955834597","0.332228596","0.3614714926","0.1719221531","","","","","","","","","","","","","","75","K","2","","","98","main_expt",""
"","bandit","178","696465","0.0-140.0-0.0","51166309","wem/bandit_party_1","A4FGOT6ID768H","either","8","269","","","","","","","0","1","0","","0.3176405447","0.6","0.4","0.2","0.8","0.0383131093","0.2843854285","0.3176405447","0.1183399241","","","","","","","","","","","","","","75","K","2","","","99","main_expt",""
"","bandit","179","698939","0.0-141.0-0.0","51166309","wem/bandit_party_1","A4FGOT6ID768H","either","8","961","","","","","","","0","0","1","0.3586553183","","0.6","0.4","0.2","0.8","","","","","0.03580757471","0.309751149","0.3586553183","0.1558635017","","","","","","","","","","75","K","2","","","100","main_expt",""
"","bandit","180","700923","0.0-142.0-0.0","51166309","wem/bandit_party_1","A4FGOT6ID768H","either","8","467","","","","","","","0","0","1","","0.2951503345","0.6","0.4","0.2","0.8","0.04899620691","0.2993195944","0.2951503345","0.1389665978","","","","","","","","","","","","","","75","K","2","","","101","main_expt",""
"","bandit","181","702875","0.0-143.0-0.0","51166309","wem/bandit_party_1","A4FGOT6ID768H","either","8","439","","","","","","","0","0","1","","0.2998391809","0.6","0.4","0.2","0.8","0.08055650644","0.3551890872","0.2998391809","0.1377203561","","","","","","","","","","","","","","75","K","2","","","102","main_expt",""
"","bandit","182","705618","0.0-144.0-0.0","51166309","wem/bandit_party_1","A4FGOT6ID768H","either","8","1221","","","","","","","1","0","0","0.2791823827","","0.6","0.4","0.2","0.8","","","","","0.1040447627","0.3148404956","0.2791823827","0.1285548106","","","","","","","","","","75","K","2","","","103","main_expt",""
"","bandit","183","708106","0.0-145.0-0.0","51166309","wem/bandit_party_1","A4FGOT6ID768H","either","8","976","","","","","","","0","0","1","","0.3382769334","0.6","0.4","0.2","0.8","0.1143547335","0.3286912191","0.3382769334","0.1555523735","","","","","","","","","","","","","","75","K","2","","","104","main_expt",""
"","bandit","184","710321","0.0-146.0-0.0","51166309","wem/bandit_party_1","A4FGOT6ID768H","either","8","703","","","","","","","0","0","1","","0.3339697125","0.6","0.4","0.2","0.8","0.1487676438","0.298340497","0.3339697125","0.1775592141","","","","","","","","","","","","","","75","K","2","","","105","main_expt",""
"","bandit","185","712225","0.0-147.0-0.0","51166309","wem/bandit_party_1","A4FGOT6ID768H","either","8","395","","","","","","","1","0","0","0.3504464386","","0.6","0.4","0.2","0.8","","","","","0.152088545","0.3504464386","0.3124129253","0.2263451353","","","","","","","","","","74","J","1","","","106","main_expt",""
"","bandit","186","714772","0.0-148.0-0.0","51166309","wem/bandit_party_1","A4FGOT6ID768H","either","8","1038","","","","","","","0","0","1","0.3510410077","","0.6","0.4","0.2","0.8","","","","","0.2406734145","0.3510410077","0.3400683723","0.1679769802","","","","","","","","","","74","J","1","","","107","main_expt",""
"","bandit","187","716409","0.0-149.0-0.0","51166309","wem/bandit_party_1","A4FGOT6ID768H","either","8","128","","","","","","","0","1","0","","0.3282766846","0.6","0.4","0.2","0.8","0.3048040024","0.3282766846","0.3557340834","0.1999870147","","","","","","","","","","","","","","74","J","1","","","108","main_expt",""
"","bandit","188","718563","0.0-150.0-0.0","51166309","wem/bandit_party_1","A4FGOT6ID768H","either","8","645","","","","","","","0","0","1","0.3561186451","","0.6","0.4","0.2","0.8","","","","","0.3418503096","0.3561186451","0.3846418901","0.208992856","","","","","","","","","","74","J","1","","","109","main_expt",""
"","bandit","189","720258","0.0-151.0-0.0","51166309","wem/bandit_party_1","A4FGOT6ID768H","either","8","183","","","","","","","0","0","1","","0.3576445865","0.6","0.4","0.2","0.8","0.3198501315","0.3576445865","0.4057962062","0.1716040471","","","","","","","","","","","","","","74","J","1","","","110","main_expt",""
"","bandit","190","722672","0.0-152.0-0.0","51166309","wem/bandit_party_1","A4FGOT6ID768H","either","8","903","","","","","","","1","0","0","0.3681534847","","0.6","0.4","0.2","0.8","","","","","0.3681534847","0.3377543854","0.3692451483","0.08984071331","","","","","","","","","","72","H","0","img/none_selected.jpg","","111","main_expt",""
"","bandit","191","724619","0.0-153.0-0.0","51166309","wem/bandit_party_1","A4FGOT6ID768H","either","8","439","","","","","","","0","0","1","","0.3757830796","0.6","0.4","0.2","0.8","0.3757830796","0.286234052","0.3577317973","0.1243463141","","","","","","","","","","","","","","72","H","0","img/none_selected.jpg","","112","main_expt",""
"","bandit","192","726502","0.0-154.0-0.0","51166309","wem/bandit_party_1","A4FGOT6ID768H","either","8","369","","","","","","","0","0","1","","0.3838999828","0.6","0.4","0.2","0.8","0.3838999828","0.1932674395","0.3328808086","0.1433440675","","","","","","","","","","","","","","72","H","0","img/none_selected.jpg","","113","main_expt",""
"","bandit","193","728873","0.0-155.0-0.0","51166309","wem/bandit_party_1","A4FGOT6ID768H","either","8","858","","","","","","","0","1","0","","0.3416979579","0.6","0.4","0.2","0.8","0.4157938717","0.2403040534","0.3416979579","0.1510662198","","","","","","","","","","","","","","75","K","2","","","114","main_expt",""
"","bandit","194","732074","0.0-156.0-0.0","51166309","wem/bandit_party_1","A4FGOT6ID768H","either","8","1688","","","","","","","0","0","1","","0.3377137281","0.6","0.4","0.2","0.8","0.4055870595","0.254937398","0.3377137281","0.09845245139","","","","","","","","","","","","","","75","K","2","","","115","main_expt",""
"","bandit","195","734235","0.0-157.0-0.0","51166309","wem/bandit_party_1","A4FGOT6ID768H","either","8","648","","","","","","","0","1","0","","0.3039448029","0.6","0.4","0.2","0.8","0.4161015278","0.2605063941","0.3039448029","0.107393795","","","","","","","","","","","","","","75","K","2","","","116","main_expt",""
"","bandit","196","736672","0.0-158.0-0.0","51166309","wem/bandit_party_1","A4FGOT6ID768H","either","8","921","","","","","","","0","0","1","","0.2974336912","0.6","0.4","0.2","0.8","0.414877819","0.2161328783","0.2974336912","0.07879800556","","","","","","","","","","","","","","75","K","2","","","117","main_expt",""
"","bandit","197","738746","0.0-159.0-0.0","51166309","wem/bandit_party_1","A4FGOT6ID768H","either","8","562","","","","","","","0","0","1","","0.2651867246","0.6","0.4","0.2","0.8","0.3968259953","0.1931197841","0.2651867246","0.08383735875","","","","","","","","","","","","","","75","K","2","","","118","main_expt",""
"","bandit","198","740262","0.0-160.0-0.0","51166309","wem/bandit_party_1","A4FGOT6ID768H","either","8","4","","","","","","","0","0","1","0.1638183597","","0.6","0.4","0.2","0.8","","","","","0.4198241006","0.1638183597","0.3131666206","0.1392474383","","","","","","","","","","74","J","1","","","119","main_expt",""
"","bandit","199","742964","0.0-161.0-0.0","51166309","wem/bandit_party_1","A4FGOT6ID768H","either","8","1186","","","","","","","0","0","1","0.1893282748","","0.6","0.4","0.2","0.8","","","","","0.4286088018","0.1893282748","0.358829095","0.1649404926","","","","","","","","","","74","J","1","","","120","main_expt",""
"","bandit","200","744859","0.0-162.0-0.0","51166309","wem/bandit_party_1","A4FGOT6ID768H","either","8","380","","","","","","","0","0","1","0.1764152442","","0.6","0.4","0.2","0.8","","","","","0.4253829576","0.2290368179","0.3189860171","0.1764152442","","","","","","","","","","76","L","3","","","121","main_expt",""
"","bandit","201","747696","0.0-163.0-0.0","51166309","wem/bandit_party_1","A4FGOT6ID768H","either","8","1322","","","","","","","0","0","1","","0.3011672979","0.6","0.4","0.2","0.8","0.4235175979","0.2445441383","0.3011672979","0.2092397698","","","","","","","","","","","","","","75","K","2","","","122","main_expt",""
"","bandit","202","750930","0.0-164.0-0.0","51166309","wem/bandit_party_1","A4FGOT6ID768H","either","8","1719","","","","","","","1","0","0","0.4182090072","","0.6","0.4","0.2","0.8","","","","","0.4182090072","0.2091075756","0.3037948063","0.1884058447","","","","","","","","","","72","H","0","img/none_selected.jpg","","123","main_expt",""
"","bandit","203","752911","0.0-165.0-0.0","51166309","wem/bandit_party_1","A4FGOT6ID768H","either","8","471","","","","","","","0","0","1","0.4356016004","","0.6","0.4","0.2","0.8","","","","","0.4356016004","0.2216111921","0.2446200253","0.1876417206","","","","","","","","","","72","H","0","img/none_selected.jpg","","124","main_expt",""
"","bandit","204","756780","0.0-166.0-0.0","51166309","wem/bandit_party_1","A4FGOT6ID768H","either","8","2358","","","","","","","0","0","1","","0.2464628806","0.6","0.4","0.2","0.8","0.403953628","0.1622020501","0.2464628806","0.1890564589","","","","","","","","","","","","","","75","K","2","","","125","main_expt",""
"","bandit","205","758613","0.0-167.0-0.0","51166309","wem/bandit_party_1","A4FGOT6ID768H","either","8","319","","","","","","","0","0","1","0.4020675328","","0.6","0.4","0.2","0.8","","","","","0.4020675328","0.173533554","0.281169445","0.1659850756","","","","","","","","","","72","H","0","img/none_selected.jpg","","126","main_expt",""
"","bandit","206","760150","0.0-168.0-0.0","51166309","wem/bandit_party_1","A4FGOT6ID768H","either","8","26","","","","","","","0","0","1","","0.2006343121","0.6","0.4","0.2","0.8","0.338443572","0.189829559","0.290080064","0.2006343121","","","","","","","","","","","","","","76","L","3","","","127","main_expt",""
"","bandit","207","762493","0.0-169.0-0.0","51166309","wem/bandit_party_1","A4FGOT6ID768H","either","8","833","","","","","","","1","0","0","0.1764696366","","0.6","0.4","0.2","0.8","","","","","0.323123489","0.1764696366","0.3280989756","0.2637444583","","","","","","","","","","74","J","1","","","128","main_expt",""
"","bandit","208","765202","0.0-170.0-0.0","51166309","wem/bandit_party_1","A4FGOT6ID768H","either","8","1192","","","","","","","0","0","1","0.172709194","","0.6","0.4","0.2","0.8","","","","","0.3615310162","0.172709194","0.3052704822","0.2783394686","","","","","","","","","","74","J","1","","","129","main_expt",""
"","bandit","209","766997","0.0-171.0-0.0","51166309","wem/bandit_party_1","A4FGOT6ID768H","either","8","283","","","","","","","0","1","0","","0.1407460215","0.6","0.4","0.2","0.8","0.3667448715","0.1407460215","0.314718742","0.2674474002","","","","","","","","","","","","","","74","J","1","","","130","main_expt",""
"","bandit","210","768682","0.0-172.0-0.0","51166309","wem/bandit_party_1","A4FGOT6ID768H","either","8","175","","","","","","","0","0","1","","0.143826562","0.6","0.4","0.2","0.8","0.341745941","0.143826562","0.2492347367","0.2122920843","","","","","","","","","","","","","","74","J","1","","","131","main_expt",""
"","bandit","211","770493","0.0-173.0-0.0","51166309","wem/bandit_party_1","A4FGOT6ID768H","either","8","298","","","","","","","0","0","1","","0.1862992663","0.6","0.4","0.2","0.8","0.2615325727","0.1862992663","0.2495736985","0.1969346152","","","","","","","","","","","","","","74","J","1","","","132","main_expt",""
"","bandit","212","773088","0.0-174.0-0.0","51166309","wem/bandit_party_1","A4FGOT6ID768H","either","8","1081","","","","","","","0","0","1","","0.2487120015","0.6","0.4","0.2","0.8","0.27905624","0.185648564","0.2487120015","0.1390835973","","","","","","","","","","","","","","75","K","2","","","133","main_expt",""
"","bandit","213","775372","0.0-175.0-0.0","51166309","wem/bandit_party_1","A4FGOT6ID768H","either","8","775","","","","","","","0","0","1","0.1437640715","","0.6","0.4","0.2","0.8","","","","","0.2751163123","0.2002276213","0.3239420422","0.1437640715","","","","","","","","","","76","L","3","","","134","main_expt",""
"","bandit","214","777643","0.0-176.0-0.0","51166309","wem/bandit_party_1","A4FGOT6ID768H","either","8","758","","","","","","","0","0","1","","0.2586507773","0.6","0.4","0.2","0.8","0.2586507773","0.2474552851","0.3903525049","0.1175999949","","","","","","","","","","","","","","72","H","0","img/none_selected.jpg","","135","main_expt",""
"","bandit","215","779782","0.0-177.0-0.0","51166309","wem/bandit_party_1","A4FGOT6ID768H","either","8","626","","","","","","","0","1","0","","0.3703049055","0.6","0.4","0.2","0.8","0.2385277364","0.2454982057","0.3703049055","0.1108499649","","","","","","","","","","","","","","75","K","2","","","136","main_expt",""
"","bandit","216","782646","0.0-178.0-0.0","51166309","wem/bandit_party_1","A4FGOT6ID768H","either","8","1348","","","","","","","0","1","0","","0.3657944308","0.6","0.4","0.2","0.8","0.1935782534","0.2708690816","0.3657944308","0.1208727618","","","","","","","","","","","","","","75","K","2","","","137","main_expt",""
"","bandit","217","784650","0.0-179.0-0.0","51166309","wem/bandit_party_1","A4FGOT6ID768H","either","8","476","","","","","","","0","0","1","","0.3452946514","0.6","0.4","0.2","0.8","0.14087624","0.2219039101","0.3452946514","0.1098805161","","","","","","","","","","","","","","75","K","2","","","138","main_expt",""
"","bandit","218","786816","0.0-180.0-0.0","51166309","wem/bandit_party_1","A4FGOT6ID768H","either","8","651","","","","","","","0","0","1","","0.3225052804","0.6","0.4","0.2","0.8","0.1340930794","0.2485571535","0.3225052804","0.1359731218","","","","","","","","","","","","","","75","K","2","","","139","main_expt",""
"","bandit","219","788734","0.0-181.0-0.0","51166309","wem/bandit_party_1","A4FGOT6ID768H","either","8","404","","","","","","","0","0","1","0.2997250911","","0.6","0.4","0.2","0.8","","","","","0.1170750994","0.2605640439","0.2997250911","0.1419248406","","","","","","","","","","75","K","2","","","140","main_expt",""
"","bandit","220","790515","0.0-182.0-0.0","51166309","wem/bandit_party_1","A4FGOT6ID768H","either","8","271","","","","","","","0","0","1","","0.311933389","0.6","0.4","0.2","0.8","0.1316830279","0.2260680923","0.311933389","0.1269577117","","","","","","","","","","","","","","75","K","2","","","141","main_expt",""
"","bandit","221","792150","0.0-183.0-0.0","51166309","wem/bandit_party_1","A4FGOT6ID768H","either","8","126","","","","","","","0","0","1","","0.2354846983","0.6","0.4","0.2","0.8","0.09490366034","0.2354846983","0.3442568425","0.1073819056","","","","","","","","","","","","","","74","J","1","","","142","main_expt",""
"","bandit","222","794143","0.0-184.0-0.0","51166309","wem/bandit_party_1","A4FGOT6ID768H","either","8","480","","","","","","","0","1","0","","0.2089358464","0.6","0.4","0.2","0.8","0.1246024154","0.2089358464","0.3117203045","0.1152767294","","","","","","","","","","","","","","74","J","1","","","143","main_expt",""
"","bandit","223","795960","0.0-185.0-0.0","51166309","wem/bandit_party_1","A4FGOT6ID768H","either","8","300","","","","","","","0","0","1","0.1844607625","","0.6","0.4","0.2","0.8","","","","","0.1179874238","0.1844607625","0.3080771123","0.1317444946","","","","","","","","","","74","J","1","","","144","main_expt",""
"","bandit","224","797803","0.0-186.0-0.0","51166309","wem/bandit_party_1","A4FGOT6ID768H","either","8","332","","","","","","","0","0","1","","0.1940384654","0.6","0.4","0.2","0.8","0.1211842963","0.1940384654","0.3146876691","0.1058600218","","","","","","","","","","","","","","74","J","1","","","145","main_expt",""
"","bandit","225","799338","0.0-187.0-0.0","51166309","wem/bandit_party_1","A4FGOT6ID768H","either","8","24","","","","","","","0","0","1","","0.3526806189","0.6","0.4","0.2","0.8","0.06212451067","0.2532022814","0.3526806189","0.1862633901","","","","","","","","","","","","","","75","K","2","","","146","main_expt",""
"","bandit","226","801389","0.0-188.0-0.0","51166309","wem/bandit_party_1","A4FGOT6ID768H","either","8","539","","","","","","","0","1","0","","0.3859334927","0.6","0.4","0.2","0.8","0.05826033827","0.272856749","0.3859334927","0.1944793183","","","","","","","","","","","","","","75","K","2","","","147","main_expt",""
"","bandit","227","803760","0.0-189.0-0.0","51166309","wem/bandit_party_1","A4FGOT6ID768H","either","8","858","","","","","","","0","0","1","","0.4089873985","0.6","0.4","0.2","0.8","0.04847575149","0.2441255329","0.4089873985","0.1572605535","","","","","","","","","","","","","","75","K","2","","","148","main_expt",""
"","bandit","228","805423","0.0-190.0-0.0","51166309","wem/bandit_party_1","A4FGOT6ID768H","either","8","148","","","","","","","0","0","1","","0.2304797635","0.6","0.4","0.2","0.8","0.07397138717","0.2304797635","0.3317076441","0.1632070519","","","","","","","","","","","","","","74","J","1","","","149","main_expt",""
"","bandit","229","817676","0.0-191.0-0.0","51166309","wem/bandit_party_1","A4FGOT6ID768H","either","8","10743","","","","","","","0","0","1","","0.2514439341","0.6","0.4","0.2","0.8","0.1178437277","0.2645424191","0.2514439341","0.2162169298","","","","","","","","","","","","","","75","K","2","","","150","main_expt",""
"","bandit","230","820115","0.0-192.0-0.0","51166309","wem/bandit_party_1","A4FGOT6ID768H","either","8","921","","","","","","","0","0","1","","0.2919476008","0.6","0.4","0.2","0.8","0.1116740648","0.2919476008","0.2209696772","0.2806681102","","","","","","","","","","","","","","74","J","1","","","151","main_expt",""
"","bandit","231","822245","0.0-193.0-0.0","51166309","wem/bandit_party_1","A4FGOT6ID768H","either","8","618","","","","","","","0","0","1","","0.2004300668","0.6","0.4","0.2","0.8","0.09681320826","0.3004198658","0.2004300668","0.25223767","","","","","","","","","","","","","","75","K","2","","","152","main_expt",""
"","bandit","232","824154","0.0-194.0-0.0","51166309","wem/bandit_party_1","A4FGOT6ID768H","either","8","400","","","","","","","0","0","1","","0.1803159607","0.6","0.4","0.2","0.8","0.1162344283","0.2910243242","0.1803159607","0.2259503681","","","","","","","","","","","","","","75","K","2","","","153","main_expt",""
"","bandit","233","826737","0.0-195.0-0.0","51166309","wem/bandit_party_1","A4FGOT6ID768H","either","8","1072","","","","","","","0","1","0","","0.1793353988","0.6","0.4","0.2","0.8","0.1441765144","0.2858680692","0.1793353988","0.2520515582","","","","","","","","","","","","","","75","K","2","","","154","main_expt",""
"","bandit","234","828923","0.0-196.0-0.0","51166309","wem/bandit_party_1","A4FGOT6ID768H","either","8","671","","","","","","","0","1","0","","0.175125938","0.6","0.4","0.2","0.8","0.1506434262","0.276906037","0.175125938","0.246895917","","","","","","","","","","","","","","75","K","2","","","155","main_expt",""
"","bandit","235","830809","0.0-197.0-0.0","51166309","wem/bandit_party_1","A4FGOT6ID768H","either","8","371","","","","","","","0","0","1","","0.19004546","0.6","0.4","0.2","0.8","0.1691825384","0.3087514371","0.19004546","0.2067462234","","","","","","","","","","","","","","75","K","2","","","156","main_expt",""
"","bandit","236","832653","0.0-198.0-0.0","51166309","wem/bandit_party_1","A4FGOT6ID768H","either","8","330","","","","","","","0","1","0","","0.1538528063","0.6","0.4","0.2","0.8","0.1465267651","0.3400763937","0.1538528063","0.1736677602","","","","","","","","","","","","","","75","K","2","","","157","main_expt",""
"","bandit","237","834671","0.0-199.0-0.0","51166309","wem/bandit_party_1","A4FGOT6ID768H","either","8","507","","","","","","","0","0","1","","0.1624419901","0.6","0.4","0.2","0.8","0.1517260174","0.3388441277","0.1624419901","0.2437422656","","","","","","","","","","","","","","75","K","2","","","158","main_expt",""
"","bandit","238","837495","0.0-200.0-0.0","51166309","wem/bandit_party_1","A4FGOT6ID768H","either","8","1306","","","","","","","0","0","1","","0.1749682205","0.6","0.4","0.2","0.8","0.143579764","0.3496437485","0.1749682205","0.2627628197","","","","","","","","","","","","","","75","K","2","","","159","main_expt",""
"","bandit","239","840543","0.0-201.0-0.0","51166309","wem/bandit_party_1","A4FGOT6ID768H","either","8","1538","","","","","","","0","0","1","0.2227833177","","0.6","0.4","0.2","0.8","","","","","0.1701049762","0.3347491532","0.2227833177","0.2532756584","","","","","","","","","","75","K","2","","","160","main_expt",""
"","bandit","240","843449","0.0-202.0-0.0","51166309","wem/bandit_party_1","A4FGOT6ID768H","either","8","1393","","","","","","","0","0","1","0.3036625801","","0.6","0.4","0.2","0.8","","","","","0.1596038406","0.3036625801","0.1616195486","0.2846030245","","","","","","","","","","74","J","1","","","161","main_expt",""
"","bandit","241","845254","0.0-203.0-0.0","51166309","wem/bandit_party_1","A4FGOT6ID768H","either","8","292","","","","","","","0","1","0","","0.2735804545","0.6","0.4","0.2","0.8","0.1186271452","0.2735804545","0.1440802068","0.2480450928","","","","","","","","","","","","","","74","J","1","","","162","main_expt",""
"","bandit","242","846880","0.0-204.0-0.0","51166309","wem/bandit_party_1","A4FGOT6ID768H","either","8","112","","","","","","","0","0","1","","0.2219233964","0.6","0.4","0.2","0.8","0.1460830151","0.2219233964","0.1349250059","0.3217860246","","","","","","","","","","","","","","74","J","1","","","163","main_expt",""
"","bandit","243","850873","0.0-205.0-0.0","51166309","wem/bandit_party_1","A4FGOT6ID768H","either","8","2479","","","","","","","0","0","1","0.2489701673","","0.6","0.4","0.2","0.8","","","","","0.1924179555","0.2489701673","0.1482528248","0.3528623486","","","","","","","","","","74","J","1","","","164","main_expt",""
"","bandit","244","852611","0.0-206.0-0.0","51166309","wem/bandit_party_1","A4FGOT6ID768H","either","8","224","","","","","","","0","0","1","","0.1444116863","0.6","0.4","0.2","0.8","0.1909643941","0.2424219606","0.1444116863","0.3113737792","","","","","","","","","","","","","","75","K","2","","","165","main_expt",""
"","bandit","245","854975","0.0-207.0-0.0","51166309","wem/bandit_party_1","A4FGOT6ID768H","either","8","844","","","","","","","0","1","0","","0.1899742571","0.6","0.4","0.2","0.8","0.1917506842","0.1899742571","0.1621449425","0.2820045276","","","","","","","","","","","","","","74","J","1","","","166","main_expt",""
"","bandit","246","856770","0.0-208.0-0.0","51166309","wem/bandit_party_1","A4FGOT6ID768H","either","8","282","","","","","","","0","0","1","","0.2298880826","0.6","0.4","0.2","0.8","0.2238056512","0.2298880826","0.1695256229","0.2539690707","","","","","","","","","","","","","","74","J","1","","","167","main_expt",""
"","bandit","247","859085","0.0-209.0-0.0","51166309","wem/bandit_party_1","A4FGOT6ID768H","either","8","805","","","","","","","1","0","0","0.241220494","","0.6","0.4","0.2","0.8","","","","","0.2132240521","0.241220494","0.1712445676","0.2177565821","","","","","","","","","","74","J","1","","","168","main_expt",""
"","bandit","248","861247","0.0-210.0-0.0","51166309","wem/bandit_party_1","A4FGOT6ID768H","either","8","653","","","","","","","0","0","1","","0.2113351254","0.6","0.4","0.2","0.8","0.1363713625","0.2113351254","0.191079104","0.183214586","","","","","","","","","","","","","","74","J","1","","","169","main_expt",""
"","bandit","249","863209","0.0-211.0-0.0","51166309","wem/bandit_party_1","A4FGOT6ID768H","either","8","439","","","","","","","0","0","1","0.2224744884","","0.6","0.4","0.2","0.8","","","","","0.2007690262","0.2224744884","0.2227666825","0.1757282231","","","","","","","","","","74","J","1","","","170","main_expt",""
"","bandit","250","864721","0.0-212.0-0.0","51166309","wem/bandit_party_1","A4FGOT6ID768H","either","8","0","","","","","","","1","0","0","0.2719914804","","0.6","0.4","0.2","0.8","","","","","0.1238998316","0.262177911","0.2719914804","0.1679331046","","","","","","","","","","75","K","2","","","171","main_expt",""
"","bandit","251","866406","0.0-213.0-0.0","51166309","wem/bandit_party_1","A4FGOT6ID768H","either","8","172","","","","","","","0","1","0","","0.2330128459","0.6","0.4","0.2","0.8","0.09746419185","0.2822992514","0.2330128459","0.14560319","","","","","","","","","","","","","","75","K","2","","","172","main_expt",""
"","bandit","252","868381","0.0-214.0-0.0","51166309","wem/bandit_party_1","A4FGOT6ID768H","either","8","466","","","","","","","0","0","1","","0.2840251313","0.6","0.4","0.2","0.8","0.1018164217","0.2545762091","0.2840251313","0.1341549344","","","","","","","","","","","","","","75","K","2","","","173","main_expt",""
"","bandit","253","870285","0.0-215.0-0.0","51166309","wem/bandit_party_1","A4FGOT6ID768H","either","8","394","","","","","","","0","0","1","","0.2739042306","0.6","0.4","0.2","0.8","0.1401689619","0.2838184637","0.2739042306","0.1471305278","","","","","","","","","","","","","","75","K","2","","","174","main_expt",""
"","bandit","254","874613","0.0-216.0-0.0","51166309","wem/bandit_party_1","A4FGOT6ID768H","either","8","2810","","","","","","","0","0","1","","0.3444735506","0.6","0.4","0.2","0.8","0.1697524679","0.3002790513","0.3444735506","0.173963405","","","","","","","","","","","","","","75","K","2","","","175","main_expt",""
"","bandit","255","877227","0.0-217.0-0.0","51166309","wem/bandit_party_1","A4FGOT6ID768H","either","8","1103","","","","","","","0","0","1","","0.3223017316","0.6","0.4","0.2","0.8","0.1896898672","0.3771690292","0.3223017316","0.1821857965","","","","","","","","","","","","","","75","K","2","","","176","main_expt",""
"","bandit","256","880607","0.0-218.0-0.0","51166309","wem/bandit_party_1","A4FGOT6ID768H","either","8","1864","","","","","","","0","0","1","","0.2964924158","0.6","0.4","0.2","0.8","0.2441254625","0.4047809956","0.2964924158","0.1444884472","","","","","","","","","","","","","","75","K","2","","","177","main_expt",""
"","bandit","257","882266","0.0-219.0-0.0","51166309","wem/bandit_party_1","A4FGOT6ID768H","either","8","148","","","","","","","0","0","1","","0.2780576925","0.6","0.4","0.2","0.8","0.2427722412","0.4344960837","0.2780576925","0.1207783293","","","","","","","","","","","","","","75","K","2","","","178","main_expt",""
"","bandit","258","888309","0.0-220.0-0.0","51166309","wem/bandit_party_1","A4FGOT6ID768H","either","8","4521","","","","","","","1","0","0","0.2859751729","","0.6","0.4","0.2","0.8","","","","","0.2284650367","0.4287912686","0.2859751729","0.111585665","","","","","","","","","","75","K","2","","","179","main_expt",""
"","bandit","259","890152","0.0-221.0-0.0","51166309","wem/bandit_party_1","A4FGOT6ID768H","either","8","331","","","","","","","0","1","0","","0.283533164","0.6","0.4","0.2","0.8","0.2694081366","0.4294180747","0.283533164","0.06891525065","","","","","","","","","","","","","","75","K","2","","","180","main_expt",""
"","bandit","260","891967","0.0-222.0-0.0","51166309","wem/bandit_party_1","A4FGOT6ID768H","either","8","301","","","","","","","0","0","1","","0.2430023428","0.6","0.4","0.2","0.8","0.2471628034","0.3887332701","0.2430023428","0.07407739619","","","","","","","","","","","","","","75","K","2","","","181","main_expt",""
"","bandit","261","893866","0.0-223.0-0.0","51166309","wem/bandit_party_1","A4FGOT6ID768H","either","8","391","","","","","","","0","0","1","","0.223254837","0.6","0.4","0.2","0.8","0.275372354","0.3910635387","0.223254837","0.07501704201","","","","","","","","","","","","","","75","K","2","","","182","main_expt",""
"","bandit","262","896633","0.0-224.0-0.0","51166309","wem/bandit_party_1","A4FGOT6ID768H","either","8","1256","","","","","","","0","0","1","","0.2274286797","0.6","0.4","0.2","0.8","0.2378950907","0.3957792538","0.2274286797","0.09354103142","","","","","","","","","","","","","","75","K","2","","","183","main_expt",""
"","bandit","263","900000","0.0-225.0-0.0","51166309","wem/bandit_party_1","A4FGOT6ID768H","either","8","1851","","","","","","","0","0","1","0.3777829694","","0.6","0.4","0.2","0.8","","","","","0.2611999536","0.3777829694","0.2485964068","0.06673830493","","","","","","","","","","74","J","1","","","184","main_expt",""
"","bandit","264","902347","0.0-226.0-0.0","51166309","wem/bandit_party_1","A4FGOT6ID768H","either","8","833","","","","","","","0","0","1","0.2799245071","","0.6","0.4","0.2","0.8","","","","","0.2799245071","0.4130939835","0.2080173303","0.08617836821","","","","","","","","","","72","H","0","img/none_selected.jpg","","185","main_expt",""
"","bandit","265","904568","0.0-227.0-0.0","51166309","wem/bandit_party_1","A4FGOT6ID768H","either","8","707","","","","","","","0","0","1","0.05054014018","","0.6","0.4","0.2","0.8","","","","","0.2275386122","0.376930599","0.2538883687","0.05054014018","","","","","","","","","","76","L","3","","","186","main_expt",""
"","bandit","266","906228","0.0-228.0-0.0","51166309","wem/bandit_party_1","A4FGOT6ID768H","either","8","148","","","","","","","0","1","0","","0.2267652077","0.6","0.4","0.2","0.8","0.2558518805","0.3934592684","0.2267652077","0.1101456656","","","","","","","","","","","","","","75","K","2","","","187","main_expt",""
"","bandit","267","908211","0.0-229.0-0.0","51166309","wem/bandit_party_1","A4FGOT6ID768H","either","8","475","","","","","","","0","1","0","","0.2583789709","0.6","0.4","0.2","0.8","0.2757393749","0.4086060551","0.2583789709","0.1076418148","","","","","","","","","","","","","","75","K","2","","","188","main_expt",""
"","bandit","268","910238","0.0-230.0-0.0","51166309","wem/bandit_party_1","A4FGOT6ID768H","either","8","518","","","","","","","0","1","0","","0.2329768584","0.6","0.4","0.2","0.8","0.3326758055","0.447145564","0.2329768584","0.1230456027","","","","","","","","","","","","","","75","K","2","","","189","main_expt",""
"","bandit","269","912210","0.0-231.0-0.0","51166309","wem/bandit_party_1","A4FGOT6ID768H","either","8","460","","","","","","","0","0","1","","0.2002510669","0.6","0.4","0.2","0.8","0.332927569","0.386091063","0.2002510669","0.1872873117","","","","","","","","","","","","","","75","K","2","","","190","main_expt",""
"","bandit","270","914117","0.0-232.0-0.0","51166309","wem/bandit_party_1","A4FGOT6ID768H","either","8","397","","","","","","","0","0","1","","0.2182600554","0.6","0.4","0.2","0.8","0.3859199101","0.4221145333","0.2182600554","0.1413073252","","","","","","","","","","","","","","75","K","2","","","191","main_expt",""
"","bandit","271","915956","0.0-233.0-0.0","51166309","wem/bandit_party_1","A4FGOT6ID768H","either","8","324","","","","","","","0","1","0","","0.2681613901","0.6","0.4","0.2","0.8","0.392668484","0.3913199708","0.2681613901","0.1868627967","","","","","","","","","","","","","","75","K","2","","","192","main_expt",""
"","bandit","272","917867","0.0-234.0-0.0","51166309","wem/bandit_party_1","A4FGOT6ID768H","either","8","396","","","","","","","0","0","1","0.3035027483","","0.6","0.4","0.2","0.8","","","","","0.3789843676","0.4013624592","0.3035027483","0.2312719224","","","","","","","","","","75","K","2","","","193","main_expt",""
"","bandit","273","922665","0.0-235.0-0.0","51166309","wem/bandit_party_1","A4FGOT6ID768H","either","8","3288","","","","","","","0","1","0","","0.275531754","0.6","0.4","0.2","0.8","0.3689216281","0.3668237699","0.275531754","0.2585201677","","","","","","","","","","","","","","75","K","2","","","194","main_expt",""
"","bandit","274","924564","0.0-236.0-0.0","51166309","wem/bandit_party_1","A4FGOT6ID768H","either","8","387","","","","","","","0","1","0","","0.2716401532","0.6","0.4","0.2","0.8","0.4136905162","0.3856266791","0.2716401532","0.2786104129","","","","","","","","","","","","","","75","K","2","","","195","main_expt",""
"","bandit","275","932913","0.0-237.0-0.0","51166309","wem/bandit_party_1","A4FGOT6ID768H","either","8","6841","","","","","","","0","1","0","","0.2814611543","0.6","0.4","0.2","0.8","0.4258575101","0.3702439493","0.2814611543","0.2407834285","","","","","","","","","","","","","","75","K","2","","","196","main_expt",""
"","bandit","276","935007","0.0-238.0-0.0","51166309","wem/bandit_party_1","A4FGOT6ID768H","either","8","582","","","","","","","0","0","1","0.2588010394","","0.6","0.4","0.2","0.8","","","","","0.3976178043","0.3665926528","0.2588010394","0.2550568011","","","","","","","","","","75","K","2","","","197","main_expt",""
"","bandit","277","937111","0.0-239.0-0.0","51166309","wem/bandit_party_1","A4FGOT6ID768H","either","8","587","","","","","","","0","1","0","","0.3094610495","0.6","0.4","0.2","0.8","0.3802378075","0.3432124584","0.3094610495","0.3094863904","","","","","","","","","","","","","","75","K","2","","","198","main_expt",""
"","bandit","278","940859","0.0-240.0-0.0","51166309","wem/bandit_party_1","A4FGOT6ID768H","either","8","2235","","","","","","","0","0","1","","0.3139278769","0.6","0.4","0.2","0.8","0.3926800246","0.4096574544","0.3139278769","0.3012985694","","","","","","","","","","","","","","75","K","2","","","199","main_expt",""
"","bandit","279","943019","0.0-241.0-0.0","51166309","wem/bandit_party_1","A4FGOT6ID768H","either","8","644","","","","","","","0","1","0","","0.3459706187","0.6","0.4","0.2","0.8","0.3814844917","0.3799023259","0.3459706187","0.3149132519","","","","","","","","","","","","","","75","K","2","","","200","main_expt",""
"","bandit","280","946364","0.0-242.0-0.0","51166309","wem/bandit_party_1","A4FGOT6ID768H","either","8","1837","","","","","","","0","0","1","","0.3038365479","0.6","0.4","0.2","0.8","0.3831630738","0.3513783521","0.3038365479","0.3236307962","","","","","","","","","","","","","","75","K","2","","","201","main_expt",""
"","bandit","281","948180","0.0-243.0-0.0","51166309","wem/bandit_party_1","A4FGOT6ID768H","either","8","304","","","","","","","0","1","0","","0.2964599608","0.6","0.4","0.2","0.8","0.3957430938","0.3439351057","0.2964599608","0.3163717903","","","","","","","","","","","","","","75","K","2","","","202","main_expt",""
"","bandit","282","951830","0.0-244.0-0.0","51166309","wem/bandit_party_1","A4FGOT6ID768H","either","8","2136","","","","","","","1","0","0","0.280336616","","0.6","0.4","0.2","0.8","","","","","0.4175506619","0.2615327891","0.280336616","0.3165936227","","","","","","","","","","75","K","2","","","203","main_expt",""
"","bandit","283","953693","0.0-245.0-0.0","51166309","wem/bandit_party_1","A4FGOT6ID768H","either","8","347","","","","","","","0","0","1","","0.262900641","0.6","0.4","0.2","0.8","0.4356800279","0.2211517471","0.262900641","0.3166231072","","","","","","","","","","","","","","75","K","2","","","204","main_expt",""
"","bandit","284","955476","0.0-246.0-0.0","51166309","wem/bandit_party_1","A4FGOT6ID768H","either","8","272","","","","","","","0","0","1","","0.3403150927","0.6","0.4","0.2","0.8","0.4342993254","0.1955747294","0.3403150927","0.2983153058","","","","","","","","","","","","","","75","K","2","","","205","main_expt",""
"","bandit","285","957315","0.0-247.0-0.0","51166309","wem/bandit_party_1","A4FGOT6ID768H","either","8","312","","","","","","","0","1","0","","0.3407188883","0.6","0.4","0.2","0.8","0.4515967499","0.3137251184","0.3407188883","0.255573156","","","","","","","","","","","","","","75","K","2","","","206","main_expt",""
"","bandit","286","959034","0.0-248.0-0.0","51166309","wem/bandit_party_1","A4FGOT6ID768H","either","8","210","","","","","","","0","0","1","","0.2955601217","0.6","0.4","0.2","0.8","0.4559700358","0.2982459604","0.2955601217","0.2816724171","","","","","","","","","","","","","","75","K","2","","","207","main_expt",""
"","bandit","287","961736","0.0-249.0-0.0","51166309","wem/bandit_party_1","A4FGOT6ID768H","either","8","1193","","","","","","","0","0","1","","0.2832193826","0.6","0.4","0.2","0.8","0.4711787588","0.2359404152","0.2832193826","0.2462622089","","","","","","","","","","","","","","75","K","2","","","208","main_expt",""
"","bandit","288","963585","0.0-250.0-0.0","51166309","wem/bandit_party_1","A4FGOT6ID768H","either","8","338","","","","","","","0","0","1","","0.25637755","0.6","0.4","0.2","0.8","0.4859779177","0.2396635106","0.25637755","0.2608633631","","","","","","","","","","","","","","75","K","2","","","209","main_expt",""
"","bandit","289","965324","0.0-251.0-0.0","51166309","wem/bandit_party_1","A4FGOT6ID768H","either","8","232","","","","","","","0","1","0","","0.2500912527","0.6","0.4","0.2","0.8","0.4798195452","0.2320506775","0.2500912527","0.2649708152","","","","","","","","","","","","","","75","K","2","","","210","main_expt",""
"","bandit","290","967800","0.0-252.0-0.0","51166309","wem/bandit_party_1","A4FGOT6ID768H","either","8","968","","","","","","","0","1","0","","0.2481129288","0.6","0.4","0.2","0.8","0.4754072522","0.1894847828","0.2481129288","0.2658594566","","","","","","","","","","","","","","75","K","2","","","211","main_expt",""
"","bandit","291","969816","0.0-253.0-0.0","51166309","wem/bandit_party_1","A4FGOT6ID768H","either","8","503","","","","","","","0","0","1","","0.3192168596","0.6","0.4","0.2","0.8","0.4780703898","0.2330804604","0.3192168596","0.2648449814","","","","","","","","","","","","","","75","K","2","","","212","main_expt",""
"","bandit","292","972002","0.0-254.0-0.0","51166309","wem/bandit_party_1","A4FGOT6ID768H","either","8","674","","","","","","","0","0","1","0.2361953268","","0.6","0.4","0.2","0.8","","","","","0.4883488692","0.2484053244","0.2361953268","0.286492297","","","","","","","","","","75","K","2","","","213","main_expt",""
"","bandit","293","979368","0.0-255.0-0.0","51166309","wem/bandit_party_1","A4FGOT6ID768H","either","8","5853","","","","","","","0","1","0","","0.2308921763","0.6","0.4","0.2","0.8","0.4872562331","0.2182548364","0.2308921763","0.2540339129","","","","","","","","","","","","","","75","K","2","","","214","main_expt",""
"","bandit","294","981242","0.0-256.0-0.0","51166309","wem/bandit_party_1","A4FGOT6ID768H","either","8","363","","","","","","","0","0","1","","0.2161033537","0.6","0.4","0.2","0.8","0.4749609167","0.1824073789","0.2161033537","0.254651127","","","","","","","","","","","","","","75","K","2","","","215","main_expt",""
"","bandit","295","983089","0.0-257.0-0.0","51166309","wem/bandit_party_1","A4FGOT6ID768H","either","8","336","","","","","","","0","0","1","","0.1896756427","0.6","0.4","0.2","0.8","0.4798413464","0.1923730387","0.1896756427","0.3140517816","","","","","","","","","","","","","","75","K","2","","","216","main_expt",""
"","bandit","296","985257","0.0-258.0-0.0","51166309","wem/bandit_party_1","A4FGOT6ID768H","either","8","655","","","","","","","0","0","1","","0.1724286307","0.6","0.4","0.2","0.8","0.4865144435","0.2266612446","0.1724286307","0.3338676317","","","","","","","","","","","","","","75","K","2","","","217","main_expt",""
"","bandit","297","988259","0.0-259.0-0.0","51166309","wem/bandit_party_1","A4FGOT6ID768H","either","8","1494","","","","","","","0","1","0","","0.1702705737","0.6","0.4","0.2","0.8","0.4789145001","0.1702705737","0.161168334","0.3397001125","","","","","","","","","","","","","","74","J","1","","","218","main_expt",""
"","bandit","298","990260","0.0-260.0-0.0","51166309","wem/bandit_party_1","A4FGOT6ID768H","either","8","483","","","","","","","0","0","1","","0.1159766116","0.6","0.4","0.2","0.8","0.4834748692","0.1159766116","0.2021763003","0.2982528089","","","","","","","","","","","","","","74","J","1","","","219","main_expt",""
"","bandit","299","992103","0.0-261.0-0.0","51166309","wem/bandit_party_1","A4FGOT6ID768H","either","8","332","","","","","","","0","0","1","","0.09529473055","0.6","0.4","0.2","0.8","0.4722371777","0.09529473055","0.2142164272","0.2770934022","","","","","","","","","","","","","","74","J","1","","","220","main_expt",""
"","bandit","300","994164","0.0-262.0-0.0","51166309","wem/bandit_party_1","A4FGOT6ID768H","either","8","550","","","","","","","0","0","1","","0.189068297","0.6","0.4","0.2","0.8","0.4654689219","0.09060922323","0.189068297","0.2696770889","","","","","","","","","","","","","","75","K","2","","","221","main_expt",""
"","bandit","301","996043","0.0-263.0-0.0","51166309","wem/bandit_party_1","A4FGOT6ID768H","either","8","368","","","","","","","0","0","1","0.2120997892","","0.6","0.4","0.2","0.8","","","","","0.4533789701","0.1250772464","0.2120997892","0.3103502417","","","","","","","","","","75","K","2","","","222","main_expt",""
"","bandit","302","997980","0.0-264.0-0.0","51166309","wem/bandit_party_1","A4FGOT6ID768H","either","8","419","","","","","","","0","0","1","","0.1937664477","0.6","0.4","0.2","0.8","0.4473019993","0.1177235221","0.1937664477","0.3477728299","","","","","","","","","","","","","","75","K","2","","","223","main_expt",""
"","bandit","303","1000232","0.0-265.0-0.0","51166309","wem/bandit_party_1","A4FGOT6ID768H","either","8","737","","","","","","","0","0","1","0.2195846313","","0.6","0.4","0.2","0.8","","","","","0.4651086175","0.1589673504","0.2195846313","0.3230244909","","","","","","","","","","75","K","2","","","224","main_expt",""
"","bandit","304","1002531","0.0-266.0-0.0","51166309","wem/bandit_party_1","A4FGOT6ID768H","either","8","785","","","","","","","0","0","1","0.3641913847","","0.6","0.4","0.2","0.8","","","","","0.4704934375","0.1582937281","0.1973587738","0.3641913847","","","","","","","","","","76","L","3","","","225","main_expt",""
"","bandit","305","1005278","0.0-267.0-0.0","51166309","wem/bandit_party_1","A4FGOT6ID768H","either","8","1224","","","","","","","0","0","1","0.2029059012","","0.6","0.4","0.2","0.8","","","","","0.4545632724","0.1585786296","0.2029059012","0.3211822138","","","","","","","","","","75","K","2","","","226","main_expt",""
"","bandit","306","1007646","0.0-268.0-0.0","51166309","wem/bandit_party_1","A4FGOT6ID768H","either","8","855","","","","","","","0","0","1","","0.4313330006","0.6","0.4","0.2","0.8","0.4313330006","0.1614007709","0.1677618241","0.3318596792","","","","","","","","","","","","","","72","H","0","img/none_selected.jpg","","227","main_expt",""
"","bandit","307","1010052","0.0-269.0-0.0","51166309","wem/bandit_party_1","A4FGOT6ID768H","either","8","891","","","","","","","0","0","1","","0.2079318551","0.6","0.4","0.2","0.8","0.4253897179","0.1160982884","0.2079318551","0.3715738924","","","","","","","","","","","","","","75","K","2","","","228","main_expt",""
"","bandit","308","1011983","0.0-270.0-0.0","51166309","wem/bandit_party_1","A4FGOT6ID768H","either","8","415","","","","","","","0","0","1","","0.1860779256","0.6","0.4","0.2","0.8","0.4416009531","0.1327168588","0.1860779256","0.3571583743","","","","","","","","","","","","","","75","K","2","","","229","main_expt",""
"","bandit","309","1015354","0.0-271.0-0.0","51166309","wem/bandit_party_1","A4FGOT6ID768H","either","8","1857","","","","","","","0","0","1","","0.1294985144","0.6","0.4","0.2","0.8","0.4612445757","0.1751239199","0.1294985144","0.3455313741","","","","","","","","","","","","","","75","K","2","","","230","main_expt",""
"","bandit","310","1017218","0.0-272.0-0.0","51166309","wem/bandit_party_1","A4FGOT6ID768H","either","8","356","","","","","","","0","0","1","0.1424139305","","0.6","0.4","0.2","0.8","","","","","0.4455927364","0.2080149414","0.1424139305","0.3114256563","","","","","","","","","","75","K","2","","","231","main_expt",""
"","bandit","311","1019078","0.0-273.0-0.0","51166309","wem/bandit_party_1","A4FGOT6ID768H","either","8","348","","","","","","","0","0","1","","0.1777617008","0.6","0.4","0.2","0.8","0.4449483857","0.2305008548","0.1777617008","0.3127001645","","","","","","","","","","","","","","75","K","2","","","232","main_expt",""
"","bandit","312","1021031","0.0-274.0-0.0","51166309","wem/bandit_party_1","A4FGOT6ID768H","either","8","437","","","","","","","0","0","1","","0.1408291819","0.6","0.4","0.2","0.8","0.4570404202","0.2331895239","0.1408291819","0.2953609795","","","","","","","","","","","","","","75","K","2","","","233","main_expt",""
"","bandit","313","1022674","0.0-275.0-0.0","51166309","wem/bandit_party_1","A4FGOT6ID768H","either","8","132","","","","","","","1","0","0","0.09563300426","","0.6","0.4","0.2","0.8","","","","","0.4785018613","0.2007149185","0.09563300426","0.2743769666","","","","","","","","","","75","K","2","","","234","main_expt",""
"","bandit","314","1024582","0.0-276.0-0.0","51166309","wem/bandit_party_1","A4FGOT6ID768H","either","8","387","","","","","","","0","0","1","","0.06508254785","0.6","0.4","0.2","0.8","0.4708517218","0.1428876463","0.06508254785","0.2842570603","","","","","","","","","","","","","","75","K","2","","","235","main_expt",""
"","bandit","315","1027696","0.0-277.0-0.0","51166309","wem/bandit_party_1","A4FGOT6ID768H","either","8","1604","","","","","","","0","0","1","0.05272484418","","0.6","0.4","0.2","0.8","","","","","0.4721911582","0.1327756685","0.05272484418","0.3536106974","","","","","","","","","","75","K","2","","","236","main_expt",""
"","bandit","316","1032890","0.0-278.0-0.0","51166309","wem/bandit_party_1","A4FGOT6ID768H","either","8","3675","","","","","","","0","0","1","","0.05000735717","0.6","0.4","0.2","0.8","0.4567984566","0.1969646424","0.05000735717","0.3777879982","","","","","","","","","","","","","","75","K","2","","","237","main_expt",""
"","bandit","317","1036504","0.0-279.0-0.0","51166309","wem/bandit_party_1","A4FGOT6ID768H","either","8","2103","","","","","","","0","0","1","","0.03409798278","0.6","0.4","0.2","0.8","0.4601910044","0.2040955009","0.03409798278","0.3819628943","","","","","","","","","","","","","","75","K","2","","","238","main_expt",""
"","bandit","318","1038438","0.0-280.0-0.0","51166309","wem/bandit_party_1","A4FGOT6ID768H","either","8","420","","","","","","","0","0","1","","0.03555143528","0.6","0.4","0.2","0.8","0.4663275819","0.1885012088","0.03555143528","0.3590612953","","","","","","","","","","","","","","75","K","2","","","239","main_expt",""
