"consent","trial_type","trial_index","time_elapsed","internal_node_id","subjID","study","MID","cond","drift","rt","responses","button_pressed","key_press","like","value","connected","gems","bombs","no_reward","GemPrChosen","BombPrChosen","GainOverPainPr_0","GainOverPainPr_1","GainOverPainPr_2","GainOverPainPr_3","LosePr_0","LosePr_1","LosePr_2","LosePr_3","WinPr_0","WinPr_1","WinPr_2","WinPr_3","Q0","Q1","Q2","gender","age","ethnicity","label","expt_phase","target","respCharCode","respKey","respChoiceNum","respChoice","practice","trial_counter","trial_label","Q0_index"
"GDM/GDM_behavioral_consent_30min_online.html","consent","0","7388","0.0-0.0","52129727","wem/bandit_party_1","A2XFO0X6RCS98M","either","8","","","","","","","","","","","","","","","","","","","","","","","","","","","","","","","","","","","","","","","","",""
"","survey-text","1","11307","0.0-1.0","52129727","wem/bandit_party_1","A2XFO0X6RCS98M","either","8","2914","{""Q0"":""A2XFO0X6RCS98M""}","","","","","","","","","","","","","","","","","","","","","","","","","","","","","","","","","","","","","","",""
"","button-response","2","15357","0.0-2.0","52129727","wem/bandit_party_1","A2XFO0X6RCS98M","either","8","3047","","1","","","","","","","","","","","","","","","","","","","","","","","","","","","","","","","","","","","","","",""
"","text-replacement","3","31182","0.0-3.0","52129727","wem/bandit_party_1","A2XFO0X6RCS98M","either","8","14823","","","32","","","","","","","","","","","","","","","","","","","","","","","","","","","","","","","","","","","","",""
"","text-replacement","4","36955","0.0-4.0","52129727","wem/bandit_party_1","A2XFO0X6RCS98M","either","8","5771","","","32","","","","","","","","","","","","","","","","","","","","","","","","","","","","","","","","","","","","",""
"","identification","5","45649","0.0-6.0-0.0","52129727","wem/bandit_party_1","A2XFO0X6RCS98M","either","8","8687","","","","1","1","0","","","","","","","","","","","","","","","","","","","","","","","","pre","identification_pre","the Republican party","","","","","","","",""
"","identification","6","49400","0.0-6.0-1.0","52129727","wem/bandit_party_1","A2XFO0X6RCS98M","either","8","2744","","","","3","3","3","","","","","","","","","","","","","","","","","","","","","","","","pre","identification_pre","the Democratic Party","","","","","","","",""
"","text-replacement","7","56309","0.0-7.0","52129727","wem/bandit_party_1","A2XFO0X6RCS98M","either","8","5906","","","32","","","","","","","","","","","","","","","","","","","","","","","","","","","","","","","","","","","","",""
"","text-replacement","8","59545","0.0-8.0","52129727","wem/bandit_party_1","A2XFO0X6RCS98M","either","8","3235","","","32","","","","","","","","","","","","","","","","","","","","","","","","","","","","","","","","","","","","",""
"","text-replacement","9","66173","0.0-9.0","52129727","wem/bandit_party_1","A2XFO0X6RCS98M","either","8","6627","","","32","","","","","","","","","","","","","","","","","","","","","","","","","","","","","","","","","","","","",""
"","text-replacement","10","68357","0.0-10.0","52129727","wem/bandit_party_1","A2XFO0X6RCS98M","either","8","2183","","","32","","","","","","","","","","","","","","","","","","","","","","","","","","","","","","","","","","","","",""
"","text-replacement","11","72545","0.0-11.0","52129727","wem/bandit_party_1","A2XFO0X6RCS98M","either","8","4187","","","32","","","","","","","","","","","","","","","","","","","","","","","","","","","","","","","","","","","","",""
"","bandit","12","75155","0.0-12.0-0.0","52129727","wem/bandit_party_1","A2XFO0X6RCS98M","either","8","1106","","","","","","","0","0","1","0","0","","","","","0","","","","0","","","","","","","","","","","","","74","J","0","img/none_selected_demo.jpg","true","0","",""
"","bandit","13","77803","0.0-13.0-0.0","52129727","wem/bandit_party_1","A2XFO0X6RCS98M","either","8","1145","","","","","","","0","0","1","0","0","","","","","0","","","","0","","","","","","","","","","","","","75","K","0","img/none_selected_demo.jpg","true","0","",""
"","text-replacement","14","81341","0.0-14.0","52129727","wem/bandit_party_1","A2XFO0X6RCS98M","either","8","3537","","","32","","","","","","","","","","","","","","","","","","","","","","","","","","","","","","","","","","","","",""
"","text-replacement","15","85219","0.0-15.0","52129727","wem/bandit_party_1","A2XFO0X6RCS98M","either","8","3877","","","32","","","","","","","","","","","","","","","","","","","","","","","","","","","","","","","","","","","","",""
"","text-replacement","16","89173","0.0-16.0","52129727","wem/bandit_party_1","A2XFO0X6RCS98M","either","8","3953","","","32","","","","","","","","","","","","","","","","","","","","","","","","","","","","","","","","","","","","",""
"","text-replacement","17","92502","0.0-17.0","52129727","wem/bandit_party_1","A2XFO0X6RCS98M","either","8","3328","","","32","","","","","","","","","","","","","","","","","","","","","","","","","","","","","","","","","","","","",""
"","bandit","18","94717","0.0-18.0-0.0","52129727","wem/bandit_party_1","A2XFO0X6RCS98M","either","8","711","","","","","","","0","0","1","","0.8","0.5","0.5","","","0.8","0.2","","","","","","","","","","","","","","","","74","J","0","img/none_selected_demo.jpg","true","0","80_20_practice",""
"","bandit","19","96492","0.0-18.0-1.0","52129727","wem/bandit_party_1","A2XFO0X6RCS98M","either","8","271","","","","","","","0","0","1","0.8","","0.5","0.5","","","","","","","0.8","0.2","","","","","","","","","","","","74","J","0","img/none_selected_demo.jpg","true","0","80_20_practice",""
"","bandit","20","98379","0.0-18.0-2.0","52129727","wem/bandit_party_1","A2XFO0X6RCS98M","either","8","385","","","","","","","0","0","1","","0.2","0.5","0.5","","","0.8","0.2","","","","","","","","","","","","","","","","75","K","1","","true","0","80_20_practice",""
"","bandit","21","100077","0.0-18.0-3.0","52129727","wem/bandit_party_1","A2XFO0X6RCS98M","either","8","194","","","","","","","0","0","1","","0.2","0.5","0.5","","","0.8","0.2","","","","","","","","","","","","","","","","75","K","1","","true","0","80_20_practice",""
"","bandit","22","101708","0.0-18.0-4.0","52129727","wem/bandit_party_1","A2XFO0X6RCS98M","either","8","127","","","","","","","0","0","1","0.2","","0.5","0.5","","","","","","","0.8","0.2","","","","","","","","","","","","75","K","1","","true","0","80_20_practice",""
"","bandit","23","103227","0.0-18.0-5.0","52129727","wem/bandit_party_1","A2XFO0X6RCS98M","either","8","16","","","","","","","0","0","1","0.8","","0.5","0.5","","","","","","","0.8","0.2","","","","","","","","","","","","74","J","0","img/none_selected_demo.jpg","true","0","80_20_practice",""
"","bandit","24","104971","0.0-18.0-6.0","52129727","wem/bandit_party_1","A2XFO0X6RCS98M","either","8","240","","","","","","","1","0","0","0.8","","0.5","0.5","","","","","","","0.8","0.2","","","","","","","","","","","","74","J","0","img/none_selected_demo.jpg","true","0","80_20_practice",""
"","bandit","25","106627","0.0-18.0-7.0","52129727","wem/bandit_party_1","A2XFO0X6RCS98M","either","8","153","","","","","","","0","1","0","","0.8","0.5","0.5","","","0.8","0.2","","","","","","","","","","","","","","","","74","J","0","img/none_selected_demo.jpg","true","0","80_20_practice",""
"","bandit","26","108235","0.0-18.0-8.0","52129727","wem/bandit_party_1","A2XFO0X6RCS98M","either","8","105","","","","","","","0","1","0","","0.8","0.5","0.5","","","0.8","0.2","","","","","","","","","","","","","","","","74","J","0","img/none_selected_demo.jpg","true","0","80_20_practice",""
"","bandit","27","109867","0.0-18.0-9.0","52129727","wem/bandit_party_1","A2XFO0X6RCS98M","either","8","129","","","","","","","0","1","0","","0.8","0.5","0.5","","","0.8","0.2","","","","","","","","","","","","","","","","74","J","0","img/none_selected_demo.jpg","true","0","80_20_practice",""
"","bandit","28","111596","0.0-18.0-10.0","52129727","wem/bandit_party_1","A2XFO0X6RCS98M","either","8","226","","","","","","","0","1","0","","0.8","0.5","0.5","","","0.8","0.2","","","","","","","","","","","","","","","","74","J","0","img/none_selected_demo.jpg","true","0","80_20_practice",""
"","bandit","29","113116","0.0-18.0-11.0","52129727","wem/bandit_party_1","A2XFO0X6RCS98M","either","8","16","","","","","","","0","0","1","","0.8","0.5","0.5","","","0.8","0.2","","","","","","","","","","","","","","","","74","J","0","img/none_selected_demo.jpg","true","0","80_20_practice",""
"","bandit","30","114637","0.0-18.0-12.0","52129727","wem/bandit_party_1","A2XFO0X6RCS98M","either","8","16","","","","","","","1","0","0","0.8","","0.5","0.5","","","","","","","0.8","0.2","","","","","","","","","","","","74","J","0","img/none_selected_demo.jpg","true","0","80_20_practice",""
"","bandit","31","116379","0.0-18.0-13.0","52129727","wem/bandit_party_1","A2XFO0X6RCS98M","either","8","238","","","","","","","1","0","0","0.2","","0.5","0.5","","","","","","","0.8","0.2","","","","","","","","","","","","75","K","1","","true","0","80_20_practice",""
"","bandit","32","118012","0.0-18.0-14.0","52129727","wem/bandit_party_1","A2XFO0X6RCS98M","either","8","129","","","","","","","0","0","1","0.2","","0.5","0.5","","","","","","","0.8","0.2","","","","","","","","","","","","75","K","1","","true","0","80_20_practice",""
"","bandit","33","119699","0.0-18.0-15.0","52129727","wem/bandit_party_1","A2XFO0X6RCS98M","either","8","185","","","","","","","0","0","1","0.2","","0.5","0.5","","","","","","","0.8","0.2","","","","","","","","","","","","75","K","1","","true","0","80_20_practice",""
"","bandit","34","121283","0.0-18.0-16.0","52129727","wem/bandit_party_1","A2XFO0X6RCS98M","either","8","81","","","","","","","0","0","1","0.2","","0.5","0.5","","","","","","","0.8","0.2","","","","","","","","","","","","75","K","1","","true","0","80_20_practice",""
"","bandit","35","122901","0.0-18.0-17.0","52129727","wem/bandit_party_1","A2XFO0X6RCS98M","either","8","113","","","","","","","0","0","1","0.2","","0.5","0.5","","","","","","","0.8","0.2","","","","","","","","","","","","75","K","1","","true","0","80_20_practice",""
"","bandit","36","124516","0.0-18.0-18.0","52129727","wem/bandit_party_1","A2XFO0X6RCS98M","either","8","111","","","","","","","1","0","0","0.8","","0.5","0.5","","","","","","","0.8","0.2","","","","","","","","","","","","74","J","0","img/none_selected_demo.jpg","true","0","80_20_practice",""
"","bandit","37","126763","0.0-18.0-19.0","52129727","wem/bandit_party_1","A2XFO0X6RCS98M","either","8","743","","","","","","","1","0","0","0.8","","0.5","0.5","","","","","","","0.8","0.2","","","","","","","","","","","","74","J","0","img/none_selected_demo.jpg","true","0","80_20_practice",""
"","text-replacement","38","128537","0.0-19.0","52129727","wem/bandit_party_1","A2XFO0X6RCS98M","either","8","1773","","","32","","","","","","","","","","","","","","","","","","","","","","","","","","","","","","","","","","","","",""
"","bandit","39","130988","0.0-20.0-0.0","52129727","wem/bandit_party_1","A2XFO0X6RCS98M","either","8","947","","","","","","","1","0","0","1","0","","","","","0","1","","","1","0","","","","","","","","","","","","74","J","0","img/none_selected_demo.jpg","true","0","",""
"","text-replacement","40","133006","0.0-21.0","52129727","wem/bandit_party_1","A2XFO0X6RCS98M","either","8","2017","","","32","","","","","","","","","","","","","","","","","","","","","","","","","","","","","","","","","","","","",""
"","text-replacement","41","134749","0.0-22.0","52129727","wem/bandit_party_1","A2XFO0X6RCS98M","either","8","1742","","","32","","","","","","","","","","","","","","","","","","","","","","","","","","","","","","","","","","","","",""
"","text-replacement","42","135829","0.0-23.0","52129727","wem/bandit_party_1","A2XFO0X6RCS98M","either","8","1079","","","32","","","","","","","","","","","","","","","","","","","","","","","","","","","","","","","","","","","","",""
"","text-replacement","43","138341","0.0-24.0","52129727","wem/bandit_party_1","A2XFO0X6RCS98M","either","8","2511","","","32","","","","","","","","","","","","","","","","","","","","","","","","","","","","","","","","","","","","",""
"","text-replacement","44","144193","0.0-25.0","52129727","wem/bandit_party_1","A2XFO0X6RCS98M","either","8","5851","","","32","","","","","","","","","","","","","","","","","","","","","","","","","","","","","","","","","","","","",""
"","text-replacement","45","146758","0.0-26.0","52129727","wem/bandit_party_1","A2XFO0X6RCS98M","either","8","2563","","","32","","","","","","","","","","","","","","","","","","","","","","","","","","","","","","","","","","","","",""
"","text-replacement","46","148917","0.0-27.0","52129727","wem/bandit_party_1","A2XFO0X6RCS98M","either","8","2159","","","32","","","","","","","","","","","","","","","","","","","","","","","","","","","","","","","","","","","","",""
"","text-replacement","47","150742","0.0-28.0","52129727","wem/bandit_party_1","A2XFO0X6RCS98M","either","8","1823","","","32","","","","","","","","","","","","","","","","","","","","","","","","","","","","","","","","","","","","",""
"","text-replacement","48","154336","0.0-29.0","52129727","wem/bandit_party_1","A2XFO0X6RCS98M","either","8","3594","","","32","","","","","","","","","","","","","","","","","","","","","","","","","","","","","","","","","","","","",""
"","text-replacement","49","156766","0.0-30.0","52129727","wem/bandit_party_1","A2XFO0X6RCS98M","either","8","2428","","","32","","","","","","","","","","","","","","","","","","","","","","","","","","","","","","","","","","","","",""
"","text-replacement","50","159150","0.0-31.0","52129727","wem/bandit_party_1","A2XFO0X6RCS98M","either","8","2382","","","32","","","","","","","","","","","","","","","","","","","","","","","","","","","","","","","","","","","","",""
"","bandit","51","161380","0.0-32.0-0.0","52129727","wem/bandit_party_1","A2XFO0X6RCS98M","either","8","726","","","","","","","0","0","1","","0.8","0.5","0.5","0.5","0.5","0.8","0.2","0.6","0.2","","","","","","","","","","","","","","72","H","0","img/none_selected.jpg","true","0","full_practice",""
"","bandit","52","163131","0.0-32.0-1.0","52129727","wem/bandit_party_1","A2XFO0X6RCS98M","either","8","248","","","","","","","1","0","0","0.8","","0.5","0.5","0.5","0.5","","","","","0.8","0.2","0.6","0.2","","","","","","","","","","72","H","0","img/none_selected.jpg","true","0","full_practice",""
"","bandit","53","164795","0.0-32.0-2.0","52129727","wem/bandit_party_1","A2XFO0X6RCS98M","either","8","161","","","","","","","0","1","0","","0.8","0.5","0.5","0.5","0.5","0.8","0.2","0.6","0.2","","","","","","","","","","","","","","72","H","0","img/none_selected.jpg","true","0","full_practice",""
"","bandit","54","166802","0.0-32.0-3.0","52129727","wem/bandit_party_1","A2XFO0X6RCS98M","either","8","501","","","","","","","0","1","0","","0.8","0.5","0.5","0.5","0.5","0.8","0.2","0.6","0.2","","","","","","","","","","","","","","72","H","0","img/none_selected.jpg","true","0","full_practice",""
"","bandit","55","168372","0.0-32.0-4.0","52129727","wem/bandit_party_1","A2XFO0X6RCS98M","either","8","67","","","","","","","1","0","0","0.8","","0.5","0.5","0.5","0.5","","","","","0.8","0.2","0.6","0.2","","","","","","","","","","72","H","0","img/none_selected.jpg","true","0","full_practice",""
"","bandit","56","170068","0.0-32.0-5.0","52129727","wem/bandit_party_1","A2XFO0X6RCS98M","either","8","191","","","","","","","0","1","0","","0.8","0.5","0.5","0.5","0.5","0.8","0.2","0.6","0.2","","","","","","","","","","","","","","72","H","0","img/none_selected.jpg","true","0","full_practice",""
"","bandit","57","171707","0.0-32.0-6.0","52129727","wem/bandit_party_1","A2XFO0X6RCS98M","either","8","137","","","","","","","0","1","0","","0.8","0.5","0.5","0.5","0.5","0.8","0.2","0.6","0.2","","","","","","","","","","","","","","72","H","0","img/none_selected.jpg","true","0","full_practice",""
"","bandit","58","173291","0.0-32.0-7.0","52129727","wem/bandit_party_1","A2XFO0X6RCS98M","either","8","81","","","","","","","1","0","0","0.8","","0.5","0.5","0.5","0.5","","","","","0.8","0.2","0.6","0.2","","","","","","","","","","72","H","0","img/none_selected.jpg","true","0","full_practice",""
"","bandit","59","174891","0.0-32.0-8.0","52129727","wem/bandit_party_1","A2XFO0X6RCS98M","either","8","96","","","","","","","0","1","0","","0.8","0.5","0.5","0.5","0.5","0.8","0.2","0.6","0.2","","","","","","","","","","","","","","72","H","0","img/none_selected.jpg","true","0","full_practice",""
"","bandit","60","176427","0.0-32.0-9.0","52129727","wem/bandit_party_1","A2XFO0X6RCS98M","either","8","33","","","","","","","0","1","0","","0.8","0.5","0.5","0.5","0.5","0.8","0.2","0.6","0.2","","","","","","","","","","","","","","72","H","0","img/none_selected.jpg","true","0","full_practice",""
"","bandit","61","178063","0.0-32.0-10.0","52129727","wem/bandit_party_1","A2XFO0X6RCS98M","either","8","132","","","","","","","1","0","0","0.8","","0.5","0.5","0.5","0.5","","","","","0.8","0.2","0.6","0.2","","","","","","","","","","72","H","0","img/none_selected.jpg","true","0","full_practice",""
"","bandit","62","179572","0.0-32.0-11.0","52129727","wem/bandit_party_1","A2XFO0X6RCS98M","either","8","5","","","","","","","1","0","0","0.8","","0.5","0.5","0.5","0.5","","","","","0.8","0.2","0.6","0.2","","","","","","","","","","72","H","0","img/none_selected.jpg","true","0","full_practice",""
"","bandit","63","181260","0.0-32.0-12.0","52129727","wem/bandit_party_1","A2XFO0X6RCS98M","either","8","183","","","","","","","0","1","0","","0.8","0.5","0.5","0.5","0.5","0.8","0.2","0.6","0.2","","","","","","","","","","","","","","72","H","0","img/none_selected.jpg","true","0","full_practice",""
"","bandit","64","183038","0.0-32.0-13.0","52129727","wem/bandit_party_1","A2XFO0X6RCS98M","either","8","272","","","","","","","0","1","0","","0.8","0.5","0.5","0.5","0.5","0.8","0.2","0.6","0.2","","","","","","","","","","","","","","72","H","0","img/none_selected.jpg","true","0","full_practice",""
"","bandit","65","184717","0.0-32.0-14.0","52129727","wem/bandit_party_1","A2XFO0X6RCS98M","either","8","176","","","","","","","1","0","0","0.8","","0.5","0.5","0.5","0.5","","","","","0.8","0.2","0.6","0.2","","","","","","","","","","72","H","0","img/none_selected.jpg","true","0","full_practice",""
"","bandit","66","186636","0.0-32.0-15.0","52129727","wem/bandit_party_1","A2XFO0X6RCS98M","either","8","415","","","","","","","0","0","1","0.8","","0.5","0.5","0.5","0.5","","","","","0.8","0.2","0.6","0.2","","","","","","","","","","72","H","0","img/none_selected.jpg","true","0","full_practice",""
"","bandit","67","188384","0.0-32.0-16.0","52129727","wem/bandit_party_1","A2XFO0X6RCS98M","either","8","244","","","","","","","1","0","0","0.8","","0.5","0.5","0.5","0.5","","","","","0.8","0.2","0.6","0.2","","","","","","","","","","72","H","0","img/none_selected.jpg","true","0","full_practice",""
"","bandit","68","190003","0.0-32.0-17.0","52129727","wem/bandit_party_1","A2XFO0X6RCS98M","either","8","116","","","","","","","1","0","0","0.8","","0.5","0.5","0.5","0.5","","","","","0.8","0.2","0.6","0.2","","","","","","","","","","72","H","0","img/none_selected.jpg","true","0","full_practice",""
"","bandit","69","191717","0.0-32.0-18.0","52129727","wem/bandit_party_1","A2XFO0X6RCS98M","either","8","210","","","","","","","0","0","1","","0.8","0.5","0.5","0.5","0.5","0.8","0.2","0.6","0.2","","","","","","","","","","","","","","72","H","0","img/none_selected.jpg","true","0","full_practice",""
"","bandit","70","193444","0.0-32.0-19.0","52129727","wem/bandit_party_1","A2XFO0X6RCS98M","either","8","222","","","","","","","0","1","0","","0.8","0.5","0.5","0.5","0.5","0.8","0.2","0.6","0.2","","","","","","","","","","","","","","72","H","0","img/none_selected.jpg","true","0","full_practice",""
"","text","71","196061","0.0-33.0","52129727","wem/bandit_party_1","A2XFO0X6RCS98M","either","8","2615","","","32","","","","","","","","","","","","","","","","","","","","","","","","","","","","","","","","","","","","",""
"","text-replacement","72","206473","0.0-34.0","52129727","wem/bandit_party_1","A2XFO0X6RCS98M","either","8","9409","","","32","","","","","","","","","","","","","","","","","","","","","","","","","","","","","","","","","","","","",""
"","text-replacement","73","213606","0.0-35.0","52129727","wem/bandit_party_1","A2XFO0X6RCS98M","either","8","7131","","","32","","","","","","","","","","","","","","","","","","","","","","","","","","","","","","","","","","","","",""
"","text-replacement","74","218897","0.0-36.0","52129727","wem/bandit_party_1","A2XFO0X6RCS98M","either","8","5290","","","32","","","","","","","","","","","","","","","","","","","","","","","","","","","","","","","","","","","","",""
"","text-replacement","75","224422","0.0-37.0","52129727","wem/bandit_party_1","A2XFO0X6RCS98M","either","8","5524","","","32","","","","","","","","","","","","","","","","","","","","","","","","","","","","","","","","","","","","",""
"","text-replacement","76","227862","0.0-38.0","52129727","wem/bandit_party_1","A2XFO0X6RCS98M","either","8","3438","","","32","","","","","","","","","","","","","","","","","","","","","","","","","","","","","","","","","","","","",""
"","survey-multi-choice-replacement","77","233575","0.0-39.0-0.0","52129727","wem/bandit_party_1","A2XFO0X6RCS98M","either","8","5709","","","","","","","","","","","","","","","","","","","","","","","","Money will be added to the pool for <span style='color:blue;'>DEMOCRATS</span>","","","","","","","attn_check","","","","","","","","","0"
"","survey-multi-choice-replacement","78","236792","0.0-40.0-0.0","52129727","wem/bandit_party_1","A2XFO0X6RCS98M","either","8","2211","","","","","","","","","","","","","","","","","","","","","","","","Equal amounts of money will be added to the pool for <span style='color:blue;'>DEMOCRATS</span> and subtracted from the pool for <span style='color:red;'>REPUBLICANS</span>","","","","","","","attn_check","","","","","","","","","2"
"","survey-multi-choice-replacement","79","239264","0.0-41.0-0.0","52129727","wem/bandit_party_1","A2XFO0X6RCS98M","either","8","1466","","","","","","","","","","","","","","","","","","","","","","","","No money will be added to either pool","","","","","","","attn_check","","","","","","","","","3"
"","bandit","80","242523","0.0-42.0-0.0","52129727","wem/bandit_party_1","A2XFO0X6RCS98M","either","8","754","","","","","","","0","0","1","0.1351790469","","0.6","0.8","0.4","0.2","","","","","0.1351790469","0.2637293772","0.2928194041","0.3540548627","","","","","","","","","","72","H","0","img/none_selected.jpg","","1","main_expt",""
"","bandit","81","244318","0.0-43.0-0.0","52129727","wem/bandit_party_1","A2XFO0X6RCS98M","either","8","293","","","","","","","0","0","1","0.125602744","","0.6","0.8","0.4","0.2","","","","","0.125602744","0.2760013096","0.3040419902","0.3812516843","","","","","","","","","","72","H","0","img/none_selected.jpg","","2","main_expt",""
"","bandit","82","246052","0.0-44.0-0.0","52129727","wem/bandit_party_1","A2XFO0X6RCS98M","either","8","231","","","","","","","0","0","1","0.09574082279","","0.6","0.8","0.4","0.2","","","","","0.09574082279","0.3240499928","0.2875251023","0.3901316494","","","","","","","","","","72","H","0","img/none_selected.jpg","","3","main_expt",""
"","bandit","83","248356","0.0-45.0-0.0","52129727","wem/bandit_party_1","A2XFO0X6RCS98M","either","8","800","","","","","","","1","0","0","0.3510822359","","0.6","0.8","0.4","0.2","","","","","0.0913382225","0.3510822359","0.2965567903","0.3945399471","","","","","","","","","","74","J","1","","","4","main_expt",""
"","bandit","84","249980","0.0-46.0-0.0","52129727","wem/bandit_party_1","A2XFO0X6RCS98M","either","8","120","","","","","","","0","0","1","0.3522827721","","0.6","0.8","0.4","0.2","","","","","0.106177601","0.3522827721","0.2681113314","0.3997977613","","","","","","","","","","74","J","1","","","5","main_expt",""
"","bandit","85","251571","0.0-47.0-0.0","52129727","wem/bandit_party_1","A2XFO0X6RCS98M","either","8","88","","","","","","","0","0","1","0.382674005","","0.6","0.8","0.4","0.2","","","","","0.08998955495","0.382674005","0.2330443498","0.390783501","","","","","","","","","","74","J","1","","","6","main_expt",""
"","bandit","86","253243","0.0-48.0-0.0","52129727","wem/bandit_party_1","A2XFO0X6RCS98M","either","8","169","","","","","","","1","0","0","0.1630509172","","0.6","0.8","0.4","0.2","","","","","0.1077526668","0.3998463606","0.1630509172","0.3305693427","","","","","","","","","","75","K","2","","","7","main_expt",""
"","bandit","87","254828","0.0-49.0-0.0","52129727","wem/bandit_party_1","A2XFO0X6RCS98M","either","8","80","","","","","","","1","0","0","0.2002468685","","0.6","0.8","0.4","0.2","","","","","0.1243697388","0.3832029687","0.2002468685","0.3056545716","","","","","","","","","","75","K","2","","","8","main_expt",""
"","bandit","88","256468","0.0-50.0-0.0","52129727","wem/bandit_party_1","A2XFO0X6RCS98M","either","8","136","","","","","","","0","1","0","","0.1835034381","0.6","0.8","0.4","0.2","0.1698108096","0.3796681134","0.1835034381","0.3278889804","","","","","","","","","","","","","","75","K","2","","","9","main_expt",""
"","bandit","89","258037","0.0-51.0-0.0","52129727","wem/bandit_party_1","A2XFO0X6RCS98M","either","8","63","","","","","","","0","0","1","","0.1939723001","0.6","0.8","0.4","0.2","0.221757114","0.3614311416","0.1939723001","0.3137855556","","","","","","","","","","","","","","75","K","2","","","10","main_expt",""
"","bandit","90","259571","0.0-52.0-0.0","52129727","wem/bandit_party_1","A2XFO0X6RCS98M","either","8","30","","","","","","","0","0","1","0.1949806013","","0.6","0.8","0.4","0.2","","","","","0.1961062924","0.3938737051","0.1949806013","0.3253079181","","","","","","","","","","75","K","2","","","11","main_expt",""
"","bandit","91","261179","0.0-53.0-0.0","52129727","wem/bandit_party_1","A2XFO0X6RCS98M","either","8","105","","","","","","","0","0","1","","0.3298150516","0.6","0.8","0.4","0.2","0.1907056259","0.3810544723","0.2587943474","0.3298150516","","","","","","","","","","","","","","76","L","3","","","12","main_expt",""
"","bandit","92","262811","0.0-54.0-0.0","52129727","wem/bandit_party_1","A2XFO0X6RCS98M","either","8","129","","","","","","","0","0","1","","0.3673307406","0.6","0.8","0.4","0.2","0.2162865666","0.3707046684","0.3085985727","0.3673307406","","","","","","","","","","","","","","76","L","3","","","13","main_expt",""
"","bandit","93","264548","0.0-55.0-0.0","52129727","wem/bandit_party_1","A2XFO0X6RCS98M","either","8","233","","","","","","","1","0","0","0.3486531997","","0.6","0.8","0.4","0.2","","","","","0.2399362825","0.3486531997","0.2464992766","0.3679224674","","","","","","","","","","74","J","1","","","14","main_expt",""
"","bandit","94","266112","0.0-56.0-0.0","52129727","wem/bandit_party_1","A2XFO0X6RCS98M","either","8","59","","","","","","","0","0","1","0.3263578384","","0.6","0.8","0.4","0.2","","","","","0.1986859052","0.3263578384","0.2474611475","0.3062507314","","","","","","","","","","74","J","1","","","15","main_expt",""
"","bandit","95","267636","0.0-57.0-0.0","52129727","wem/bandit_party_1","A2XFO0X6RCS98M","either","8","20","","","","","","","0","0","1","0.3514189979","","0.6","0.8","0.4","0.2","","","","","0.1865641621","0.3514189979","0.2835538477","0.2892976033","","","","","","","","","","74","J","1","","","16","main_expt",""
"","bandit","96","269259","0.0-58.0-0.0","52129727","wem/bandit_party_1","A2XFO0X6RCS98M","either","8","119","","","","","","","0","0","1","","0.3256112075","0.6","0.8","0.4","0.2","0.2035525071","0.3532592314","0.3256112075","0.2861796528","","","","","","","","","","","","","","75","K","2","","","17","main_expt",""
"","bandit","97","270821","0.0-59.0-0.0","52129727","wem/bandit_party_1","A2XFO0X6RCS98M","either","8","56","","","","","","","0","0","1","0.2039336531","","0.6","0.8","0.4","0.2","","","","","0.2039336531","0.3858608091","0.3802227677","0.2958570682","","","","","","","","","","72","H","0","img/none_selected.jpg","","18","main_expt",""
"","bandit","98","272467","0.0-60.0-0.0","52129727","wem/bandit_party_1","A2XFO0X6RCS98M","either","8","141","","","","","","","1","0","0","0.1598579642","","0.6","0.8","0.4","0.2","","","","","0.1598579642","0.3837638756","0.360566968","0.3353028819","","","","","","","","","","72","H","0","img/none_selected.jpg","","19","main_expt",""
"","bandit","99","274107","0.0-61.0-0.0","52129727","wem/bandit_party_1","A2XFO0X6RCS98M","either","8","136","","","","","","","1","0","0","0.1437622327","","0.6","0.8","0.4","0.2","","","","","0.1437622327","0.2872100501","0.3696799013","0.3139704528","","","","","","","","","","72","H","0","img/none_selected.jpg","","20","main_expt",""
"","bandit","100","275723","0.0-62.0-0.0","52129727","wem/bandit_party_1","A2XFO0X6RCS98M","either","8","112","","","","","","","0","0","1","","0.07974703335","0.6","0.8","0.4","0.2","0.07974703335","0.2975414498","0.4006907501","0.2524707143","","","","","","","","","","","","","","72","H","0","img/none_selected.jpg","","21","main_expt",""
"","bandit","101","277421","0.0-63.0-0.0","52129727","wem/bandit_party_1","A2XFO0X6RCS98M","either","8","193","","","","","","","0","0","1","0.1361132429","","0.6","0.8","0.4","0.2","","","","","0.1361132429","0.2741965999","0.4081217326","0.248326021","","","","","","","","","","72","H","0","img/none_selected.jpg","","22","main_expt",""
"","bandit","102","279114","0.0-64.0-0.0","52129727","wem/bandit_party_1","A2XFO0X6RCS98M","either","8","190","","","","","","","1","0","0","0.2379064449","","0.6","0.8","0.4","0.2","","","","","0.1705973249","0.2379064449","0.3740207531","0.2937153481","","","","","","","","","","74","J","1","","","23","main_expt",""
"","bandit","103","280939","0.0-65.0-0.0","52129727","wem/bandit_party_1","A2XFO0X6RCS98M","either","8","322","","","","","","","0","0","1","","0.2078598572","0.6","0.8","0.4","0.2","0.1392759225","0.2078598572","0.3913756451","0.2625315469","","","","","","","","","","","","","","74","J","1","","","24","main_expt",""
"","bandit","104","282939","0.0-66.0-0.0","52129727","wem/bandit_party_1","A2XFO0X6RCS98M","either","8","496","","","","","","","1","0","0","0.2764850733","","0.6","0.8","0.4","0.2","","","","","0.1800538527","0.2764850733","0.4100905738","0.2405651368","","","","","","","","","","74","J","1","","","25","main_expt",""
"","bandit","105","284883","0.0-67.0-0.0","52129727","wem/bandit_party_1","A2XFO0X6RCS98M","either","8","440","","","","","","","1","0","0","0.3080191348","","0.6","0.8","0.4","0.2","","","","","0.2146400533","0.3080191348","0.3600668969","0.2503350336","","","","","","","","","","74","J","1","","","26","main_expt",""
"","bandit","106","286571","0.0-68.0-0.0","52129727","wem/bandit_party_1","A2XFO0X6RCS98M","either","8","184","","","","","","","0","0","1","0.3606197488","","0.6","0.8","0.4","0.2","","","","","0.1948367851","0.3606197488","0.3703096079","0.354091838","","","","","","","","","","74","J","1","","","27","main_expt",""
"","bandit","107","288455","0.0-69.0-0.0","52129727","wem/bandit_party_1","A2XFO0X6RCS98M","either","8","380","","","","","","","0","1","0","","0.3696097963","0.6","0.8","0.4","0.2","0.2282666016","0.3696097963","0.3527269899","0.3419366675","","","","","","","","","","","","","","74","J","1","","","28","main_expt",""
"","bandit","108","290341","0.0-70.0-0.0","52129727","wem/bandit_party_1","A2XFO0X6RCS98M","either","8","381","","","","","","","0","0","1","0.3434444954","","0.6","0.8","0.4","0.2","","","","","0.1842618798","0.3434444954","0.2854860911","0.361896517","","","","","","","","","","74","J","1","","","29","main_expt",""
"","bandit","109","292363","0.0-71.0-0.0","52129727","wem/bandit_party_1","A2XFO0X6RCS98M","either","8","518","","","","","","","0","0","1","0.1930267653","","0.6","0.8","0.4","0.2","","","","","0.1930267653","0.3528183973","0.2971434158","0.3701160785","","","","","","","","","","72","H","0","img/none_selected.jpg","","30","main_expt",""
"","bandit","110","294106","0.0-72.0-0.0","52129727","wem/bandit_party_1","A2XFO0X6RCS98M","either","8","240","","","","","","","0","0","1","","0.3192935598","0.6","0.8","0.4","0.2","0.2279264959","0.3436926249","0.3192935598","0.3602312343","","","","","","","","","","","","","","75","K","2","","","31","main_expt",""
"","bandit","111","295843","0.0-73.0-0.0","52129727","wem/bandit_party_1","A2XFO0X6RCS98M","either","8","232","","","","","","","0","0","1","0.3392376576","","0.6","0.8","0.4","0.2","","","","","0.1922668126","0.3392376576","0.2910845839","0.3550043818","","","","","","","","","","74","J","1","","","32","main_expt",""
"","bandit","112","297900","0.0-74.0-0.0","52129727","wem/bandit_party_1","A2XFO0X6RCS98M","either","8","552","","","","","","","0","1","0","","0.2524106513","0.6","0.8","0.4","0.2","0.1503247695","0.2524106513","0.2956883229","0.3927862597","","","","","","","","","","","","","","74","J","1","","","33","main_expt",""
"","bandit","113","299704","0.0-75.0-0.0","52129727","wem/bandit_party_1","A2XFO0X6RCS98M","either","8","298","","","","","","","0","0","1","0.2378308988","","0.6","0.8","0.4","0.2","","","","","0.1875072744","0.2378308988","0.2918182698","0.4185963197","","","","","","","","","","74","J","1","","","34","main_expt",""
"","bandit","114","301779","0.0-76.0-0.0","52129727","wem/bandit_party_1","A2XFO0X6RCS98M","either","8","572","","","","","","","0","0","1","0.2683654211","","0.6","0.8","0.4","0.2","","","","","0.2135507624","0.2683654211","0.3063909307","0.441983755","","","","","","","","","","74","J","1","","","35","main_expt",""
"","bandit","115","303644","0.0-77.0-0.0","52129727","wem/bandit_party_1","A2XFO0X6RCS98M","either","8","360","","","","","","","0","0","1","0.2042402853","","0.6","0.8","0.4","0.2","","","","","0.2042402853","0.2645223933","0.2820805085","0.4352827683","","","","","","","","","","72","H","0","img/none_selected.jpg","","36","main_expt",""
"","bandit","116","305508","0.0-78.0-0.0","52129727","wem/bandit_party_1","A2XFO0X6RCS98M","either","8","360","","","","","","","0","0","1","","0.2024605481","0.6","0.8","0.4","0.2","0.2024605481","0.2360561858","0.2610370824","0.450520142","","","","","","","","","","","","","","72","H","0","img/none_selected.jpg","","37","main_expt",""
"","bandit","117","307579","0.0-79.0-0.0","52129727","wem/bandit_party_1","A2XFO0X6RCS98M","either","8","567","","","","","","","0","0","1","","0.4681224698","0.6","0.8","0.4","0.2","0.1677713785","0.2001865083","0.1896233007","0.4681224698","","","","","","","","","","","","","","76","L","3","","","38","main_expt",""
"","bandit","118","309396","0.0-80.0-0.0","52129727","wem/bandit_party_1","A2XFO0X6RCS98M","either","8","312","","","","","","","1","0","0","0.4711022053","","0.6","0.8","0.4","0.2","","","","","0.221779122","0.1687915361","0.168851025","0.4711022053","","","","","","","","","","76","L","3","","","39","main_expt",""
"","bandit","119","311424","0.0-81.0-0.0","52129727","wem/bandit_party_1","A2XFO0X6RCS98M","either","8","523","","","","","","","0","0","1","0.4559447699","","0.6","0.8","0.4","0.2","","","","","0.2722397218","0.1503151413","0.1615787635","0.4559447699","","","","","","","","","","76","L","3","","","40","main_expt",""
"","bandit","120","313283","0.0-82.0-0.0","52129727","wem/bandit_party_1","A2XFO0X6RCS98M","either","8","355","","","","","","","1","0","0","0.4412687596","","0.6","0.8","0.4","0.2","","","","","0.3298230943","0.08168262283","0.1472326003","0.4412687596","","","","","","","","","","76","L","3","","","41","main_expt",""
"","bandit","121","315724","0.0-83.0-0.0","52129727","wem/bandit_party_1","A2XFO0X6RCS98M","either","8","937","","","","","","","0","0","1","","0.4457751761","0.6","0.8","0.4","0.2","0.3104885444","0.07668629145","0.1533480506","0.4457751761","","","","","","","","","","","","","","76","L","3","","","42","main_expt",""
"","bandit","122","317467","0.0-84.0-0.0","52129727","wem/bandit_party_1","A2XFO0X6RCS98M","either","8","239","","","","","","","0","0","1","0.1414351437","","0.6","0.8","0.4","0.2","","","","","0.3005355489","0.07394587158","0.1414351437","0.4298378352","","","","","","","","","","75","K","2","","","43","main_expt",""
"","bandit","123","319452","0.0-85.0-0.0","52129727","wem/bandit_party_1","A2XFO0X6RCS98M","either","8","481","","","","","","","0","0","1","","0.1067646429","0.6","0.8","0.4","0.2","0.2456242138","0.1192337685","0.1067646429","0.4416915379","","","","","","","","","","","","","","75","K","2","","","44","main_expt",""
"","bandit","124","321124","0.0-86.0-0.0","52129727","wem/bandit_party_1","A2XFO0X6RCS98M","either","8","167","","","","","","","0","0","1","0.1285724119","","0.6","0.8","0.4","0.2","","","","","0.2839901561","0.1285724119","0.1250796286","0.3915522423","","","","","","","","","","74","J","1","","","45","main_expt",""
"","bandit","125","322878","0.0-87.0-0.0","52129727","wem/bandit_party_1","A2XFO0X6RCS98M","either","8","250","","","","","","","0","1","0","","0.4318427431","0.6","0.8","0.4","0.2","0.2353621531","0.1112684106","0.1927264636","0.4318427431","","","","","","","","","","","","","","76","L","3","","","46","main_expt",""
"","bandit","126","324636","0.0-88.0-0.0","52129727","wem/bandit_party_1","A2XFO0X6RCS98M","either","8","255","","","","","","","1","0","0","0.4395998441","","0.6","0.8","0.4","0.2","","","","","0.2405257196","0.1207340475","0.1804488412","0.4395998441","","","","","","","","","","76","L","3","","","47","main_expt",""
"","bandit","127","326627","0.0-89.0-0.0","52129727","wem/bandit_party_1","A2XFO0X6RCS98M","either","8","488","","","","","","","0","1","0","","0.4630443269","0.6","0.8","0.4","0.2","0.2629408555","0.1182533935","0.168268176","0.4630443269","","","","","","","","","","","","","","76","L","3","","","48","main_expt",""
"","bandit","128","328491","0.0-90.0-0.0","52129727","wem/bandit_party_1","A2XFO0X6RCS98M","either","8","360","","","","","","","1","0","0","0.4794982466","","0.6","0.8","0.4","0.2","","","","","0.2902453213","0.1460801474","0.1466838001","0.4794982466","","","","","","","","","","76","L","3","","","49","main_expt",""
"","bandit","129","330180","0.0-91.0-0.0","52129727","wem/bandit_party_1","A2XFO0X6RCS98M","either","8","184","","","","","","","0","1","0","","0.4562783041","0.6","0.8","0.4","0.2","0.3033715012","0.1765155983","0.1336340117","0.4562783041","","","","","","","","","","","","","","76","L","3","","","50","main_expt",""
"","bandit","130","332483","0.0-92.0-0.0","52129727","wem/bandit_party_1","A2XFO0X6RCS98M","either","8","799","","","","","","","0","0","1","","0.4515646323","0.6","0.8","0.4","0.2","0.3536831403","0.1614266163","0.1067821754","0.4515646323","","","","","","","","","","","","","","76","L","3","","","51","main_expt",""
"","bandit","131","334064","0.0-93.0-0.0","52129727","wem/bandit_party_1","A2XFO0X6RCS98M","either","8","77","","","","","","","0","1","0","","0.4344137529","0.6","0.8","0.4","0.2","0.3058792917","0.1938643747","0.07294577227","0.4344137529","","","","","","","","","","","","","","76","L","3","","","52","main_expt",""
"","bandit","132","335731","0.0-94.0-0.0","52129727","wem/bandit_party_1","A2XFO0X6RCS98M","either","8","164","","","","","","","0","0","1","","0.4421766306","0.6","0.8","0.4","0.2","0.3466820038","0.1721886996","0.07676454597","0.4421766306","","","","","","","","","","","","","","76","L","3","","","53","main_expt",""
"","bandit","133","337269","0.0-95.0-0.0","52129727","wem/bandit_party_1","A2XFO0X6RCS98M","either","8","32","","","","","","","1","0","0","0.4591875032","","0.6","0.8","0.4","0.2","","","","","0.3159173384","0.1542880765","0.07707135067","0.4591875032","","","","","","","","","","76","L","3","","","54","main_expt",""
"","bandit","134","339179","0.0-96.0-0.0","52129727","wem/bandit_party_1","A2XFO0X6RCS98M","either","8","406","","","","","","","0","0","1","","0.4455250987","0.6","0.8","0.4","0.2","0.3205246683","0.2155598061","0.08227932488","0.4455250987","","","","","","","","","","","","","","76","L","3","","","55","main_expt",""
"","bandit","135","340884","0.0-97.0-0.0","52129727","wem/bandit_party_1","A2XFO0X6RCS98M","either","8","200","","","","","","","0","0","1","","0.4200701886","0.6","0.8","0.4","0.2","0.3067659888","0.199350645","0.09013031375","0.4200701886","","","","","","","","","","","","","","76","L","3","","","56","main_expt",""
"","bandit","136","342523","0.0-98.0-0.0","52129727","wem/bandit_party_1","A2XFO0X6RCS98M","either","8","135","","","","","","","0","0","1","0.3786279545","","0.6","0.8","0.4","0.2","","","","","0.3786279545","0.1991981904","0.106866739","0.3635567377","","","","","","","","","","72","H","0","img/none_selected.jpg","","57","main_expt",""
"","bandit","137","344088","0.0-99.0-0.0","52129727","wem/bandit_party_1","A2XFO0X6RCS98M","either","8","60","","","","","","","0","0","1","","0.1307276253","0.6","0.8","0.4","0.2","0.3796022377","0.1307276253","0.0915584437","0.3647217687","","","","","","","","","","","","","","74","J","1","","","58","main_expt",""
"","bandit","138","346180","0.0-100.0-0.0","52129727","wem/bandit_party_1","A2XFO0X6RCS98M","either","8","588","","","","","","","0","0","1","0.1036540812","","0.6","0.8","0.4","0.2","","","","","0.3570845549","0.1540949786","0.1036540812","0.3975499765","","","","","","","","","","75","K","2","","","59","main_expt",""
"","bandit","139","347828","0.0-101.0-0.0","52129727","wem/bandit_party_1","A2XFO0X6RCS98M","either","8","143","","","","","","","0","0","1","0.376383165","","0.6","0.8","0.4","0.2","","","","","0.398525789","0.1187181044","0.07948280662","0.376383165","","","","","","","","","","76","L","3","","","60","main_expt",""
"","bandit","140","349499","0.0-102.0-0.0","52129727","wem/bandit_party_1","A2XFO0X6RCS98M","either","8","167","","","","","","","1","0","0","0.380986593","","0.6","0.8","0.4","0.2","","","","","0.380986593","0.1734870435","0.0685056185","0.3384437455","","","","","","","","","","72","H","0","img/none_selected.jpg","","61","main_expt",""
"","bandit","141","351141","0.0-103.0-0.0","52129727","wem/bandit_party_1","A2XFO0X6RCS98M","either","8","138","","","","","","","0","0","1","","0.3928002855","0.6","0.8","0.4","0.2","0.3928002855","0.2056999461","0.04196312691","0.3086389155","","","","","","","","","","","","","","72","H","0","img/none_selected.jpg","","62","main_expt",""
"","bandit","142","352783","0.0-104.0-0.0","52129727","wem/bandit_party_1","A2XFO0X6RCS98M","either","8","136","","","","","","","0","1","0","","0.4097838671","0.6","0.8","0.4","0.2","0.4097838671","0.2421495796","0.06524357318","0.3098998428","","","","","","","","","","","","","","72","H","0","img/none_selected.jpg","","63","main_expt",""
"","bandit","143","354719","0.0-105.0-0.0","52129727","wem/bandit_party_1","A2XFO0X6RCS98M","either","8","430","","","","","","","1","0","0","0.3942475769","","0.6","0.8","0.4","0.2","","","","","0.3942475769","0.2678986655","0.04599317762","0.2859800092","","","","","","","","","","72","H","0","img/none_selected.jpg","","64","main_expt",""
"","bandit","144","356549","0.0-106.0-0.0","52129727","wem/bandit_party_1","A2XFO0X6RCS98M","either","8","326","","","","","","","0","1","0","","0.3756823908","0.6","0.8","0.4","0.2","0.3756823908","0.2780805564","0.04738713632","0.2780623804","","","","","","","","","","","","","","72","H","0","img/none_selected.jpg","","65","main_expt",""
"","bandit","145","358964","0.0-107.0-0.0","52129727","wem/bandit_party_1","A2XFO0X6RCS98M","either","8","911","","","","","","","0","0","1","0.3780323226","","0.6","0.8","0.4","0.2","","","","","0.3780323226","0.2923516192","0.02873144913","0.2740889186","","","","","","","","","","72","H","0","img/none_selected.jpg","","66","main_expt",""
"","bandit","146","360812","0.0-108.0-0.0","52129727","wem/bandit_party_1","A2XFO0X6RCS98M","either","8","344","","","","","","","0","0","1","","0.382091886","0.6","0.8","0.4","0.2","0.382091886","0.3481747094","0.0355516853","0.3122756929","","","","","","","","","","","","","","72","H","0","img/none_selected.jpg","","67","main_expt",""
"","bandit","147","362645","0.0-109.0-0.0","52129727","wem/bandit_party_1","A2XFO0X6RCS98M","either","8","328","","","","","","","1","0","0","0.3540590834","","0.6","0.8","0.4","0.2","","","","","0.4080562953","0.3540590834","0.04483006882","0.3004294993","","","","","","","","","","74","J","1","","","68","main_expt",""
"","bandit","148","364400","0.0-110.0-0.0","52129727","wem/bandit_party_1","A2XFO0X6RCS98M","either","8","251","","","","","","","0","1","0","","0.3348318208","0.6","0.8","0.4","0.2","0.419826639","0.3348318208","0.04300650393","0.3312842332","","","","","","","","","","","","","","74","J","1","","","69","main_expt",""
"","bandit","149","366157","0.0-111.0-0.0","52129727","wem/bandit_party_1","A2XFO0X6RCS98M","either","8","252","","","","","","","0","0","1","0.3844983113","","0.6","0.8","0.4","0.2","","","","","0.3889643965","0.3844983113","0.03960880855","0.2362018798","","","","","","","","","","74","J","1","","","70","main_expt",""
"","bandit","150","367701","0.0-112.0-0.0","52129727","wem/bandit_party_1","A2XFO0X6RCS98M","either","8","40","","","","","","","1","0","0","0.3753843975","","0.6","0.8","0.4","0.2","","","","","0.3492343966","0.3753843975","0.02401392238","0.1838323472","","","","","","","","","","74","J","1","","","71","main_expt",""
"","bandit","151","369397","0.0-113.0-0.0","52129727","wem/bandit_party_1","A2XFO0X6RCS98M","either","8","191","","","","","","","1","0","0","0.3861429343","","0.6","0.8","0.4","0.2","","","","","0.3502155883","0.3861429343","0.008756159955","0.1749810972","","","","","","","","","","74","J","1","","","72","main_expt",""
"","bandit","152","371110","0.0-114.0-0.0","52129727","wem/bandit_party_1","A2XFO0X6RCS98M","either","8","207","","","","","","","1","0","0","0.3978436086","","0.6","0.8","0.4","0.2","","","","","0.3568691787","0.3978436086","0.006257651783","0.1664097112","","","","","","","","","","74","J","1","","","73","main_expt",""
"","bandit","153","372615","0.0-115.0-0.0","52129727","wem/bandit_party_1","A2XFO0X6RCS98M","either","8","0","","","","","","","0","0","1","0.3847979518","","0.6","0.8","0.4","0.2","","","","","0.3303653739","0.3847979518","0.004732084297","0.2001176207","","","","","","","","","","74","J","1","","","74","main_expt",""
"","bandit","154","374424","0.0-116.0-0.0","52129727","wem/bandit_party_1","A2XFO0X6RCS98M","either","8","305","","","","","","","0","0","1","0.3974319157","","0.6","0.8","0.4","0.2","","","","","0.3353283381","0.3974319157","0.006967558871","0.1848717924","","","","","","","","","","74","J","1","","","75","main_expt",""
"","bandit","155","376204","0.0-117.0-0.0","52129727","wem/bandit_party_1","A2XFO0X6RCS98M","either","8","274","","","","","","","0","0","1","0.3987985884","","0.6","0.8","0.4","0.2","","","","","0.3009524994","0.3987985884","0.004525860487","0.1510178238","","","","","","","","","","74","J","1","","","76","main_expt",""
"","bandit","156","377973","0.0-118.0-0.0","52129727","wem/bandit_party_1","A2XFO0X6RCS98M","either","8","264","","","","","","","0","0","1","0.4127312768","","0.6","0.8","0.4","0.2","","","","","0.3316028908","0.4127312768","0.007245535115","0.2089633591","","","","","","","","","","74","J","1","","","77","main_expt",""
"","bandit","157","379548","0.0-119.0-0.0","52129727","wem/bandit_party_1","A2XFO0X6RCS98M","either","8","71","","","","","","","0","0","1","","0.00483057751","0.6","0.8","0.4","0.2","0.3571024926","0.4257675477","0.00483057751","0.2285147345","","","","","","","","","","","","","","75","K","2","","","78","main_expt",""
"","bandit","158","381445","0.0-120.0-0.0","52129727","wem/bandit_party_1","A2XFO0X6RCS98M","either","8","392","","","","","","","0","0","1","0.005956317848","","0.6","0.8","0.4","0.2","","","","","0.3542776451","0.4331167668","0.005956317848","0.2246975601","","","","","","","","","","75","K","2","","","79","main_expt",""
"","bandit","159","385173","0.0-121.0-0.0","52129727","wem/bandit_party_1","A2XFO0X6RCS98M","either","8","2223","","","","","","","0","0","1","0.1878766281","","0.6","0.8","0.4","0.2","","","","","0.3201174307","0.4294395537","0.0076590047","0.1878766281","","","","","","","","","","76","L","3","","","80","main_expt",""
"","bandit","160","387773","0.0-122.0-0.0","52129727","wem/bandit_party_1","A2XFO0X6RCS98M","either","8","1095","","","","","","","1","0","0","0.2436254364","","0.6","0.8","0.4","0.2","","","","","0.3503003334","0.4234249918","0.009115568074","0.2436254364","","","","","","","","","","76","L","3","","","81","main_expt",""
"","bandit","161","389703","0.0-123.0-0.0","52129727","wem/bandit_party_1","A2XFO0X6RCS98M","either","8","425","","","","","","","0","0","1","","0.2627531714","0.6","0.8","0.4","0.2","0.3509066846","0.3956977209","0.01382977225","0.2627531714","","","","","","","","","","","","","","76","L","3","","","82","main_expt",""
"","bandit","162","392173","0.0-124.0-0.0","52129727","wem/bandit_party_1","A2XFO0X6RCS98M","either","8","965","","","","","","","0","1","0","","0.2672212524","0.6","0.8","0.4","0.2","0.3951868033","0.4248650233","0.01500629599","0.2672212524","","","","","","","","","","","","","","76","L","3","","","83","main_expt",""
"","bandit","163","394150","0.0-125.0-0.0","52129727","wem/bandit_party_1","A2XFO0X6RCS98M","either","8","471","","","","","","","0","0","1","","0.2817484998","0.6","0.8","0.4","0.2","0.4131477378","0.4196907627","0.02310127573","0.2817484998","","","","","","","","","","","","","","76","L","3","","","84","main_expt",""
"","bandit","164","396263","0.0-126.0-0.0","52129727","wem/bandit_party_1","A2XFO0X6RCS98M","either","8","610","","","","","","","0","0","1","","0.3074775227","0.6","0.8","0.4","0.2","0.3889697292","0.435633498","0.02639065846","0.3074775227","","","","","","","","","","","","","","76","L","3","","","85","main_expt",""
"","bandit","165","398133","0.0-127.0-0.0","52129727","wem/bandit_party_1","A2XFO0X6RCS98M","either","8","365","","","","","","","0","0","1","","0.2717847629","0.6","0.8","0.4","0.2","0.3885636443","0.4322222521","0.01746441632","0.2717847629","","","","","","","","","","","","","","76","L","3","","","86","main_expt",""
"","bandit","166","399820","0.0-128.0-0.0","52129727","wem/bandit_party_1","A2XFO0X6RCS98M","either","8","184","","","","","","","1","0","0","0.4028282504","","0.6","0.8","0.4","0.2","","","","","0.4028282504","0.4476119451","0.01256144444","0.2183858348","","","","","","","","","","72","H","0","img/none_selected.jpg","","87","main_expt",""
"","bandit","167","401717","0.0-129.0-0.0","52129727","wem/bandit_party_1","A2XFO0X6RCS98M","either","8","393","","","","","","","1","0","0","0.4306890759","","0.6","0.8","0.4","0.2","","","","","0.4306890759","0.4073123198","0.01178158386","0.2054961256","","","","","","","","","","72","H","0","img/none_selected.jpg","","88","main_expt",""
"","bandit","168","403724","0.0-130.0-0.0","52129727","wem/bandit_party_1","A2XFO0X6RCS98M","either","8","503","","","","","","","1","0","0","0.4103738654","","0.6","0.8","0.4","0.2","","","","","0.4103738654","0.3862301724","0.008722555822","0.1452714398","","","","","","","","","","72","H","0","img/none_selected.jpg","","89","main_expt",""
"","bandit","169","405638","0.0-131.0-0.0","52129727","wem/bandit_party_1","A2XFO0X6RCS98M","either","8","408","","","","","","","1","0","0","0.3980827974","","0.6","0.8","0.4","0.2","","","","","0.3980827974","0.3596745144","0.008232471735","0.1077779513","","","","","","","","","","72","H","0","img/none_selected.jpg","","90","main_expt",""
"","bandit","170","411655","0.0-132.0-0.0","52129727","wem/bandit_party_1","A2XFO0X6RCS98M","either","8","4513","","","","","","","0","0","1","0.4040531024","","0.6","0.8","0.4","0.2","","","","","0.4040531024","0.3082854458","0.01249180717","0.1308407065","","","","","","","","","","72","H","0","img/none_selected.jpg","","91","main_expt",""
"","bandit","171","413443","0.0-133.0-0.0","52129727","wem/bandit_party_1","A2XFO0X6RCS98M","either","8","284","","","","","","","0","0","1","0.312225492","","0.6","0.8","0.4","0.2","","","","","0.3462944796","0.312225492","0.01470986316","0.1652322036","","","","","","","","","","74","J","1","","","92","main_expt",""
"","bandit","172","415278","0.0-134.0-0.0","52129727","wem/bandit_party_1","A2XFO0X6RCS98M","either","8","328","","","","","","","1","0","0","0.3671658277","","0.6","0.8","0.4","0.2","","","","","0.3411451966","0.3671658277","0.02655281846","0.1344678182","","","","","","","","","","74","J","1","","","93","main_expt",""
"","bandit","173","417363","0.0-135.0-0.0","52129727","wem/bandit_party_1","A2XFO0X6RCS98M","either","8","581","","","","","","","0","0","1","0.3401731108","","0.6","0.8","0.4","0.2","","","","","0.3384154489","0.3401731108","0.02575246025","0.1301314301","","","","","","","","","","74","J","1","","","94","main_expt",""
"","bandit","174","419132","0.0-136.0-0.0","52129727","wem/bandit_party_1","A2XFO0X6RCS98M","either","8","265","","","","","","","0","0","1","0.3413923724","","0.6","0.8","0.4","0.2","","","","","0.3126988266","0.3413923724","0.02262355665","0.1746055711","","","","","","","","","","74","J","1","","","95","main_expt",""
"","bandit","175","420924","0.0-137.0-0.0","52129727","wem/bandit_party_1","A2XFO0X6RCS98M","either","8","288","","","","","","","0","0","1","","0.02047181149","0.6","0.8","0.4","0.2","0.3800019137","0.3570420485","0.02047181149","0.1994244555","","","","","","","","","","","","","","75","K","2","","","96","main_expt",""
"","bandit","176","422599","0.0-138.0-0.0","52129727","wem/bandit_party_1","A2XFO0X6RCS98M","either","8","171","","","","","","","0","0","1","","0.3328121005","0.6","0.8","0.4","0.2","0.3328121005","0.3435474977","0.0207754381","0.1834602947","","","","","","","","","","","","","","72","H","0","img/none_selected.jpg","","97","main_expt",""
"","bandit","177","424308","0.0-139.0-0.0","52129727","wem/bandit_party_1","A2XFO0X6RCS98M","either","8","205","","","","","","","0","0","1","","0.1719221531","0.6","0.8","0.4","0.2","0.332228596","0.3614714926","0.02955834597","0.1719221531","","","","","","","","","","","","","","76","L","3","","","98","main_expt",""
"","bandit","178","425956","0.0-140.0-0.0","52129727","wem/bandit_party_1","A2XFO0X6RCS98M","either","8","142","","","","","","","0","1","0","","0.1183399241","0.6","0.8","0.4","0.2","0.2843854285","0.3176405447","0.0383131093","0.1183399241","","","","","","","","","","","","","","76","L","3","","","99","main_expt",""
"","bandit","179","427773","0.0-141.0-0.0","52129727","wem/bandit_party_1","A2XFO0X6RCS98M","either","8","312","","","","","","","0","0","1","0.1558635017","","0.6","0.8","0.4","0.2","","","","","0.309751149","0.3586553183","0.03580757471","0.1558635017","","","","","","","","","","76","L","3","","","100","main_expt",""
"","bandit","180","429453","0.0-142.0-0.0","52129727","wem/bandit_party_1","A2XFO0X6RCS98M","either","8","175","","","","","","","0","0","1","","0.1389665978","0.6","0.8","0.4","0.2","0.2993195944","0.2951503345","0.04899620691","0.1389665978","","","","","","","","","","","","","","76","L","3","","","101","main_expt",""
"","bandit","181","431507","0.0-143.0-0.0","52129727","wem/bandit_party_1","A2XFO0X6RCS98M","either","8","551","","","","","","","0","0","1","0.1377203561","","0.6","0.8","0.4","0.2","","","","","0.3551890872","0.2998391809","0.08055650644","0.1377203561","","","","","","","","","","76","L","3","","","102","main_expt",""
"","bandit","182","435108","0.0-144.0-0.0","52129727","wem/bandit_party_1","A2XFO0X6RCS98M","either","8","2097","","","","","","","0","0","1","","0.2791823827","0.6","0.8","0.4","0.2","0.3148404956","0.2791823827","0.1040447627","0.1285548106","","","","","","","","","","","","","","74","J","1","","","103","main_expt",""
"","bandit","183","438068","0.0-145.0-0.0","52129727","wem/bandit_party_1","A2XFO0X6RCS98M","either","8","1455","","","","","","","0","0","1","0.3286912191","","0.6","0.8","0.4","0.2","","","","","0.3286912191","0.3382769334","0.1143547335","0.1555523735","","","","","","","","","","72","H","0","img/none_selected.jpg","","104","main_expt",""
"","bandit","184","440203","0.0-146.0-0.0","52129727","wem/bandit_party_1","A2XFO0X6RCS98M","either","8","631","","","","","","","0","0","1","0.298340497","","0.6","0.8","0.4","0.2","","","","","0.298340497","0.3339697125","0.1487676438","0.1775592141","","","","","","","","","","72","H","0","img/none_selected.jpg","","105","main_expt",""
"","bandit","185","442011","0.0-147.0-0.0","52129727","wem/bandit_party_1","A2XFO0X6RCS98M","either","8","304","","","","","","","0","0","1","0.3124129253","","0.6","0.8","0.4","0.2","","","","","0.3504464386","0.3124129253","0.152088545","0.2263451353","","","","","","","","","","74","J","1","","","106","main_expt",""
"","bandit","186","443764","0.0-148.0-0.0","52129727","wem/bandit_party_1","A2XFO0X6RCS98M","either","8","248","","","","","","","0","0","1","0.3400683723","","0.6","0.8","0.4","0.2","","","","","0.3510410077","0.3400683723","0.2406734145","0.1679769802","","","","","","","","","","74","J","1","","","107","main_expt",""
"","bandit","187","445431","0.0-149.0-0.0","52129727","wem/bandit_party_1","A2XFO0X6RCS98M","either","8","162","","","","","","","0","1","0","","0.3048040024","0.6","0.8","0.4","0.2","0.3282766846","0.3557340834","0.3048040024","0.1999870147","","","","","","","","","","","","","","75","K","2","","","108","main_expt",""
"","bandit","188","447381","0.0-150.0-0.0","52129727","wem/bandit_party_1","A2XFO0X6RCS98M","either","8","444","","","","","","","1","0","0","0.3418503096","","0.6","0.8","0.4","0.2","","","","","0.3561186451","0.3846418901","0.3418503096","0.208992856","","","","","","","","","","75","K","2","","","109","main_expt",""
"","bandit","189","449428","0.0-151.0-0.0","52129727","wem/bandit_party_1","A2XFO0X6RCS98M","either","8","543","","","","","","","0","1","0","","0.3198501315","0.6","0.8","0.4","0.2","0.3576445865","0.4057962062","0.3198501315","0.1716040471","","","","","","","","","","","","","","75","K","2","","","110","main_expt",""
"","bandit","190","451101","0.0-152.0-0.0","52129727","wem/bandit_party_1","A2XFO0X6RCS98M","either","8","167","","","","","","","0","0","1","0.3681534847","","0.6","0.8","0.4","0.2","","","","","0.3377543854","0.3692451483","0.3681534847","0.08984071331","","","","","","","","","","75","K","2","","","111","main_expt",""
"","bandit","191","453099","0.0-153.0-0.0","52129727","wem/bandit_party_1","A2XFO0X6RCS98M","either","8","494","","","","","","","0","1","0","","0.3757830796","0.6","0.8","0.4","0.2","0.286234052","0.3577317973","0.3757830796","0.1243463141","","","","","","","","","","","","","","75","K","2","","","112","main_expt",""
"","bandit","192","455083","0.0-154.0-0.0","52129727","wem/bandit_party_1","A2XFO0X6RCS98M","either","8","480","","","","","","","0","1","0","","0.3838999828","0.6","0.8","0.4","0.2","0.1932674395","0.3328808086","0.3838999828","0.1433440675","","","","","","","","","","","","","","75","K","2","","","113","main_expt",""
"","bandit","193","456912","0.0-155.0-0.0","52129727","wem/bandit_party_1","A2XFO0X6RCS98M","either","8","324","","","","","","","0","0","1","0.4157938717","","0.6","0.8","0.4","0.2","","","","","0.2403040534","0.3416979579","0.4157938717","0.1510662198","","","","","","","","","","75","K","2","","","114","main_expt",""
"","bandit","194","458660","0.0-156.0-0.0","52129727","wem/bandit_party_1","A2XFO0X6RCS98M","either","8","243","","","","","","","1","0","0","0.4055870595","","0.6","0.8","0.4","0.2","","","","","0.254937398","0.3377137281","0.4055870595","0.09845245139","","","","","","","","","","75","K","2","","","115","main_expt",""
"","bandit","195","460547","0.0-157.0-0.0","52129727","wem/bandit_party_1","A2XFO0X6RCS98M","either","8","383","","","","","","","0","1","0","","0.4161015278","0.6","0.8","0.4","0.2","0.2605063941","0.3039448029","0.4161015278","0.107393795","","","","","","","","","","","","","","75","K","2","","","116","main_expt",""
"","bandit","196","462420","0.0-158.0-0.0","52129727","wem/bandit_party_1","A2XFO0X6RCS98M","either","8","368","","","","","","","0","1","0","","0.414877819","0.6","0.8","0.4","0.2","0.2161328783","0.2974336912","0.414877819","0.07879800556","","","","","","","","","","","","","","75","K","2","","","117","main_expt",""
"","bandit","197","464171","0.0-159.0-0.0","52129727","wem/bandit_party_1","A2XFO0X6RCS98M","either","8","246","","","","","","","0","1","0","","0.3968259953","0.6","0.8","0.4","0.2","0.1931197841","0.2651867246","0.3968259953","0.08383735875","","","","","","","","","","","","","","75","K","2","","","118","main_expt",""
"","bandit","198","466212","0.0-160.0-0.0","52129727","wem/bandit_party_1","A2XFO0X6RCS98M","either","8","537","","","","","","","1","0","0","0.4198241006","","0.6","0.8","0.4","0.2","","","","","0.1638183597","0.3131666206","0.4198241006","0.1392474383","","","","","","","","","","75","K","2","","","119","main_expt",""
"","bandit","199","468032","0.0-161.0-0.0","52129727","wem/bandit_party_1","A2XFO0X6RCS98M","either","8","315","","","","","","","1","0","0","0.4286088018","","0.6","0.8","0.4","0.2","","","","","0.1893282748","0.358829095","0.4286088018","0.1649404926","","","","","","","","","","75","K","2","","","120","main_expt",""
"","bandit","200","469804","0.0-162.0-0.0","52129727","wem/bandit_party_1","A2XFO0X6RCS98M","either","8","268","","","","","","","1","0","0","0.4253829576","","0.6","0.8","0.4","0.2","","","","","0.2290368179","0.3189860171","0.4253829576","0.1764152442","","","","","","","","","","75","K","2","","","121","main_expt",""
"","bandit","201","471675","0.0-163.0-0.0","52129727","wem/bandit_party_1","A2XFO0X6RCS98M","either","8","367","","","","","","","0","0","1","0.4235175979","","0.6","0.8","0.4","0.2","","","","","0.2445441383","0.3011672979","0.4235175979","0.2092397698","","","","","","","","","","75","K","2","","","122","main_expt",""
"","bandit","202","473572","0.0-164.0-0.0","52129727","wem/bandit_party_1","A2XFO0X6RCS98M","either","8","392","","","","","","","0","0","1","0.4182090072","","0.6","0.8","0.4","0.2","","","","","0.2091075756","0.3037948063","0.4182090072","0.1884058447","","","","","","","","","","75","K","2","","","123","main_expt",""
"","bandit","203","475331","0.0-165.0-0.0","52129727","wem/bandit_party_1","A2XFO0X6RCS98M","either","8","254","","","","","","","0","0","1","","0.1876417206","0.6","0.8","0.4","0.2","0.2216111921","0.2446200253","0.4356016004","0.1876417206","","","","","","","","","","","","","","76","L","3","","","124","main_expt",""
"","bandit","204","477388","0.0-166.0-0.0","52129727","wem/bandit_party_1","A2XFO0X6RCS98M","either","8","553","","","","","","","0","0","1","","0.2464628806","0.6","0.8","0.4","0.2","0.1622020501","0.2464628806","0.403953628","0.1890564589","","","","","","","","","","","","","","74","J","1","","","125","main_expt",""
"","bandit","205","479208","0.0-167.0-0.0","52129727","wem/bandit_party_1","A2XFO0X6RCS98M","either","8","314","","","","","","","0","1","0","","0.4020675328","0.6","0.8","0.4","0.2","0.173533554","0.281169445","0.4020675328","0.1659850756","","","","","","","","","","","","","","75","K","2","","","126","main_expt",""
"","bandit","206","481003","0.0-168.0-0.0","52129727","wem/bandit_party_1","A2XFO0X6RCS98M","either","8","291","","","","","","","0","0","1","","0.338443572","0.6","0.8","0.4","0.2","0.189829559","0.290080064","0.338443572","0.2006343121","","","","","","","","","","","","","","75","K","2","","","127","main_expt",""
"","bandit","207","482867","0.0-169.0-0.0","52129727","wem/bandit_party_1","A2XFO0X6RCS98M","either","8","360","","","","","","","0","0","1","0.323123489","","0.6","0.8","0.4","0.2","","","","","0.1764696366","0.3280989756","0.323123489","0.2637444583","","","","","","","","","","75","K","2","","","128","main_expt",""
"","bandit","208","484531","0.0-170.0-0.0","52129727","wem/bandit_party_1","A2XFO0X6RCS98M","either","8","160","","","","","","","1","0","0","0.172709194","","0.6","0.8","0.4","0.2","","","","","0.172709194","0.3052704822","0.3615310162","0.2783394686","","","","","","","","","","72","H","0","img/none_selected.jpg","","129","main_expt",""
"","bandit","209","486309","0.0-171.0-0.0","52129727","wem/bandit_party_1","A2XFO0X6RCS98M","either","8","272","","","","","","","0","0","1","0.1407460215","","0.6","0.8","0.4","0.2","","","","","0.1407460215","0.314718742","0.3667448715","0.2674474002","","","","","","","","","","72","H","0","img/none_selected.jpg","","130","main_expt",""
"","bandit","210","488043","0.0-172.0-0.0","52129727","wem/bandit_party_1","A2XFO0X6RCS98M","either","8","231","","","","","","","0","0","1","0.143826562","","0.6","0.8","0.4","0.2","","","","","0.143826562","0.2492347367","0.341745941","0.2122920843","","","","","","","","","","72","H","0","img/none_selected.jpg","","131","main_expt",""
"","bandit","211","490176","0.0-173.0-0.0","52129727","wem/bandit_party_1","A2XFO0X6RCS98M","either","8","627","","","","","","","0","0","1","","0.1862992663","0.6","0.8","0.4","0.2","0.1862992663","0.2495736985","0.2615325727","0.1969346152","","","","","","","","","","","","","","72","H","0","img/none_selected.jpg","","132","main_expt",""
"","bandit","212","491742","0.0-174.0-0.0","52129727","wem/bandit_party_1","A2XFO0X6RCS98M","either","8","59","","","","","","","1","0","0","0.2487120015","","0.6","0.8","0.4","0.2","","","","","0.185648564","0.2487120015","0.27905624","0.1390835973","","","","","","","","","","74","J","1","","","133","main_expt",""
"","bandit","213","493491","0.0-175.0-0.0","52129727","wem/bandit_party_1","A2XFO0X6RCS98M","either","8","244","","","","","","","0","0","1","","0.3239420422","0.6","0.8","0.4","0.2","0.2002276213","0.3239420422","0.2751163123","0.1437640715","","","","","","","","","","","","","","74","J","1","","","134","main_expt",""
"","bandit","214","495036","0.0-176.0-0.0","52129727","wem/bandit_party_1","A2XFO0X6RCS98M","either","8","40","","","","","","","0","0","1","0.3903525049","","0.6","0.8","0.4","0.2","","","","","0.2474552851","0.3903525049","0.2586507773","0.1175999949","","","","","","","","","","74","J","1","","","135","main_expt",""
"","bandit","215","496668","0.0-177.0-0.0","52129727","wem/bandit_party_1","A2XFO0X6RCS98M","either","8","127","","","","","","","0","0","1","0.3703049055","","0.6","0.8","0.4","0.2","","","","","0.2454982057","0.3703049055","0.2385277364","0.1108499649","","","","","","","","","","74","J","1","","","136","main_expt",""
"","bandit","216","498660","0.0-178.0-0.0","52129727","wem/bandit_party_1","A2XFO0X6RCS98M","either","8","488","","","","","","","0","0","1","0.1935782534","","0.6","0.8","0.4","0.2","","","","","0.2708690816","0.3657944308","0.1935782534","0.1208727618","","","","","","","","","","75","K","2","","","137","main_expt",""
"","bandit","217","500166","0.0-179.0-0.0","52129727","wem/bandit_party_1","A2XFO0X6RCS98M","either","8","0","","","","","","","0","0","1","","0.1098805161","0.6","0.8","0.4","0.2","0.2219039101","0.3452946514","0.14087624","0.1098805161","","","","","","","","","","","","","","76","L","3","","","138","main_expt",""
"","bandit","218","502044","0.0-180.0-0.0","52129727","wem/bandit_party_1","A2XFO0X6RCS98M","either","8","373","","","","","","","0","0","1","0.1359731218","","0.6","0.8","0.4","0.2","","","","","0.2485571535","0.3225052804","0.1340930794","0.1359731218","","","","","","","","","","76","L","3","","","139","main_expt",""
"","bandit","219","503867","0.0-181.0-0.0","52129727","wem/bandit_party_1","A2XFO0X6RCS98M","either","8","319","","","","","","","0","1","0","","0.2605640439","0.6","0.8","0.4","0.2","0.2605640439","0.2997250911","0.1170750994","0.1419248406","","","","","","","","","","","","","","72","H","0","img/none_selected.jpg","","140","main_expt",""
"","bandit","220","505580","0.0-182.0-0.0","52129727","wem/bandit_party_1","A2XFO0X6RCS98M","either","8","208","","","","","","","0","0","1","","0.2260680923","0.6","0.8","0.4","0.2","0.2260680923","0.311933389","0.1316830279","0.1269577117","","","","","","","","","","","","","","72","H","0","img/none_selected.jpg","","141","main_expt",""
"","bandit","221","507403","0.0-183.0-0.0","52129727","wem/bandit_party_1","A2XFO0X6RCS98M","either","8","318","","","","","","","0","0","1","0.2354846983","","0.6","0.8","0.4","0.2","","","","","0.2354846983","0.3442568425","0.09490366034","0.1073819056","","","","","","","","","","72","H","0","img/none_selected.jpg","","142","main_expt",""
"","bandit","222","509315","0.0-184.0-0.0","52129727","wem/bandit_party_1","A2XFO0X6RCS98M","either","8","407","","","","","","","0","0","1","","0.3117203045","0.6","0.8","0.4","0.2","0.2089358464","0.3117203045","0.1246024154","0.1152767294","","","","","","","","","","","","","","74","J","1","","","143","main_expt",""
"","bandit","223","511459","0.0-185.0-0.0","52129727","wem/bandit_party_1","A2XFO0X6RCS98M","either","8","639","","","","","","","0","0","1","","0.3080771123","0.6","0.8","0.4","0.2","0.1844607625","0.3080771123","0.1179874238","0.1317444946","","","","","","","","","","","","","","74","J","1","","","144","main_expt",""
"","bandit","224","513332","0.0-186.0-0.0","52129727","wem/bandit_party_1","A2XFO0X6RCS98M","either","8","368","","","","","","","0","0","1","0.1211842963","","0.6","0.8","0.4","0.2","","","","","0.1940384654","0.3146876691","0.1211842963","0.1058600218","","","","","","","","","","75","K","2","","","145","main_expt",""
"","bandit","225","515348","0.0-187.0-0.0","52129727","wem/bandit_party_1","A2XFO0X6RCS98M","either","8","511","","","","","","","0","0","1","0.06212451067","","0.6","0.8","0.4","0.2","","","","","0.2532022814","0.3526806189","0.06212451067","0.1862633901","","","","","","","","","","75","K","2","","","146","main_expt",""
"","bandit","226","517363","0.0-188.0-0.0","52129727","wem/bandit_party_1","A2XFO0X6RCS98M","either","8","512","","","","","","","1","0","0","0.272856749","","0.6","0.8","0.4","0.2","","","","","0.272856749","0.3859334927","0.05826033827","0.1944793183","","","","","","","","","","72","H","0","img/none_selected.jpg","","147","main_expt",""
"","bandit","227","518948","0.0-189.0-0.0","52129727","wem/bandit_party_1","A2XFO0X6RCS98M","either","8","80","","","","","","","0","0","1","","0.2441255329","0.6","0.8","0.4","0.2","0.2441255329","0.4089873985","0.04847575149","0.1572605535","","","","","","","","","","","","","","72","H","0","img/none_selected.jpg","","148","main_expt",""
"","bandit","228","521663","0.0-190.0-0.0","52129727","wem/bandit_party_1","A2XFO0X6RCS98M","either","8","1211","","","","","","","0","0","1","0.2304797635","","0.6","0.8","0.4","0.2","","","","","0.2304797635","0.3317076441","0.07397138717","0.1632070519","","","","","","","","","","72","H","0","img/none_selected.jpg","","149","main_expt",""
"","bandit","229","524116","0.0-191.0-0.0","52129727","wem/bandit_party_1","A2XFO0X6RCS98M","either","8","947","","","","","","","1","0","0","0.2645424191","","0.6","0.8","0.4","0.2","","","","","0.2645424191","0.2514439341","0.1178437277","0.2162169298","","","","","","","","","","72","H","0","img/none_selected.jpg","","150","main_expt",""
"","bandit","230","526508","0.0-192.0-0.0","52129727","wem/bandit_party_1","A2XFO0X6RCS98M","either","8","887","","","","","","","1","0","0","0.2209696772","","0.6","0.8","0.4","0.2","","","","","0.2919476008","0.2209696772","0.1116740648","0.2806681102","","","","","","","","","","74","J","1","","","151","main_expt",""
"","bandit","231","528356","0.0-193.0-0.0","52129727","wem/bandit_party_1","A2XFO0X6RCS98M","either","8","342","","","","","","","0","0","1","0.2004300668","","0.6","0.8","0.4","0.2","","","","","0.3004198658","0.2004300668","0.09681320826","0.25223767","","","","","","","","","","74","J","1","","","152","main_expt",""
"","bandit","232","530380","0.0-194.0-0.0","52129727","wem/bandit_party_1","A2XFO0X6RCS98M","either","8","518","","","","","","","0","0","1","0.1803159607","","0.6","0.8","0.4","0.2","","","","","0.2910243242","0.1803159607","0.1162344283","0.2259503681","","","","","","","","","","74","J","1","","","153","main_expt",""
"","bandit","233","533160","0.0-195.0-0.0","52129727","wem/bandit_party_1","A2XFO0X6RCS98M","either","8","1275","","","","","","","0","1","0","","0.2858680692","0.6","0.8","0.4","0.2","0.2858680692","0.1793353988","0.1441765144","0.2520515582","","","","","","","","","","","","","","72","H","0","img/none_selected.jpg","","154","main_expt",""
"","bandit","234","534764","0.0-196.0-0.0","52129727","wem/bandit_party_1","A2XFO0X6RCS98M","either","8","99","","","","","","","0","0","1","0.276906037","","0.6","0.8","0.4","0.2","","","","","0.276906037","0.175125938","0.1506434262","0.246895917","","","","","","","","","","72","H","0","img/none_selected.jpg","","155","main_expt",""
"","bandit","235","540892","0.0-197.0-0.0","52129727","wem/bandit_party_1","A2XFO0X6RCS98M","either","8","4622","","","","","","","0","0","1","0.3087514371","","0.6","0.8","0.4","0.2","","","","","0.3087514371","0.19004546","0.1691825384","0.2067462234","","","","","","","","","","72","H","0","img/none_selected.jpg","","156","main_expt",""
"","bandit","236","542668","0.0-198.0-0.0","52129727","wem/bandit_party_1","A2XFO0X6RCS98M","either","8","271","","","","","","","0","0","1","","0.3400763937","0.6","0.8","0.4","0.2","0.3400763937","0.1538528063","0.1465267651","0.1736677602","","","","","","","","","","","","","","72","H","0","img/none_selected.jpg","","157","main_expt",""
"","bandit","237","544652","0.0-199.0-0.0","52129727","wem/bandit_party_1","A2XFO0X6RCS98M","either","8","478","","","","","","","0","0","1","","0.3388441277","0.6","0.8","0.4","0.2","0.3388441277","0.1624419901","0.1517260174","0.2437422656","","","","","","","","","","","","","","72","H","0","img/none_selected.jpg","","158","main_expt",""
"","bandit","238","546508","0.0-200.0-0.0","52129727","wem/bandit_party_1","A2XFO0X6RCS98M","either","8","350","","","","","","","1","0","0","0.1749682205","","0.6","0.8","0.4","0.2","","","","","0.3496437485","0.1749682205","0.143579764","0.2627628197","","","","","","","","","","74","J","1","","","159","main_expt",""
"","bandit","239","548172","0.0-201.0-0.0","52129727","wem/bandit_party_1","A2XFO0X6RCS98M","either","8","159","","","","","","","0","0","1","0.2227833177","","0.6","0.8","0.4","0.2","","","","","0.3347491532","0.2227833177","0.1701049762","0.2532756584","","","","","","","","","","74","J","1","","","160","main_expt",""
"","bandit","240","550923","0.0-202.0-0.0","52129727","wem/bandit_party_1","A2XFO0X6RCS98M","either","8","1246","","","","","","","0","0","1","","0.1616195486","0.6","0.8","0.4","0.2","0.3036625801","0.1616195486","0.1596038406","0.2846030245","","","","","","","","","","","","","","74","J","1","","","161","main_expt",""
"","bandit","241","553603","0.0-203.0-0.0","52129727","wem/bandit_party_1","A2XFO0X6RCS98M","either","8","1176","","","","","","","0","0","1","","0.1186271452","0.6","0.8","0.4","0.2","0.2735804545","0.1440802068","0.1186271452","0.2480450928","","","","","","","","","","","","","","75","K","2","","","162","main_expt",""
"","bandit","242","555496","0.0-204.0-0.0","52129727","wem/bandit_party_1","A2XFO0X6RCS98M","either","8","388","","","","","","","0","1","0","","0.1460830151","0.6","0.8","0.4","0.2","0.2219233964","0.1349250059","0.1460830151","0.3217860246","","","","","","","","","","","","","","75","K","2","","","163","main_expt",""
"","bandit","243","558045","0.0-205.0-0.0","52129727","wem/bandit_party_1","A2XFO0X6RCS98M","either","8","1041","","","","","","","0","0","1","0.1924179555","","0.6","0.8","0.4","0.2","","","","","0.2489701673","0.1482528248","0.1924179555","0.3528623486","","","","","","","","","","75","K","2","","","164","main_expt",""
"","bandit","244","559997","0.0-206.0-0.0","52129727","wem/bandit_party_1","A2XFO0X6RCS98M","either","8","446","","","","","","","0","0","1","","0.1909643941","0.6","0.8","0.4","0.2","0.2424219606","0.1444116863","0.1909643941","0.3113737792","","","","","","","","","","","","","","75","K","2","","","165","main_expt",""
"","bandit","245","561900","0.0-207.0-0.0","52129727","wem/bandit_party_1","A2XFO0X6RCS98M","either","8","397","","","","","","","0","0","1","0.1621449425","","0.6","0.8","0.4","0.2","","","","","0.1899742571","0.1621449425","0.1917506842","0.2820045276","","","","","","","","","","74","J","1","","","166","main_expt",""
"","bandit","246","564486","0.0-208.0-0.0","52129727","wem/bandit_party_1","A2XFO0X6RCS98M","either","8","1079","","","","","","","0","0","1","0.1695256229","","0.6","0.8","0.4","0.2","","","","","0.2298880826","0.1695256229","0.2238056512","0.2539690707","","","","","","","","","","74","J","1","","","167","main_expt",""
"","bandit","247","566039","0.0-209.0-0.0","52129727","wem/bandit_party_1","A2XFO0X6RCS98M","either","8","49","","","","","","","1","0","0","0.241220494","","0.6","0.8","0.4","0.2","","","","","0.241220494","0.1712445676","0.2132240521","0.2177565821","","","","","","","","","","72","H","0","img/none_selected.jpg","","168","main_expt",""
"","bandit","248","567972","0.0-210.0-0.0","52129727","wem/bandit_party_1","A2XFO0X6RCS98M","either","8","429","","","","","","","0","0","1","0.2113351254","","0.6","0.8","0.4","0.2","","","","","0.2113351254","0.191079104","0.1363713625","0.183214586","","","","","","","","","","72","H","0","img/none_selected.jpg","","169","main_expt",""
"","bandit","249","569541","0.0-211.0-0.0","52129727","wem/bandit_party_1","A2XFO0X6RCS98M","either","8","64","","","","","","","0","0","1","0.2224744884","","0.6","0.8","0.4","0.2","","","","","0.2224744884","0.2227666825","0.2007690262","0.1757282231","","","","","","","","","","72","H","0","img/none_selected.jpg","","170","main_expt",""
"","bandit","250","573045","0.0-212.0-0.0","52129727","wem/bandit_party_1","A2XFO0X6RCS98M","either","8","1998","","","","","","","0","0","1","","0.262177911","0.6","0.8","0.4","0.2","0.262177911","0.2719914804","0.1238998316","0.1679331046","","","","","","","","","","","","","","72","H","0","img/none_selected.jpg","","171","main_expt",""
"","bandit","251","576719","0.0-213.0-0.0","52129727","wem/bandit_party_1","A2XFO0X6RCS98M","either","8","2171","","","","","","","0","1","0","","0.2822992514","0.6","0.8","0.4","0.2","0.2822992514","0.2330128459","0.09746419185","0.14560319","","","","","","","","","","","","","","72","H","0","img/none_selected.jpg","","172","main_expt",""
"","bandit","252","578916","0.0-214.0-0.0","52129727","wem/bandit_party_1","A2XFO0X6RCS98M","either","8","691","","","","","","","0","0","1","0.2545762091","","0.6","0.8","0.4","0.2","","","","","0.2545762091","0.2840251313","0.1018164217","0.1341549344","","","","","","","","","","72","H","0","img/none_selected.jpg","","173","main_expt",""
"","bandit","253","580780","0.0-215.0-0.0","52129727","wem/bandit_party_1","A2XFO0X6RCS98M","either","8","359","","","","","","","0","0","1","0.2838184637","","0.6","0.8","0.4","0.2","","","","","0.2838184637","0.2739042306","0.1401689619","0.1471305278","","","","","","","","","","72","H","0","img/none_selected.jpg","","174","main_expt",""
"","bandit","254","582428","0.0-216.0-0.0","52129727","wem/bandit_party_1","A2XFO0X6RCS98M","either","8","140","","","","","","","0","0","1","","0.3444735506","0.6","0.8","0.4","0.2","0.3002790513","0.3444735506","0.1697524679","0.173963405","","","","","","","","","","","","","","74","J","1","","","175","main_expt",""
"","bandit","255","584276","0.0-217.0-0.0","52129727","wem/bandit_party_1","A2XFO0X6RCS98M","either","8","341","","","","","","","0","0","1","","0.1896898672","0.6","0.8","0.4","0.2","0.3771690292","0.3223017316","0.1896898672","0.1821857965","","","","","","","","","","","","","","75","K","2","","","176","main_expt",""
"","bandit","256","585875","0.0-218.0-0.0","52129727","wem/bandit_party_1","A2XFO0X6RCS98M","either","8","94","","","","","","","0","0","1","","0.1444884472","0.6","0.8","0.4","0.2","0.4047809956","0.2964924158","0.2441254625","0.1444884472","","","","","","","","","","","","","","76","L","3","","","177","main_expt",""
"","bandit","257","587743","0.0-219.0-0.0","52129727","wem/bandit_party_1","A2XFO0X6RCS98M","either","8","362","","","","","","","0","0","1","","0.1207783293","0.6","0.8","0.4","0.2","0.4344960837","0.2780576925","0.2427722412","0.1207783293","","","","","","","","","","","","","","76","L","3","","","178","main_expt",""
"","bandit","258","589580","0.0-220.0-0.0","52129727","wem/bandit_party_1","A2XFO0X6RCS98M","either","8","330","","","","","","","0","0","1","0.2284650367","","0.6","0.8","0.4","0.2","","","","","0.4287912686","0.2859751729","0.2284650367","0.111585665","","","","","","","","","","75","K","2","","","179","main_expt",""
"","bandit","259","591388","0.0-221.0-0.0","52129727","wem/bandit_party_1","A2XFO0X6RCS98M","either","8","303","","","","","","","0","0","1","0.4294180747","","0.6","0.8","0.4","0.2","","","","","0.4294180747","0.283533164","0.2694081366","0.06891525065","","","","","","","","","","72","H","0","img/none_selected.jpg","","180","main_expt",""
"","bandit","260","593635","0.0-222.0-0.0","52129727","wem/bandit_party_1","A2XFO0X6RCS98M","either","8","742","","","","","","","0","0","1","","0.2430023428","0.6","0.8","0.4","0.2","0.3887332701","0.2430023428","0.2471628034","0.07407739619","","","","","","","","","","","","","","74","J","1","","","181","main_expt",""
"","bandit","261","595588","0.0-223.0-0.0","52129727","wem/bandit_party_1","A2XFO0X6RCS98M","either","8","448","","","","","","","0","0","1","0.3910635387","","0.6","0.8","0.4","0.2","","","","","0.3910635387","0.223254837","0.275372354","0.07501704201","","","","","","","","","","72","H","0","img/none_selected.jpg","","182","main_expt",""
"","bandit","262","598304","0.0-224.0-0.0","52129727","wem/bandit_party_1","A2XFO0X6RCS98M","either","8","1211","","","","","","","0","0","1","0.3957792538","","0.6","0.8","0.4","0.2","","","","","0.3957792538","0.2274286797","0.2378950907","0.09354103142","","","","","","","","","","72","H","0","img/none_selected.jpg","","183","main_expt",""
"","bandit","263","600421","0.0-225.0-0.0","52129727","wem/bandit_party_1","A2XFO0X6RCS98M","either","8","611","","","","","","","1","0","0","0.3777829694","","0.6","0.8","0.4","0.2","","","","","0.3777829694","0.2485964068","0.2611999536","0.06673830493","","","","","","","","","","72","H","0","img/none_selected.jpg","","184","main_expt",""
"","bandit","264","602483","0.0-226.0-0.0","52129727","wem/bandit_party_1","A2XFO0X6RCS98M","either","8","556","","","","","","","0","0","1","0.4130939835","","0.6","0.8","0.4","0.2","","","","","0.4130939835","0.2080173303","0.2799245071","0.08617836821","","","","","","","","","","72","H","0","img/none_selected.jpg","","185","main_expt",""
"","bandit","265","604341","0.0-227.0-0.0","52129727","wem/bandit_party_1","A2XFO0X6RCS98M","either","8","351","","","","","","","1","0","0","0.376930599","","0.6","0.8","0.4","0.2","","","","","0.376930599","0.2538883687","0.2275386122","0.05054014018","","","","","","","","","","72","H","0","img/none_selected.jpg","","186","main_expt",""
"","bandit","266","606187","0.0-228.0-0.0","52129727","wem/bandit_party_1","A2XFO0X6RCS98M","either","8","341","","","","","","","0","0","1","","0.3934592684","0.6","0.8","0.4","0.2","0.3934592684","0.2267652077","0.2558518805","0.1101456656","","","","","","","","","","","","","","72","H","0","img/none_selected.jpg","","187","main_expt",""
"","bandit","267","608148","0.0-229.0-0.0","52129727","wem/bandit_party_1","A2XFO0X6RCS98M","either","8","455","","","","","","","0","0","1","","0.4086060551","0.6","0.8","0.4","0.2","0.4086060551","0.2583789709","0.2757393749","0.1076418148","","","","","","","","","","","","","","72","H","0","img/none_selected.jpg","","188","main_expt",""
"","bandit","268","610137","0.0-230.0-0.0","52129727","wem/bandit_party_1","A2XFO0X6RCS98M","either","8","481","","","","","","","0","0","1","0.447145564","","0.6","0.8","0.4","0.2","","","","","0.447145564","0.2329768584","0.3326758055","0.1230456027","","","","","","","","","","72","H","0","img/none_selected.jpg","","189","main_expt",""
"","bandit","269","611707","0.0-231.0-0.0","52129727","wem/bandit_party_1","A2XFO0X6RCS98M","either","8","66","","","","","","","0","0","1","","0.386091063","0.6","0.8","0.4","0.2","0.386091063","0.2002510669","0.332927569","0.1872873117","","","","","","","","","","","","","","72","H","0","img/none_selected.jpg","","190","main_expt",""
"","bandit","270","613915","0.0-232.0-0.0","52129727","wem/bandit_party_1","A2XFO0X6RCS98M","either","8","704","","","","","","","0","0","1","0.2182600554","","0.6","0.8","0.4","0.2","","","","","0.4221145333","0.2182600554","0.3859199101","0.1413073252","","","","","","","","","","74","J","1","","","191","main_expt",""
"","bandit","271","615716","0.0-233.0-0.0","52129727","wem/bandit_party_1","A2XFO0X6RCS98M","either","8","296","","","","","","","1","0","0","0.2681613901","","0.6","0.8","0.4","0.2","","","","","0.3913199708","0.2681613901","0.392668484","0.1868627967","","","","","","","","","","74","J","1","","","192","main_expt",""
"","bandit","272","618364","0.0-234.0-0.0","52129727","wem/bandit_party_1","A2XFO0X6RCS98M","either","8","1141","","","","","","","0","0","1","0.3035027483","","0.6","0.8","0.4","0.2","","","","","0.4013624592","0.3035027483","0.3789843676","0.2312719224","","","","","","","","","","74","J","1","","","193","main_expt",""
"","bandit","273","620116","0.0-235.0-0.0","52129727","wem/bandit_party_1","A2XFO0X6RCS98M","either","8","247","","","","","","","0","0","1","0.275531754","","0.6","0.8","0.4","0.2","","","","","0.3668237699","0.275531754","0.3689216281","0.2585201677","","","","","","","","","","74","J","1","","","194","main_expt",""
"","bandit","274","621759","0.0-236.0-0.0","52129727","wem/bandit_party_1","A2XFO0X6RCS98M","either","8","137","","","","","","","0","0","1","0.2716401532","","0.6","0.8","0.4","0.2","","","","","0.3856266791","0.2716401532","0.4136905162","0.2786104129","","","","","","","","","","74","J","1","","","195","main_expt",""
"","bandit","275","623437","0.0-237.0-0.0","52129727","wem/bandit_party_1","A2XFO0X6RCS98M","either","8","172","","","","","","","0","0","1","0.4258575101","","0.6","0.8","0.4","0.2","","","","","0.3702439493","0.2814611543","0.4258575101","0.2407834285","","","","","","","","","","75","K","2","","","196","main_expt",""
"","bandit","276","625163","0.0-238.0-0.0","52129727","wem/bandit_party_1","A2XFO0X6RCS98M","either","8","222","","","","","","","0","0","1","0.2550568011","","0.6","0.8","0.4","0.2","","","","","0.3665926528","0.2588010394","0.3976178043","0.2550568011","","","","","","","","","","76","L","3","","","197","main_expt",""
"","bandit","277","626684","0.0-239.0-0.0","52129727","wem/bandit_party_1","A2XFO0X6RCS98M","either","8","15","","","","","","","1","0","0","0.3432124584","","0.6","0.8","0.4","0.2","","","","","0.3432124584","0.3094610495","0.3802378075","0.3094863904","","","","","","","","","","72","H","0","img/none_selected.jpg","","198","main_expt",""
"","bandit","278","628285","0.0-240.0-0.0","52129727","wem/bandit_party_1","A2XFO0X6RCS98M","either","8","93","","","","","","","0","0","1","0.4096574544","","0.6","0.8","0.4","0.2","","","","","0.4096574544","0.3139278769","0.3926800246","0.3012985694","","","","","","","","","","72","H","0","img/none_selected.jpg","","199","main_expt",""
"","bandit","279","630547","0.0-241.0-0.0","52129727","wem/bandit_party_1","A2XFO0X6RCS98M","either","8","757","","","","","","","0","0","1","0.3799023259","","0.6","0.8","0.4","0.2","","","","","0.3799023259","0.3459706187","0.3814844917","0.3149132519","","","","","","","","","","72","H","0","img/none_selected.jpg","","200","main_expt",""
"","bandit","280","632400","0.0-242.0-0.0","52129727","wem/bandit_party_1","A2XFO0X6RCS98M","either","8","348","","","","","","","0","0","1","","0.3038365479","0.6","0.8","0.4","0.2","0.3513783521","0.3038365479","0.3831630738","0.3236307962","","","","","","","","","","","","","","74","J","1","","","201","main_expt",""
"","bandit","281","634460","0.0-243.0-0.0","52129727","wem/bandit_party_1","A2XFO0X6RCS98M","either","8","554","","","","","","","0","0","1","","0.3957430938","0.6","0.8","0.4","0.2","0.3439351057","0.2964599608","0.3957430938","0.3163717903","","","","","","","","","","","","","","75","K","2","","","202","main_expt",""
"","bandit","282","636100","0.0-244.0-0.0","52129727","wem/bandit_party_1","A2XFO0X6RCS98M","either","8","133","","","","","","","0","0","1","","0.3165936227","0.6","0.8","0.4","0.2","0.2615327891","0.280336616","0.4175506619","0.3165936227","","","","","","","","","","","","","","76","L","3","","","203","main_expt",""
"","bandit","283","638020","0.0-245.0-0.0","52129727","wem/bandit_party_1","A2XFO0X6RCS98M","either","8","414","","","","","","","0","0","1","","0.2211517471","0.6","0.8","0.4","0.2","0.2211517471","0.262900641","0.4356800279","0.3166231072","","","","","","","","","","","","","","72","H","0","img/none_selected.jpg","","204","main_expt",""
"","bandit","284","640204","0.0-246.0-0.0","52129727","wem/bandit_party_1","A2XFO0X6RCS98M","either","8","678","","","","","","","0","0","1","0.1955747294","","0.6","0.8","0.4","0.2","","","","","0.1955747294","0.3403150927","0.4342993254","0.2983153058","","","","","","","","","","72","H","0","img/none_selected.jpg","","205","main_expt",""
"","bandit","285","642060","0.0-247.0-0.0","52129727","wem/bandit_party_1","A2XFO0X6RCS98M","either","8","350","","","","","","","0","0","1","0.3407188883","","0.6","0.8","0.4","0.2","","","","","0.3137251184","0.3407188883","0.4515967499","0.255573156","","","","","","","","","","74","J","1","","","206","main_expt",""
"","bandit","286","643908","0.0-248.0-0.0","52129727","wem/bandit_party_1","A2XFO0X6RCS98M","either","8","342","","","","","","","0","0","1","0.2982459604","","0.6","0.8","0.4","0.2","","","","","0.2982459604","0.2955601217","0.4559700358","0.2816724171","","","","","","","","","","72","H","0","img/none_selected.jpg","","207","main_expt",""
"","bandit","287","645875","0.0-249.0-0.0","52129727","wem/bandit_party_1","A2XFO0X6RCS98M","either","8","462","","","","","","","1","0","0","0.4711787588","","0.6","0.8","0.4","0.2","","","","","0.2359404152","0.2832193826","0.4711787588","0.2462622089","","","","","","","","","","75","K","2","","","208","main_expt",""
"","bandit","288","647835","0.0-250.0-0.0","52129727","wem/bandit_party_1","A2XFO0X6RCS98M","either","8","454","","","","","","","0","0","1","","0.4859779177","0.6","0.8","0.4","0.2","0.2396635106","0.25637755","0.4859779177","0.2608633631","","","","","","","","","","","","","","75","K","2","","","209","main_expt",""
"","bandit","289","649772","0.0-251.0-0.0","52129727","wem/bandit_party_1","A2XFO0X6RCS98M","either","8","431","","","","","","","1","0","0","0.4798195452","","0.6","0.8","0.4","0.2","","","","","0.2320506775","0.2500912527","0.4798195452","0.2649708152","","","","","","","","","","75","K","2","","","210","main_expt",""
"","bandit","290","651965","0.0-252.0-0.0","52129727","wem/bandit_party_1","A2XFO0X6RCS98M","either","8","687","","","","","","","0","1","0","","0.4754072522","0.6","0.8","0.4","0.2","0.1894847828","0.2481129288","0.4754072522","0.2658594566","","","","","","","","","","","","","","75","K","2","","","211","main_expt",""
"","bandit","291","654127","0.0-253.0-0.0","52129727","wem/bandit_party_1","A2XFO0X6RCS98M","either","8","658","","","","","","","1","0","0","0.4780703898","","0.6","0.8","0.4","0.2","","","","","0.2330804604","0.3192168596","0.4780703898","0.2648449814","","","","","","","","","","75","K","2","","","212","main_expt",""
"","bandit","292","655859","0.0-254.0-0.0","52129727","wem/bandit_party_1","A2XFO0X6RCS98M","either","8","227","","","","","","","0","0","1","","0.4883488692","0.6","0.8","0.4","0.2","0.2484053244","0.2361953268","0.4883488692","0.286492297","","","","","","","","","","","","","","75","K","2","","","213","main_expt",""
"","bandit","293","657780","0.0-255.0-0.0","52129727","wem/bandit_party_1","A2XFO0X6RCS98M","either","8","416","","","","","","","0","1","0","","0.4872562331","0.6","0.8","0.4","0.2","0.2182548364","0.2308921763","0.4872562331","0.2540339129","","","","","","","","","","","","","","75","K","2","","","214","main_expt",""
"","bandit","294","659444","0.0-256.0-0.0","52129727","wem/bandit_party_1","A2XFO0X6RCS98M","either","8","159","","","","","","","1","0","0","0.4749609167","","0.6","0.8","0.4","0.2","","","","","0.1824073789","0.2161033537","0.4749609167","0.254651127","","","","","","","","","","75","K","2","","","215","main_expt",""
"","bandit","295","661620","0.0-257.0-0.0","52129727","wem/bandit_party_1","A2XFO0X6RCS98M","either","8","671","","","","","","","0","0","1","","0.4798413464","0.6","0.8","0.4","0.2","0.1923730387","0.1896756427","0.4798413464","0.3140517816","","","","","","","","","","","","","","75","K","2","","","216","main_expt",""
"","bandit","296","663524","0.0-258.0-0.0","52129727","wem/bandit_party_1","A2XFO0X6RCS98M","either","8","398","","","","","","","0","0","1","","0.2266612446","0.6","0.8","0.4","0.2","0.2266612446","0.1724286307","0.4865144435","0.3338676317","","","","","","","","","","","","","","72","H","0","img/none_selected.jpg","","217","main_expt",""
"","bandit","297","665447","0.0-259.0-0.0","52129727","wem/bandit_party_1","A2XFO0X6RCS98M","either","8","414","","","","","","","0","0","1","","0.1702705737","0.6","0.8","0.4","0.2","0.1702705737","0.161168334","0.4789145001","0.3397001125","","","","","","","","","","","","","","72","H","0","img/none_selected.jpg","","218","main_expt",""
"","bandit","298","668132","0.0-260.0-0.0","52129727","wem/bandit_party_1","A2XFO0X6RCS98M","either","8","1180","","","","","","","0","0","1","0.2021763003","","0.6","0.8","0.4","0.2","","","","","0.1159766116","0.2021763003","0.4834748692","0.2982528089","","","","","","","","","","74","J","1","","","219","main_expt",""
"","bandit","299","670573","0.0-261.0-0.0","52129727","wem/bandit_party_1","A2XFO0X6RCS98M","either","8","934","","","","","","","0","0","1","0.09529473055","","0.6","0.8","0.4","0.2","","","","","0.09529473055","0.2142164272","0.4722371777","0.2770934022","","","","","","","","","","72","H","0","img/none_selected.jpg","","220","main_expt",""
"","bandit","300","672421","0.0-262.0-0.0","52129727","wem/bandit_party_1","A2XFO0X6RCS98M","either","8","340","","","","","","","0","0","1","0.09060922323","","0.6","0.8","0.4","0.2","","","","","0.09060922323","0.189068297","0.4654689219","0.2696770889","","","","","","","","","","72","H","0","img/none_selected.jpg","","221","main_expt",""
"","bandit","301","679756","0.0-263.0-0.0","52129727","wem/bandit_party_1","A2XFO0X6RCS98M","either","8","5828","","","","","","","0","0","1","0.1250772464","","0.6","0.8","0.4","0.2","","","","","0.1250772464","0.2120997892","0.4533789701","0.3103502417","","","","","","","","","","72","H","0","img/none_selected.jpg","","222","main_expt",""
"","bandit","302","681572","0.0-264.0-0.0","52129727","wem/bandit_party_1","A2XFO0X6RCS98M","either","8","310","","","","","","","0","0","1","","0.1937664477","0.6","0.8","0.4","0.2","0.1177235221","0.1937664477","0.4473019993","0.3477728299","","","","","","","","","","","","","","74","J","1","","","223","main_expt",""
"","bandit","303","684115","0.0-265.0-0.0","52129727","wem/bandit_party_1","A2XFO0X6RCS98M","either","8","1038","","","","","","","0","0","1","0.1589673504","","0.6","0.8","0.4","0.2","","","","","0.1589673504","0.2195846313","0.4651086175","0.3230244909","","","","","","","","","","72","H","0","img/none_selected.jpg","","224","main_expt",""
"","bandit","304","685836","0.0-266.0-0.0","52129727","wem/bandit_party_1","A2XFO0X6RCS98M","either","8","214","","","","","","","0","0","1","0.1582937281","","0.6","0.8","0.4","0.2","","","","","0.1582937281","0.1973587738","0.4704934375","0.3641913847","","","","","","","","","","72","H","0","img/none_selected.jpg","","225","main_expt",""
"","bandit","305","687764","0.0-267.0-0.0","52129727","wem/bandit_party_1","A2XFO0X6RCS98M","either","8","422","","","","","","","0","0","1","0.4545632724","","0.6","0.8","0.4","0.2","","","","","0.1585786296","0.2029059012","0.4545632724","0.3211822138","","","","","","","","","","75","K","2","","","226","main_expt",""
"","bandit","306","689579","0.0-268.0-0.0","52129727","wem/bandit_party_1","A2XFO0X6RCS98M","either","8","310","","","","","","","0","0","1","0.3318596792","","0.6","0.8","0.4","0.2","","","","","0.1614007709","0.1677618241","0.4313330006","0.3318596792","","","","","","","","","","76","L","3","","","227","main_expt",""
"","bandit","307","692208","0.0-269.0-0.0","52129727","wem/bandit_party_1","A2XFO0X6RCS98M","either","8","1124","","","","","","","0","0","1","0.2079318551","","0.6","0.8","0.4","0.2","","","","","0.1160982884","0.2079318551","0.4253897179","0.3715738924","","","","","","","","","","74","J","1","","","228","main_expt",""
"","bandit","308","694125","0.0-270.0-0.0","52129727","wem/bandit_party_1","A2XFO0X6RCS98M","either","8","411","","","","","","","0","0","1","","0.1327168588","0.6","0.8","0.4","0.2","0.1327168588","0.1860779256","0.4416009531","0.3571583743","","","","","","","","","","","","","","72","H","0","img/none_selected.jpg","","229","main_expt",""
"","bandit","309","695996","0.0-271.0-0.0","52129727","wem/bandit_party_1","A2XFO0X6RCS98M","either","8","364","","","","","","","0","0","1","","0.4612445757","0.6","0.8","0.4","0.2","0.1751239199","0.1294985144","0.4612445757","0.3455313741","","","","","","","","","","","","","","75","K","2","","","230","main_expt",""
"","bandit","310","697827","0.0-272.0-0.0","52129727","wem/bandit_party_1","A2XFO0X6RCS98M","either","8","325","","","","","","","0","1","0","","0.3114256563","0.6","0.8","0.4","0.2","0.2080149414","0.1424139305","0.4455927364","0.3114256563","","","","","","","","","","","","","","76","L","3","","","231","main_expt",""
"","bandit","311","699619","0.0-273.0-0.0","52129727","wem/bandit_party_1","A2XFO0X6RCS98M","either","8","286","","","","","","","0","0","1","","0.3127001645","0.6","0.8","0.4","0.2","0.2305008548","0.1777617008","0.4449483857","0.3127001645","","","","","","","","","","","","","","76","L","3","","","232","main_expt",""
"","bandit","312","701660","0.0-274.0-0.0","52129727","wem/bandit_party_1","A2XFO0X6RCS98M","either","8","536","","","","","","","0","0","1","","0.2953609795","0.6","0.8","0.4","0.2","0.2331895239","0.1408291819","0.4570404202","0.2953609795","","","","","","","","","","","","","","76","L","3","","","233","main_expt",""
"","bandit","313","703544","0.0-275.0-0.0","52129727","wem/bandit_party_1","A2XFO0X6RCS98M","either","8","378","","","","","","","0","0","1","","0.2007149185","0.6","0.8","0.4","0.2","0.2007149185","0.09563300426","0.4785018613","0.2743769666","","","","","","","","","","","","","","72","H","0","img/none_selected.jpg","","234","main_expt",""
"","bandit","314","705405","0.0-276.0-0.0","52129727","wem/bandit_party_1","A2XFO0X6RCS98M","either","8","353","","","","","","","0","0","1","0.1428876463","","0.6","0.8","0.4","0.2","","","","","0.1428876463","0.06508254785","0.4708517218","0.2842570603","","","","","","","","","","72","H","0","img/none_selected.jpg","","235","main_expt",""
