"consent","trial_type","trial_index","time_elapsed","internal_node_id","subjID","study","MID","cond","drift","rt","responses","button_pressed","key_press","like","value","connected","gems","bombs","no_reward","GemPrChosen","BombPrChosen","GainOverPainPr_0","GainOverPainPr_1","GainOverPainPr_2","GainOverPainPr_3","LosePr_0","LosePr_1","LosePr_2","LosePr_3","WinPr_0","WinPr_1","WinPr_2","WinPr_3","Q0","Q1","Q2","gender","age","ethnicity","label","expt_phase","target","respCharCode","respKey","respChoiceNum","respChoice","practice","trial_counter","trial_label","Q0_index","view_history"
"GDM/GDM_behavioral_consent_30min_online.html","consent","0","7852","0.0-0.0","53501570","wem/bandit_party_1","A3BXT78QXFC6F3","either","2","","","","","","","","","","","","","","","","","","","","","","","","","","","","","","","","","","","","","","","","","",""
"","survey-text","1","10426","0.0-1.0","53501570","wem/bandit_party_1","A3BXT78QXFC6F3","either","2","1543","{""Q0"":""A3BXT78QXFC6F3""}","","","","","","","","","","","","","","","","","","","","","","","","","","","","","","","","","","","","","","","",""
"","button-response","2","13358","0.0-2.0","53501570","wem/bandit_party_1","A3BXT78QXFC6F3","either","2","1913","","1","","","","","","","","","","","","","","","","","","","","","","","","","","","","","","","","","","","","","","",""
"","text-replacement","3","21437","0.0-3.0","53501570","wem/bandit_party_1","A3BXT78QXFC6F3","either","2","7064","","","32","","","","","","","","","","","","","","","","","","","","","","","","","","","","","","","","","","","","","",""
"","text-replacement","4","22942","0.0-4.0","53501570","wem/bandit_party_1","A3BXT78QXFC6F3","either","2","1500","","","32","","","","","","","","","","","","","","","","","","","","","","","","","","","","","","","","","","","","","",""
"","identification","5","27561","0.0-6.0-0.0","53501570","wem/bandit_party_1","A3BXT78QXFC6F3","either","2","4558","","","","3","3","3","","","","","","","","","","","","","","","","","","","","","","","","pre","identification_pre","the Republican party","","","","","","","","",""
"","identification","6","30979","0.0-6.0-1.0","53501570","wem/bandit_party_1","A3BXT78QXFC6F3","either","2","2339","","","","3","3","3","","","","","","","","","","","","","","","","","","","","","","","","pre","identification_pre","the Democratic Party","","","","","","","","",""
"","text-replacement","7","39220","0.0-7.0","53501570","wem/bandit_party_1","A3BXT78QXFC6F3","either","2","6678","","","32","","","","","","","","","","","","","","","","","","","","","","","","","","","","","","","","","","","","","",""
"","text-replacement","8","65833","0.0-8.0","53501570","wem/bandit_party_1","A3BXT78QXFC6F3","either","2","26598","","","32","","","","","","","","","","","","","","","","","","","","","","","","","","","","","","","","","","","","","",""
"","text-replacement","9","66430","0.0-9.0","53501570","wem/bandit_party_1","A3BXT78QXFC6F3","either","2","585","","","32","","","","","","","","","","","","","","","","","","","","","","","","","","","","","","","","","","","","","",""
"","text-replacement","10","67039","0.0-10.0","53501570","wem/bandit_party_1","A3BXT78QXFC6F3","either","2","601","","","32","","","","","","","","","","","","","","","","","","","","","","","","","","","","","","","","","","","","","",""
"","text-replacement","11","67788","0.0-11.0","53501570","wem/bandit_party_1","A3BXT78QXFC6F3","either","2","744","","","32","","","","","","","","","","","","","","","","","","","","","","","","","","","","","","","","","","","","","",""
"","bandit","12","73092","0.0-12.0-0.0","53501570","wem/bandit_party_1","A3BXT78QXFC6F3","either","2","2909","","","","","","","0","0","1","0","0","","","","","0","","","","0","","","","","","","","","","","","","74","J","0","img/none_selected_demo.jpg","true","0","","",""
"","bandit","13","75891","0.0-13.0-0.0","53501570","wem/bandit_party_1","A3BXT78QXFC6F3","either","2","1166","","","","","","","0","0","1","0","0","","","","","0","","","","0","","","","","","","","","","","","","75","K","0","img/none_selected_demo.jpg","true","0","","",""
"","text-replacement","14","88932","0.0-14.0","53501570","wem/bandit_party_1","A3BXT78QXFC6F3","either","2","13026","","","32","","","","","","","","","","","","","","","","","","","","","","","","","","","","","","","","","","","","","",""
"","text-replacement","15","89191","0.0-15.0","53501570","wem/bandit_party_1","A3BXT78QXFC6F3","either","2","245","","","32","","","","","","","","","","","","","","","","","","","","","","","","","","","","","","","","","","","","","",""
"","text-replacement","16","89352","0.0-16.0","53501570","wem/bandit_party_1","A3BXT78QXFC6F3","either","2","152","","","32","","","","","","","","","","","","","","","","","","","","","","","","","","","","","","","","","","","","","",""
"","text-replacement","17","89533","0.0-17.0","53501570","wem/bandit_party_1","A3BXT78QXFC6F3","either","2","175","","","32","","","","","","","","","","","","","","","","","","","","","","","","","","","","","","","","","","","","","",""
"","bandit","18","94327","0.0-18.0-0.0","53501570","wem/bandit_party_1","A3BXT78QXFC6F3","either","2","3250","","","","","","","0","1","0","","0.8","0.5","0.5","","","0.8","0.2","","","","","","","","","","","","","","","","74","J","0","img/none_selected_demo.jpg","true","0","80_20_practice","",""
"","bandit","19","95893","0.0-18.0-1.0","53501570","wem/bandit_party_1","A3BXT78QXFC6F3","either","2","35","","","","","","","1","0","0","0.8","","0.5","0.5","","","","","","","0.8","0.2","","","","","","","","","","","","74","J","0","img/none_selected_demo.jpg","true","0","80_20_practice","",""
"","bandit","20","97892","0.0-18.0-2.0","53501570","wem/bandit_party_1","A3BXT78QXFC6F3","either","2","451","","","","","","","0","0","1","","0.8","0.5","0.5","","","0.8","0.2","","","","","","","","","","","","","","","","74","J","0","img/none_selected_demo.jpg","true","0","80_20_practice","",""
"","bandit","21","99622","0.0-18.0-3.0","53501570","wem/bandit_party_1","A3BXT78QXFC6F3","either","2","98","","","","","","","0","0","1","0.2","","0.5","0.5","","","","","","","0.8","0.2","","","","","","","","","","","","75","K","1","","true","0","80_20_practice","",""
"","bandit","22","101477","0.0-18.0-4.0","53501570","wem/bandit_party_1","A3BXT78QXFC6F3","either","2","122","","","","","","","0","1","0","","0.8","0.5","0.5","","","0.8","0.2","","","","","","","","","","","","","","","","74","J","0","img/none_selected_demo.jpg","true","0","80_20_practice","",""
"","bandit","23","103170","0.0-18.0-5.0","53501570","wem/bandit_party_1","A3BXT78QXFC6F3","either","2","83","","","","","","","1","0","0","0.2","","0.5","0.5","","","","","","","0.8","0.2","","","","","","","","","","","","75","K","1","","true","0","80_20_practice","",""
"","bandit","24","104815","0.0-18.0-6.0","53501570","wem/bandit_party_1","A3BXT78QXFC6F3","either","2","107","","","","","","","0","0","1","0.2","","0.5","0.5","","","","","","","0.8","0.2","","","","","","","","","","","","75","K","1","","true","0","80_20_practice","",""
"","bandit","25","106788","0.0-18.0-7.0","53501570","wem/bandit_party_1","A3BXT78QXFC6F3","either","2","37","","","","","","","0","0","1","","0.2","0.5","0.5","","","0.8","0.2","","","","","","","","","","","","","","","","75","K","1","","true","0","80_20_practice","",""
"","bandit","26","108569","0.0-18.0-8.0","53501570","wem/bandit_party_1","A3BXT78QXFC6F3","either","2","61","","","","","","","0","0","1","","0.2","0.5","0.5","","","0.8","0.2","","","","","","","","","","","","","","","","75","K","1","","true","0","80_20_practice","",""
"","bandit","27","110364","0.0-18.0-9.0","53501570","wem/bandit_party_1","A3BXT78QXFC6F3","either","2","82","","","","","","","1","0","0","0.8","","0.5","0.5","","","","","","","0.8","0.2","","","","","","","","","","","","74","J","0","img/none_selected_demo.jpg","true","0","80_20_practice","",""
"","bandit","28","112175","0.0-18.0-10.0","53501570","wem/bandit_party_1","A3BXT78QXFC6F3","either","2","105","","","","","","","1","0","0","0.2","","0.5","0.5","","","","","","","0.8","0.2","","","","","","","","","","","","75","K","1","","true","0","80_20_practice","",""
"","bandit","29","115194","0.0-18.0-11.0","53501570","wem/bandit_party_1","A3BXT78QXFC6F3","either","2","697","","","","","","","0","0","1","0.2","","0.5","0.5","","","","","","","0.8","0.2","","","","","","","","","","","","75","K","1","","true","0","80_20_practice","",""
"","bandit","30","116763","0.0-18.0-12.0","53501570","wem/bandit_party_1","A3BXT78QXFC6F3","either","2","9","","","","","","","0","0","1","","0.2","0.5","0.5","","","0.8","0.2","","","","","","","","","","","","","","","","75","K","1","","true","0","80_20_practice","",""
"","bandit","31","118354","0.0-18.0-13.0","53501570","wem/bandit_party_1","A3BXT78QXFC6F3","either","2","50","","","","","","","0","0","1","0.8","","0.5","0.5","","","","","","","0.8","0.2","","","","","","","","","","","","74","J","0","img/none_selected_demo.jpg","true","0","80_20_practice","",""
"","bandit","32","120710","0.0-18.0-14.0","53501570","wem/bandit_party_1","A3BXT78QXFC6F3","either","2","816","","","","","","","1","0","0","0.8","","0.5","0.5","","","","","","","0.8","0.2","","","","","","","","","","","","74","J","0","img/none_selected_demo.jpg","true","0","80_20_practice","",""
"","bandit","33","122401","0.0-18.0-15.0","53501570","wem/bandit_party_1","A3BXT78QXFC6F3","either","2","125","","","","","","","1","0","0","0.8","","0.5","0.5","","","","","","","0.8","0.2","","","","","","","","","","","","74","J","0","img/none_selected_demo.jpg","true","0","80_20_practice","",""
"","bandit","34","124318","0.0-18.0-16.0","53501570","wem/bandit_party_1","A3BXT78QXFC6F3","either","2","354","","","","","","","0","0","1","","0.2","0.5","0.5","","","0.8","0.2","","","","","","","","","","","","","","","","75","K","1","","true","0","80_20_practice","",""
"","bandit","35","126012","0.0-18.0-17.0","53501570","wem/bandit_party_1","A3BXT78QXFC6F3","either","2","83","","","","","","","1","0","0","0.8","","0.5","0.5","","","","","","","0.8","0.2","","","","","","","","","","","","74","J","0","img/none_selected_demo.jpg","true","0","80_20_practice","",""
"","bandit","36","127782","0.0-18.0-18.0","53501570","wem/bandit_party_1","A3BXT78QXFC6F3","either","2","100","","","","","","","0","1","0","","0.8","0.5","0.5","","","0.8","0.2","","","","","","","","","","","","","","","","74","J","0","img/none_selected_demo.jpg","true","0","80_20_practice","",""
"","bandit","37","130226","0.0-18.0-19.0","53501570","wem/bandit_party_1","A3BXT78QXFC6F3","either","2","137","","","","","","","0","0","1","0.2","","0.5","0.5","","","","","","","0.8","0.2","","","","","","","","","","","","75","K","1","","true","0","80_20_practice","",""
"","text-replacement","38","135443","0.0-19.0","53501570","wem/bandit_party_1","A3BXT78QXFC6F3","either","2","5210","","","32","","","","","","","","","","","","","","","","","","","","","","","","","","","","","","","","","","","","","",""
"","bandit","39","138350","0.0-20.0-0.0","53501570","wem/bandit_party_1","A3BXT78QXFC6F3","either","2","560","","","","","","","0","1","0","0","1","","","","","0","1","","","1","0","","","","","","","","","","","","75","K","1","","true","0","","",""
"","text-replacement","40","138404","0.0-21.0","53501570","wem/bandit_party_1","A3BXT78QXFC6F3","either","2","46","","","74","","","","","","","","","","","","","","","","","","","","","","","","","","","","","","","","","","","","","",""
"","text-replacement","41","150332","0.0-22.0","53501570","wem/bandit_party_1","A3BXT78QXFC6F3","either","2","11922","","","32","","","","","","","","","","","","","","","","","","","","","","","","","","","","","","","","","","","","","",""
"","text-replacement","42","150585","0.0-23.0","53501570","wem/bandit_party_1","A3BXT78QXFC6F3","either","2","247","","","32","","","","","","","","","","","","","","","","","","","","","","","","","","","","","","","","","","","","","",""
"","text-replacement","43","150845","0.0-24.0","53501570","wem/bandit_party_1","A3BXT78QXFC6F3","either","2","253","","","32","","","","","","","","","","","","","","","","","","","","","","","","","","","","","","","","","","","","","",""
"","text-replacement","44","151042","0.0-25.0","53501570","wem/bandit_party_1","A3BXT78QXFC6F3","either","2","190","","","32","","","","","","","","","","","","","","","","","","","","","","","","","","","","","","","","","","","","","",""
"","text-replacement","45","151231","0.0-26.0","53501570","wem/bandit_party_1","A3BXT78QXFC6F3","either","2","184","","","32","","","","","","","","","","","","","","","","","","","","","","","","","","","","","","","","","","","","","",""
"","text-replacement","46","151397","0.0-27.0","53501570","wem/bandit_party_1","A3BXT78QXFC6F3","either","2","160","","","32","","","","","","","","","","","","","","","","","","","","","","","","","","","","","","","","","","","","","",""
"","text-replacement","47","151552","0.0-28.0","53501570","wem/bandit_party_1","A3BXT78QXFC6F3","either","2","149","","","32","","","","","","","","","","","","","","","","","","","","","","","","","","","","","","","","","","","","","",""
"","text-replacement","48","151716","0.0-29.0","53501570","wem/bandit_party_1","A3BXT78QXFC6F3","either","2","158","","","32","","","","","","","","","","","","","","","","","","","","","","","","","","","","","","","","","","","","","",""
"","text-replacement","49","151886","0.0-30.0","53501570","wem/bandit_party_1","A3BXT78QXFC6F3","either","2","164","","","32","","","","","","","","","","","","","","","","","","","","","","","","","","","","","","","","","","","","","",""
"","text-replacement","50","152059","0.0-31.0","53501570","wem/bandit_party_1","A3BXT78QXFC6F3","either","2","167","","","32","","","","","","","","","","","","","","","","","","","","","","","","","","","","","","","","","","","","","",""
"","bandit","51","157678","0.0-32.0-0.0","53501570","wem/bandit_party_1","A3BXT78QXFC6F3","either","2","3885","","","","","","","1","0","0","0.6","","0.5","0.5","0.5","0.5","","","","","0.8","0.2","0.6","0.2","","","","","","","","","","75","K","2","","true","0","full_practice","",""
"","bandit","52","160426","0.0-32.0-1.0","53501570","wem/bandit_party_1","A3BXT78QXFC6F3","either","2","1191","","","","","","","0","1","0","","0.2","0.5","0.5","0.5","0.5","0.8","0.2","0.6","0.2","","","","","","","","","","","","","","76","L","3","","true","0","full_practice","",""
"","bandit","53","162800","0.0-32.0-2.0","53501570","wem/bandit_party_1","A3BXT78QXFC6F3","either","2","2","","","","","","","0","0","1","0.2","","0.5","0.5","0.5","0.5","","","","","0.8","0.2","0.6","0.2","","","","","","","","","","76","L","3","","true","0","full_practice","",""
"","bandit","54","164431","0.0-32.0-3.0","53501570","wem/bandit_party_1","A3BXT78QXFC6F3","either","2","72","","","","","","","0","0","1","0.6","","0.5","0.5","0.5","0.5","","","","","0.8","0.2","0.6","0.2","","","","","","","","","","75","K","2","","true","0","full_practice","",""
"","bandit","55","166995","0.0-32.0-4.0","53501570","wem/bandit_party_1","A3BXT78QXFC6F3","either","2","56","","","","","","","0","1","0","","0.8","0.5","0.5","0.5","0.5","0.8","0.2","0.6","0.2","","","","","","","","","","","","","","72","H","0","img/none_selected.jpg","true","0","full_practice","",""
"","bandit","56","168563","0.0-32.0-5.0","53501570","wem/bandit_party_1","A3BXT78QXFC6F3","either","2","2","","","","","","","0","1","0","","0.6","0.5","0.5","0.5","0.5","0.8","0.2","0.6","0.2","","","","","","","","","","","","","","75","K","2","","true","0","full_practice","",""
"","bandit","57","170316","0.0-32.0-6.0","53501570","wem/bandit_party_1","A3BXT78QXFC6F3","either","2","122","","","","","","","0","0","1","0.2","","0.5","0.5","0.5","0.5","","","","","0.8","0.2","0.6","0.2","","","","","","","","","","76","L","3","","true","0","full_practice","",""
"","bandit","58","172869","0.0-32.0-7.0","53501570","wem/bandit_party_1","A3BXT78QXFC6F3","either","2","412","","","","","","","1","0","0","0.8","","0.5","0.5","0.5","0.5","","","","","0.8","0.2","0.6","0.2","","","","","","","","","","72","H","0","img/none_selected.jpg","true","0","full_practice","",""
"","bandit","59","174551","0.0-32.0-8.0","53501570","wem/bandit_party_1","A3BXT78QXFC6F3","either","2","86","","","","","","","1","0","0","0.2","","0.5","0.5","0.5","0.5","","","","","0.8","0.2","0.6","0.2","","","","","","","","","","74","J","1","","true","0","full_practice","",""
"","bandit","60","177002","0.0-32.0-9.0","53501570","wem/bandit_party_1","A3BXT78QXFC6F3","either","2","3","","","","","","","0","1","0","","0.6","0.5","0.5","0.5","0.5","0.8","0.2","0.6","0.2","","","","","","","","","","","","","","75","K","2","","true","0","full_practice","",""
"","bandit","61","178764","0.0-32.0-10.0","53501570","wem/bandit_party_1","A3BXT78QXFC6F3","either","2","208","","","","","","","1","0","0","0.8","","0.5","0.5","0.5","0.5","","","","","0.8","0.2","0.6","0.2","","","","","","","","","","72","H","0","img/none_selected.jpg","true","0","full_practice","",""
"","bandit","62","180584","0.0-32.0-11.0","53501570","wem/bandit_party_1","A3BXT78QXFC6F3","either","2","2","","","","","","","0","0","1","","0.2","0.5","0.5","0.5","0.5","0.8","0.2","0.6","0.2","","","","","","","","","","","","","","76","L","3","","true","0","full_practice","",""
"","bandit","63","183166","0.0-32.0-12.0","53501570","wem/bandit_party_1","A3BXT78QXFC6F3","either","2","88","","","","","","","0","0","1","","0.6","0.5","0.5","0.5","0.5","0.8","0.2","0.6","0.2","","","","","","","","","","","","","","75","K","2","","true","0","full_practice","",""
"","bandit","64","184734","0.0-32.0-13.0","53501570","wem/bandit_party_1","A3BXT78QXFC6F3","either","2","25","","","","","","","0","1","0","","0.8","0.5","0.5","0.5","0.5","0.8","0.2","0.6","0.2","","","","","","","","","","","","","","72","H","0","img/none_selected.jpg","true","0","full_practice","",""
"","bandit","65","186308","0.0-32.0-14.0","53501570","wem/bandit_party_1","A3BXT78QXFC6F3","either","2","2","","","","","","","0","0","1","","0.2","0.5","0.5","0.5","0.5","0.8","0.2","0.6","0.2","","","","","","","","","","","","","","74","J","1","","true","0","full_practice","",""
"","bandit","66","187957","0.0-32.0-15.0","53501570","wem/bandit_party_1","A3BXT78QXFC6F3","either","2","106","","","","","","","0","0","1","","0.2","0.5","0.5","0.5","0.5","0.8","0.2","0.6","0.2","","","","","","","","","","","","","","74","J","1","","true","0","full_practice","",""
"","bandit","67","189764","0.0-32.0-16.0","53501570","wem/bandit_party_1","A3BXT78QXFC6F3","either","2","1","","","","","","","0","0","1","0.6","","0.5","0.5","0.5","0.5","","","","","0.8","0.2","0.6","0.2","","","","","","","","","","75","K","2","","true","0","full_practice","",""
"","bandit","68","191372","0.0-32.0-17.0","53501570","wem/bandit_party_1","A3BXT78QXFC6F3","either","2","46","","","","","","","1","0","0","0.2","","0.5","0.5","0.5","0.5","","","","","0.8","0.2","0.6","0.2","","","","","","","","","","76","L","3","","true","0","full_practice","",""
"","bandit","69","193482","0.0-32.0-18.0","53501570","wem/bandit_party_1","A3BXT78QXFC6F3","either","2","549","","","","","","","0","1","0","","0.8","0.5","0.5","0.5","0.5","0.8","0.2","0.6","0.2","","","","","","","","","","","","","","72","H","0","img/none_selected.jpg","true","0","full_practice","",""
"","bandit","70","195637","0.0-32.0-19.0","53501570","wem/bandit_party_1","A3BXT78QXFC6F3","either","2","2","","","","","","","0","0","1","0.2","","0.5","0.5","0.5","0.5","","","","","0.8","0.2","0.6","0.2","","","","","","","","","","74","J","1","","true","0","full_practice","",""
"","text","71","201817","0.0-33.0","53501570","wem/bandit_party_1","A3BXT78QXFC6F3","either","2","6155","","","32","","","","","","","","","","","","","","","","","","","","","","","","","","","","","","","","","","","","","",""
"","text-replacement","72","203643","0.0-34.0","53501570","wem/bandit_party_1","A3BXT78QXFC6F3","either","2","795","","","32","","","","","","","","","","","","","","","","","","","","","","","","","","","","","","","","","","","","","",""
"","text-replacement","73","203941","0.0-35.0","53501570","wem/bandit_party_1","A3BXT78QXFC6F3","either","2","274","","","32","","","","","","","","","","","","","","","","","","","","","","","","","","","","","","","","","","","","","",""
"","text-replacement","74","204189","0.0-36.0","53501570","wem/bandit_party_1","A3BXT78QXFC6F3","either","2","234","","","32","","","","","","","","","","","","","","","","","","","","","","","","","","","","","","","","","","","","","",""
"","text-replacement","75","204964","0.0-37.0","53501570","wem/bandit_party_1","A3BXT78QXFC6F3","either","2","767","","","32","","","","","","","","","","","","","","","","","","","","","","","","","","","","","","","","","","","","","",""
"","text-replacement","76","204985","0.0-38.0","53501570","wem/bandit_party_1","A3BXT78QXFC6F3","either","2","12","","","32","","","","","","","","","","","","","","","","","","","","","","","","","","","","","","","","","","","","","",""
"","survey-multi-choice-replacement","77","209314","0.0-39.0-0.0","53501570","wem/bandit_party_1","A3BXT78QXFC6F3","either","2","4280","","","","","","","","","","","","","","","","","","","","","","","","Money will be added to the pool for <span style='color:blue;'>DEMOCRATS</span>","","","","","","","attn_check","","","","","","","","","0",""
"","survey-multi-choice-replacement","78","217927","0.0-40.0-0.0","53501570","wem/bandit_party_1","A3BXT78QXFC6F3","either","2","7274","","","","","","","","","","","","","","","","","","","","","","","","No money will be added to either pool","","","","","","","attn_check","","","","","","","","","3",""
"","instructions","79","220365","0.0-40.0-1.0-0.0","53501570","wem/bandit_party_1","A3BXT78QXFC6F3","either","2","1404","","","","","","","","","","","","","","","","","","","","","","","","","","","","","","","","","","","","","","","","","[{""page_index"":0,""viewing_time"":1403}]"
"","survey-multi-choice-replacement","80","223460","0.0-40.1-0.1","53501570","wem/bandit_party_1","A3BXT78QXFC6F3","either","2","2025","","","","","","","","","","","","","","","","","","","","","","","","Money will be subtracted from the pool for <span style='color:red;'>REPUBLICANS</span>","","","","","","","attn_check","","","","","","","","","1",""
"","instructions","81","226647","0.0-40.1-1.1-0.1","53501570","wem/bandit_party_1","A3BXT78QXFC6F3","either","2","2147","","","","","","","","","","","","","","","","","","","","","","","","","","","","","","","","","","","","","","","","","[{""page_index"":0,""viewing_time"":2146}]"
"","survey-multi-choice-replacement","82","229395","0.0-40.2-0.2","53501570","wem/bandit_party_1","A3BXT78QXFC6F3","either","2","1676","","","","","","","","","","","","","","","","","","","","","","","","Equal amounts of money will be added to the pool for <span style='color:blue;'>DEMOCRATS</span> and subtracted from the pool for <span style='color:red;'>REPUBLICANS</span>","","","","","","","attn_check","","","","","","","","","2",""
"","survey-multi-choice-replacement","83","235600","0.0-41.0-0.0","53501570","wem/bandit_party_1","A3BXT78QXFC6F3","either","2","4726","","","","","","","","","","","","","","","","","","","","","","","","No money will be added to either pool","","","","","","","attn_check","","","","","","","","","3",""
"","bandit","84","238799","0.0-42.0-0.0","53501570","wem/bandit_party_1","A3BXT78QXFC6F3","either","2","632","","","","","","","0","1","0","","0.326135308","0.4","0.6","0.8","0.2","0.326135308","0.4781977867","0.3653736811","0.362799796","","","","","","","","","","","","","","72","H","0","img/none_selected.jpg","","1","main_expt","",""
"","bandit","85","241253","0.0-43.0-0.0","53501570","wem/bandit_party_1","A3BXT78QXFC6F3","either","2","505","","","","","","","0","0","1","0.3999069229","","0.4","0.6","0.8","0.2","","","","","0.3564958201","0.4765481994","0.3999069229","0.3891507205","","","","","","","","","","75","K","2","","","2","main_expt","",""
"","bandit","86","243021","0.0-44.0-0.0","53501570","wem/bandit_party_1","A3BXT78QXFC6F3","either","2","184","","","","","","","0","1","0","","0.3309056029","0.4","0.6","0.8","0.2","0.3309056029","0.4722158263","0.4363582421","0.3151339382","","","","","","","","","","","","","","72","H","0","img/none_selected.jpg","","3","main_expt","",""
"","bandit","87","244861","0.0-45.0-0.0","53501570","wem/bandit_party_1","A3BXT78QXFC6F3","either","2","236","","","","","","","0","0","1","","0.250648122","0.4","0.6","0.8","0.2","0.308467875","0.4609570051","0.4300921111","0.250648122","","","","","","","","","","","","","","76","L","3","","","4","main_expt","",""
"","bandit","88","247241","0.0-46.0-0.0","53501570","wem/bandit_party_1","A3BXT78QXFC6F3","either","2","442","","","","","","","0","0","1","0.3863220662","","0.4","0.6","0.8","0.2","","","","","0.3349995635","0.4707799186","0.3863220662","0.2382585344","","","","","","","","","","75","K","2","","","5","main_expt","",""
"","bandit","89","249027","0.0-47.0-0.0","53501570","wem/bandit_party_1","A3BXT78QXFC6F3","either","2","240","","","","","","","0","0","1","","0.3743101545","0.4","0.6","0.8","0.2","0.3743101545","0.4676743975","0.4192648028","0.2088101903","","","","","","","","","","","","","","72","H","0","img/none_selected.jpg","","6","main_expt","",""
"","bandit","90","251400","0.0-48.0-0.0","53501570","wem/bandit_party_1","A3BXT78QXFC6F3","either","2","340","","","","","","","1","0","0","0.4218548145","","0.4","0.6","0.8","0.2","","","","","0.377506125","0.4767364015","0.4218548145","0.1884279889","","","","","","","","","","75","K","2","","","7","main_expt","",""
"","bandit","91","253107","0.0-49.0-0.0","53501570","wem/bandit_party_1","A3BXT78QXFC6F3","either","2","166","","","","","","","1","0","0","0.4837409877","","0.4","0.6","0.8","0.2","","","","","0.3452849142","0.4837409877","0.4298914749","0.2297930851","","","","","","","","","","74","J","1","","","8","main_expt","",""
"","bandit","92","254980","0.0-50.0-0.0","53501570","wem/bandit_party_1","A3BXT78QXFC6F3","either","2","192","","","","","","","0","0","1","","0.4215440671","0.4","0.6","0.8","0.2","0.2713567333","0.4825212187","0.4215440671","0.2219539873","","","","","","","","","","","","","","75","K","2","","","9","main_expt","",""
"","bandit","93","257314","0.0-51.0-0.0","53501570","wem/bandit_party_1","A3BXT78QXFC6F3","either","2","321","","","","","","","0","0","1","","0.2712708503","0.4","0.6","0.8","0.2","0.2712708503","0.4791264729","0.3991616263","0.2398128751","","","","","","","","","","","","","","72","H","0","img/none_selected.jpg","","10","main_expt","",""
"","bandit","94","259104","0.0-52.0-0.0","53501570","wem/bandit_party_1","A3BXT78QXFC6F3","either","2","222","","","","","","","0","1","0","","0.4002673883","0.4","0.6","0.8","0.2","0.2635531688","0.4762013833","0.4002673883","0.2551733424","","","","","","","","","","","","","","75","K","2","","","11","main_expt","",""
"","bandit","95","261349","0.0-53.0-0.0","53501570","wem/bandit_party_1","A3BXT78QXFC6F3","either","2","305","","","","","","","0","0","1","","0.2669056975","0.4","0.6","0.8","0.2","0.2669056975","0.4729837645","0.368629831","0.2593424883","","","","","","","","","","","","","","72","H","0","img/none_selected.jpg","","12","main_expt","",""
"","bandit","96","263233","0.0-54.0-0.0","53501570","wem/bandit_party_1","A3BXT78QXFC6F3","either","2","337","","","","","","","0","0","1","","0.3204456557","0.4","0.6","0.8","0.2","0.3204456557","0.4749786695","0.4189726289","0.2493591627","","","","","","","","","","","","","","72","H","0","img/none_selected.jpg","","13","main_expt","",""
"","bandit","97","265317","0.0-55.0-0.0","53501570","wem/bandit_party_1","A3BXT78QXFC6F3","either","2","40","","","","","","","0","0","1","","0.2686446846","0.4","0.6","0.8","0.2","0.3466526728","0.4810115094","0.4352425359","0.2686446846","","","","","","","","","","","","","","76","L","3","","","14","main_expt","",""
"","bandit","98","267256","0.0-56.0-0.0","53501570","wem/bandit_party_1","A3BXT78QXFC6F3","either","2","2","","","","","","","0","0","1","0.3819090161","","0.4","0.6","0.8","0.2","","","","","0.3736671224","0.4705329286","0.3819090161","0.2690169042","","","","","","","","","","75","K","2","","","15","main_expt","",""
"","bandit","99","269160","0.0-57.0-0.0","53501570","wem/bandit_party_1","A3BXT78QXFC6F3","either","2","209","","","","","","","0","0","1","","0.3737760256","0.4","0.6","0.8","0.2","0.3778143907","0.4687419894","0.3737760256","0.2518303543","","","","","","","","","","","","","","75","K","2","","","16","main_expt","",""
"","bandit","100","271554","0.0-58.0-0.0","53501570","wem/bandit_party_1","A3BXT78QXFC6F3","either","2","258","","","","","","","0","0","1","0.4151791473","","0.4","0.6","0.8","0.2","","","","","0.3845750066","0.4594180265","0.4151791473","0.2406549936","","","","","","","","","","75","K","2","","","17","main_expt","",""
"","bandit","101","273438","0.0-59.0-0.0","53501570","wem/bandit_party_1","A3BXT78QXFC6F3","either","2","320","","","","","","","1","0","0","0.4137363134","","0.4","0.6","0.8","0.2","","","","","0.4041286345","0.425397146","0.4137363134","0.2670149403","","","","","","","","","","75","K","2","","","18","main_expt","",""
"","bandit","102","275499","0.0-60.0-0.0","53501570","wem/bandit_party_1","A3BXT78QXFC6F3","either","2","272","","","","","","","1","0","0","0.4084056464","","0.4","0.6","0.8","0.2","","","","","0.4127350431","0.4201246927","0.4084056464","0.2658482338","","","","","","","","","","75","K","2","","","19","main_expt","",""
"","bandit","103","277287","0.0-61.0-0.0","53501570","wem/bandit_party_1","A3BXT78QXFC6F3","either","2","214","","","","","","","0","1","0","","0.4129175496","0.4","0.6","0.8","0.2","0.4107359536","0.3954271328","0.4129175496","0.2452433766","","","","","","","","","","","","","","75","K","2","","","20","main_expt","",""
"","bandit","104","279193","0.0-62.0-0.0","53501570","wem/bandit_party_1","A3BXT78QXFC6F3","either","2","353","","","","","","","0","1","0","","0.4196431029","0.4","0.6","0.8","0.2","0.3954861765","0.4196431029","0.3888488162","0.2298761452","","","","","","","","","","","","","","74","J","1","","","21","main_expt","",""
"","bandit","105","280849","0.0-63.0-0.0","53501570","wem/bandit_party_1","A3BXT78QXFC6F3","either","2","115","","","","","","","0","0","1","0.3873149631","","0.4","0.6","0.8","0.2","","","","","0.3805979297","0.3843335182","0.3873149631","0.266827693","","","","","","","","","","75","K","2","","","22","main_expt","",""
"","bandit","106","282732","0.0-64.0-0.0","53501570","wem/bandit_party_1","A3BXT78QXFC6F3","either","2","322","","","","","","","0","0","1","","0.3839977458","0.4","0.6","0.8","0.2","0.425451992","0.3839977458","0.3659772031","0.2519769849","","","","","","","","","","","","","","74","J","1","","","23","main_expt","",""
"","bandit","107","284290","0.0-65.0-0.0","53501570","wem/bandit_party_1","A3BXT78QXFC6F3","either","2","2","","","","","","","0","0","1","0.4699447661","","0.4","0.6","0.8","0.2","","","","","0.4699447661","0.3338939571","0.3594327093","0.2447613107","","","","","","","","","","72","H","0","img/none_selected.jpg","","24","main_expt","",""
"","bandit","108","285964","0.0-66.0-0.0","53501570","wem/bandit_party_1","A3BXT78QXFC6F3","either","2","49","","","","","","","1","0","0","0.3719143394","","0.4","0.6","0.8","0.2","","","","","0.4484050393","0.324486952","0.3719143394","0.2350413847","","","","","","","","","","75","K","2","","","25","main_expt","",""
"","bandit","109","288059","0.0-67.0-0.0","53501570","wem/bandit_party_1","A3BXT78QXFC6F3","either","2","4","","","","","","","0","0","1","","0.4190234423","0.4","0.6","0.8","0.2","0.4190234423","0.3095710384","0.3690014044","0.207774486","","","","","","","","","","","","","","72","H","0","img/none_selected.jpg","","26","main_expt","",""
"","bandit","110","289881","0.0-68.0-0.0","53501570","wem/bandit_party_1","A3BXT78QXFC6F3","either","2","264","","","","","","","1","0","0","0.3940030818","","0.4","0.6","0.8","0.2","","","","","0.4251478254","0.3355629191","0.3940030818","0.2164182795","","","","","","","","","","75","K","2","","","27","main_expt","",""
"","bandit","111","292014","0.0-69.0-0.0","53501570","wem/bandit_party_1","A3BXT78QXFC6F3","either","2","58","","","","","","","0","1","0","","0.4111080327","0.4","0.6","0.8","0.2","0.4287328697","0.3668681485","0.4111080327","0.2164031865","","","","","","","","","","","","","","75","K","2","","","28","main_expt","",""
"","bandit","112","293931","0.0-70.0-0.0","53501570","wem/bandit_party_1","A3BXT78QXFC6F3","either","2","332","","","","","","","1","0","0","0.41290056","","0.4","0.6","0.8","0.2","","","","","0.4106025245","0.343198694","0.41290056","0.2770000278","","","","","","","","","","75","K","2","","","29","main_expt","",""
"","bandit","113","295803","0.0-71.0-0.0","53501570","wem/bandit_party_1","A3BXT78QXFC6F3","either","2","322","","","","","","","0","0","1","","0.326069126","0.4","0.6","0.8","0.2","0.3942494676","0.326069126","0.3937480262","0.2354797847","","","","","","","","","","","","","","74","J","1","","","30","main_expt","",""
"","bandit","114","298134","0.0-72.0-0.0","53501570","wem/bandit_party_1","A3BXT78QXFC6F3","either","2","128","","","","","","","0","0","1","0.3997016236","","0.4","0.6","0.8","0.2","","","","","0.4285056211","0.3390127419","0.3997016236","0.2692030882","","","","","","","","","","75","K","2","","","31","main_expt","",""
"","bandit","115","300037","0.0-73.0-0.0","53501570","wem/bandit_party_1","A3BXT78QXFC6F3","either","2","329","","","","","","","0","0","1","","0.2471118655","0.4","0.6","0.8","0.2","0.4249454459","0.3360649894","0.3574295763","0.2471118655","","","","","","","","","","","","","","76","L","3","","","32","main_expt","",""
"","bandit","116","302175","0.0-74.0-0.0","53501570","wem/bandit_party_1","A3BXT78QXFC6F3","either","2","330","","","","","","","0","1","0","","0.3052602024","0.4","0.6","0.8","0.2","0.416417765","0.3052602024","0.3877818659","0.2879199001","","","","","","","","","","","","","","74","J","1","","","33","main_expt","",""
"","bandit","117","303839","0.0-75.0-0.0","53501570","wem/bandit_party_1","A3BXT78QXFC6F3","either","2","124","","","","","","","1","0","0","0.3594788954","","0.4","0.6","0.8","0.2","","","","","0.4623714429","0.3594788954","0.3799496232","0.3180115212","","","","","","","","","","74","J","1","","","34","main_expt","",""
"","bandit","118","305727","0.0-76.0-0.0","53501570","wem/bandit_party_1","A3BXT78QXFC6F3","either","2","246","","","","","","","0","0","1","0.3577573403","","0.4","0.6","0.8","0.2","","","","","0.4591977302","0.380235832","0.3577573403","0.2524306687","","","","","","","","","","75","K","2","","","35","main_expt","",""
"","bandit","119","308228","0.0-77.0-0.0","53501570","wem/bandit_party_1","A3BXT78QXFC6F3","either","2","106","","","","","","","0","0","1","0.3459989602","","0.4","0.6","0.8","0.2","","","","","0.4686235256","0.3459989602","0.3895375856","0.2351869563","","","","","","","","","","74","J","1","","","36","main_expt","",""
"","bandit","120","310226","0.0-78.0-0.0","53501570","wem/bandit_party_1","A3BXT78QXFC6F3","either","2","465","","","","","","","0","0","1","","0.4571547709","0.4","0.6","0.8","0.2","0.4571547709","0.3320905149","0.3783527007","0.2629170466","","","","","","","","","","","","","","72","H","0","img/none_selected.jpg","","37","main_expt","",""
"","bandit","121","312460","0.0-79.0-0.0","53501570","wem/bandit_party_1","A3BXT78QXFC6F3","either","2","370","","","","","","","0","0","1","0.3471020919","","0.4","0.6","0.8","0.2","","","","","0.4688430709","0.3471020919","0.284076782","0.3090194305","","","","","","","","","","74","J","1","","","38","main_expt","",""
"","bandit","122","314101","0.0-80.0-0.0","53501570","wem/bandit_party_1","A3BXT78QXFC6F3","either","2","48","","","","","","","0","0","1","","0.3388972186","0.4","0.6","0.8","0.2","0.4612923778","0.3401763967","0.3388972186","0.2845371228","","","","","","","","","","","","","","75","K","2","","","39","main_expt","",""
"","bandit","123","315698","0.0-81.0-0.0","53501570","wem/bandit_party_1","A3BXT78QXFC6F3","either","2","6","","","","","","","0","0","1","0.2663655232","","0.4","0.6","0.8","0.2","","","","","0.4576194683","0.3260487483","0.2663655232","0.3076259244","","","","","","","","","","75","K","2","","","40","main_expt","",""
"","bandit","124","318092","0.0-82.0-0.0","53501570","wem/bandit_party_1","A3BXT78QXFC6F3","either","2","287","","","","","","","0","0","1","0.3390218734","","0.4","0.6","0.8","0.2","","","","","0.4473921051","0.3390218734","0.2608266697","0.2888769276","","","","","","","","","","74","J","1","","","41","main_expt","",""
"","bandit","125","319857","0.0-83.0-0.0","53501570","wem/bandit_party_1","A3BXT78QXFC6F3","either","2","219","","","","","","","0","0","1","0.2889680017","","0.4","0.6","0.8","0.2","","","","","0.425470286","0.2889680017","0.2287676803","0.2639198141","","","","","","","","","","74","J","1","","","42","main_expt","",""
"","bandit","126","322001","0.0-84.0-0.0","53501570","wem/bandit_party_1","A3BXT78QXFC6F3","either","2","72","","","","","","","0","1","0","","0.2784828801","0.4","0.6","0.8","0.2","0.4030522017","0.2784828801","0.2043112358","0.2255441472","","","","","","","","","","","","","","74","J","1","","","43","main_expt","",""
"","bandit","127","323754","0.0-85.0-0.0","53501570","wem/bandit_party_1","A3BXT78QXFC6F3","either","2","217","","","","","","","0","0","1","0.1957049551","","0.4","0.6","0.8","0.2","","","","","0.4106315797","0.2805729819","0.1957049551","0.2050272072","","","","","","","","","","75","K","2","","","44","main_expt","",""
"","bandit","128","325607","0.0-86.0-0.0","53501570","wem/bandit_party_1","A3BXT78QXFC6F3","either","2","36","","","","","","","0","0","1","0.2207366272","","0.4","0.6","0.8","0.2","","","","","0.4258527362","0.2195119073","0.2207366272","0.239455925","","","","","","","","","","75","K","2","","","45","main_expt","",""
"","bandit","129","327400","0.0-87.0-0.0","53501570","wem/bandit_party_1","A3BXT78QXFC6F3","either","2","27","","","","","","","1","0","0","0.4425966235","","0.4","0.6","0.8","0.2","","","","","0.4425966235","0.2657932304","0.1727988076","0.2414778298","","","","","","","","","","72","H","0","img/none_selected.jpg","","46","main_expt","",""
"","bandit","130","329299","0.0-88.0-0.0","53501570","wem/bandit_party_1","A3BXT78QXFC6F3","either","2","123","","","","","","","0","0","1","0.1446735631","","0.4","0.6","0.8","0.2","","","","","0.4428977597","0.2678398397","0.1446735631","0.1884211613","","","","","","","","","","75","K","2","","","47","main_expt","",""
"","bandit","131","331058","0.0-89.0-0.0","53501570","wem/bandit_party_1","A3BXT78QXFC6F3","either","2","80","","","","","","","0","0","1","0.1681765936","","0.4","0.6","0.8","0.2","","","","","0.4479964269","0.2866904938","0.1681765936","0.1755274282","","","","","","","","","","75","K","2","","","48","main_expt","",""
"","bandit","132","333243","0.0-90.0-0.0","53501570","wem/bandit_party_1","A3BXT78QXFC6F3","either","2","222","","","","","","","0","0","1","","0.2803848884","0.4","0.6","0.8","0.2","0.4660387519","0.2803848884","0.1473883531","0.1646396384","","","","","","","","","","","","","","74","J","1","","","49","main_expt","",""
"","bandit","133","335166","0.0-91.0-0.0","53501570","wem/bandit_party_1","A3BXT78QXFC6F3","either","2","270","","","","","","","1","0","0","0.4345757832","","0.4","0.6","0.8","0.2","","","","","0.4345757832","0.2587411269","0.1378170987","0.2024226619","","","","","","","","","","72","H","0","img/none_selected.jpg","","50","main_expt","",""
"","bandit","134","336902","0.0-92.0-0.0","53501570","wem/bandit_party_1","A3BXT78QXFC6F3","either","2","59","","","","","","","0","0","1","","0.1430360168","0.4","0.6","0.8","0.2","0.4450950844","0.2212901065","0.1430360168","0.1976760068","","","","","","","","","","","","","","75","K","2","","","51","main_expt","",""
"","bandit","135","339310","0.0-93.0-0.0","53501570","wem/bandit_party_1","A3BXT78QXFC6F3","either","2","29","","","","","","","0","0","1","","0.1796352224","0.4","0.6","0.8","0.2","0.4475354499","0.236006857","0.1731798725","0.1796352224","","","","","","","","","","","","","","76","L","3","","","52","main_expt","",""
"","bandit","136","340899","0.0-94.0-0.0","53501570","wem/bandit_party_1","A3BXT78QXFC6F3","either","2","35","","","","","","","0","0","1","","0.2660825342","0.4","0.6","0.8","0.2","0.4627294295","0.2660825342","0.1312409056","0.2451732725","","","","","","","","","","","","","","74","J","1","","","53","main_expt","",""
"","bandit","137","342497","0.0-95.0-0.0","53501570","wem/bandit_party_1","A3BXT78QXFC6F3","either","2","56","","","","","","","0","0","1","","0.1862053218","0.4","0.6","0.8","0.2","0.44829207","0.2458345041","0.1862053218","0.2621482643","","","","","","","","","","","","","","75","K","2","","","54","main_expt","",""
"","bandit","138","344592","0.0-96.0-0.0","53501570","wem/bandit_party_1","A3BXT78QXFC6F3","either","2","1","","","","","","","0","0","1","0.2265690781","","0.4","0.6","0.8","0.2","","","","","0.4505537928","0.2265690781","0.1733563037","0.2441780383","","","","","","","","","","74","J","1","","","55","main_expt","",""
"","bandit","139","348376","0.0-97.0-0.0","53501570","wem/bandit_party_1","A3BXT78QXFC6F3","either","2","1784","","","","","","","0","0","1","","0.4686400132","0.4","0.6","0.8","0.2","0.4686400132","0.2741820357","0.1728369204","0.199729785","","","","","","","","","","","","","","72","H","0","img/none_selected.jpg","","56","main_expt","",""
"","bandit","140","349935","0.0-98.0-0.0","53501570","wem/bandit_party_1","A3BXT78QXFC6F3","either","2","1","","","","","","","0","0","1","","0.4572679106","0.4","0.6","0.8","0.2","0.4572679106","0.2937641054","0.09176359954","0.1945085845","","","","","","","","","","","","","","72","H","0","img/none_selected.jpg","","57","main_expt","",""
"","bandit","141","351572","0.0-99.0-0.0","53501570","wem/bandit_party_1","A3BXT78QXFC6F3","either","2","91","","","","","","","0","1","0","","0.4300169527","0.4","0.6","0.8","0.2","0.4300169527","0.2949827607","0.04991422033","0.2614759052","","","","","","","","","","","","","","72","H","0","img/none_selected.jpg","","58","main_expt","",""
"","bandit","142","353415","0.0-100.0-0.0","53501570","wem/bandit_party_1","A3BXT78QXFC6F3","either","2","40","","","","","","","0","0","1","0.2710075273","","0.4","0.6","0.8","0.2","","","","","0.4050829606","0.2710075273","0.053239915","0.2426118991","","","","","","","","","","74","J","1","","","59","main_expt","",""
"","bandit","143","355211","0.0-101.0-0.0","53501570","wem/bandit_party_1","A3BXT78QXFC6F3","either","2","239","","","","","","","0","0","1","","0.4070720156","0.4","0.6","0.8","0.2","0.4070720156","0.2766623035","0.06994226662","0.2623750897","","","","","","","","","","","","","","72","H","0","img/none_selected.jpg","","60","main_expt","",""
"","bandit","144","356886","0.0-102.0-0.0","53501570","wem/bandit_party_1","A3BXT78QXFC6F3","either","2","114","","","","","","","0","1","0","","0.3895400789","0.4","0.6","0.8","0.2","0.3895400789","0.2574592035","0.07064832373","0.2139103784","","","","","","","","","","","","","","72","H","0","img/none_selected.jpg","","61","main_expt","",""
"","bandit","145","359295","0.0-103.0-0.0","53501570","wem/bandit_party_1","A3BXT78QXFC6F3","either","2","80","","","","","","","0","0","1","","0.4050708951","0.4","0.6","0.8","0.2","0.4050708951","0.2425209234","0.08925217872","0.2566580444","","","","","","","","","","","","","","72","H","0","img/none_selected.jpg","","62","main_expt","",""
"","bandit","146","361041","0.0-104.0-0.0","53501570","wem/bandit_party_1","A3BXT78QXFC6F3","either","2","193","","","","","","","0","0","1","0.08505035955","","0.4","0.6","0.8","0.2","","","","","0.3765761212","0.2294211584","0.08505035955","0.2393402704","","","","","","","","","","75","K","2","","","63","main_expt","",""
"","bandit","147","363375","0.0-105.0-0.0","53501570","wem/bandit_party_1","A3BXT78QXFC6F3","either","2","100","","","","","","","0","0","1","0.09892528285","","0.4","0.6","0.8","0.2","","","","","0.3859881554","0.2350173232","0.09892528285","0.300105392","","","","","","","","","","75","K","2","","","64","main_expt","",""
"","bandit","148","365119","0.0-106.0-0.0","53501570","wem/bandit_party_1","A3BXT78QXFC6F3","either","2","209","","","","","","","0","0","1","0.1428545766","","0.4","0.6","0.8","0.2","","","","","0.3817039273","0.2775473173","0.1428545766","0.2584268813","","","","","","","","","","75","K","2","","","65","main_expt","",""
"","bandit","149","369871","0.0-107.0-0.0","53501570","wem/bandit_party_1","A3BXT78QXFC6F3","either","2","1766","","","","","","","1","0","0","0.298861572","","0.4","0.6","0.8","0.2","","","","","0.3622232449","0.298861572","0.120440259","0.2536378703","","","","","","","","","","74","J","1","","","66","main_expt","",""
"","bandit","150","371975","0.0-108.0-0.0","53501570","wem/bandit_party_1","A3BXT78QXFC6F3","either","2","26","","","","","","","0","0","1","0.3043747659","","0.4","0.6","0.8","0.2","","","","","0.3768721334","0.3043747659","0.2019700983","0.2548884231","","","","","","","","","","74","J","1","","","67","main_expt","",""
"","bandit","151","373633","0.0-109.0-0.0","53501570","wem/bandit_party_1","A3BXT78QXFC6F3","either","2","26","","","","","","","0","1","0","","0.2105458193","0.4","0.6","0.8","0.2","0.3826604183","0.2533072519","0.1467862533","0.2105458193","","","","","","","","","","","","","","76","L","3","","","68","main_expt","",""
"","bandit","152","376040","0.0-110.0-0.0","53501570","wem/bandit_party_1","A3BXT78QXFC6F3","either","2","101","","","","","","","0","0","1","","0.2901666962","0.4","0.6","0.8","0.2","0.3981811202","0.2451677402","0.09022805221","0.2901666962","","","","","","","","","","","","","","76","L","3","","","69","main_expt","",""
"","bandit","153","378103","0.0-111.0-0.0","53501570","wem/bandit_party_1","A3BXT78QXFC6F3","either","2","493","","","","","","","1","0","0","0.2973761433","","0.4","0.6","0.8","0.2","","","","","0.3936557204","0.2403061491","0.1128827508","0.2973761433","","","","","","","","","","76","L","3","","","70","main_expt","",""
"","bandit","154","379957","0.0-112.0-0.0","53501570","wem/bandit_party_1","A3BXT78QXFC6F3","either","2","2","","","","","","","0","0","1","","0.2737706179","0.4","0.6","0.8","0.2","0.3949471057","0.1917576795","0.1184182172","0.2737706179","","","","","","","","","","","","","","76","L","3","","","71","main_expt","",""
"","bandit","155","381888","0.0-113.0-0.0","53501570","wem/bandit_party_1","A3BXT78QXFC6F3","either","2","381","","","","","","","0","0","1","","0.1894079546","0.4","0.6","0.8","0.2","0.3888869603","0.1894079546","0.1038133506","0.3005227265","","","","","","","","","","","","","","74","J","1","","","72","main_expt","",""
"","bandit","156","383918","0.0-114.0-0.0","53501570","wem/bandit_party_1","A3BXT78QXFC6F3","either","2","489","","","","","","","0","0","1","0.235909594","","0.4","0.6","0.8","0.2","","","","","0.4015056825","0.235909594","0.07830871569","0.3205676235","","","","","","","","","","74","J","1","","","73","main_expt","",""
"","bandit","157","386310","0.0-115.0-0.0","53501570","wem/bandit_party_1","A3BXT78QXFC6F3","either","2","849","","","","","","","0","0","1","","0.3040473008","0.4","0.6","0.8","0.2","0.4200542591","0.2772030277","0.09226686474","0.3040473008","","","","","","","","","","","","","","76","L","3","","","74","main_expt","",""
"","bandit","158","387919","0.0-116.0-0.0","53501570","wem/bandit_party_1","A3BXT78QXFC6F3","either","2","79","","","","","","","0","1","0","","0.2237268092","0.4","0.6","0.8","0.2","0.4353174817","0.2237268092","0.07948082514","0.2686744794","","","","","","","","","","","","","","74","J","1","","","75","main_expt","",""
"","bandit","159","389875","0.0-117.0-0.0","53501570","wem/bandit_party_1","A3BXT78QXFC6F3","either","2","417","","","","","","","0","0","1","","0.1279570505","0.4","0.6","0.8","0.2","0.4196821318","0.1739375455","0.1279570505","0.258707356","","","","","","","","","","","","","","75","K","2","","","76","main_expt","",""
"","bandit","160","391598","0.0-118.0-0.0","53501570","wem/bandit_party_1","A3BXT78QXFC6F3","either","2","172","","","","","","","0","0","1","","0.1648796623","0.4","0.6","0.8","0.2","0.3787369199","0.1648796623","0.1202820049","0.3010070056","","","","","","","","","","","","","","74","J","1","","","77","main_expt","",""
"","bandit","161","393267","0.0-119.0-0.0","53501570","wem/bandit_party_1","A3BXT78QXFC6F3","either","2","121","","","","","","","0","0","1","","0.1637798684","0.4","0.6","0.8","0.2","0.4314930014","0.1637798684","0.1054071572","0.2648586626","","","","","","","","","","","","","","74","J","1","","","78","main_expt","",""
"","bandit","162","395621","0.0-120.0-0.0","53501570","wem/bandit_party_1","A3BXT78QXFC6F3","either","2","410","","","","","","","0","0","1","","0.1490076182","0.4","0.6","0.8","0.2","0.4155078174","0.1490076182","0.1403095361","0.1984114041","","","","","","","","","","","","","","74","J","1","","","79","main_expt","",""
"","bandit","163","398342","0.0-121.0-0.0","53501570","wem/bandit_party_1","A3BXT78QXFC6F3","either","2","1164","","","","","","","0","0","1","0.180325551","","0.4","0.6","0.8","0.2","","","","","0.4226243671","0.1093198388","0.1891235553","0.180325551","","","","","","","","","","76","L","3","","","80","main_expt","",""
"","bandit","164","400543","0.0-122.0-0.0","53501570","wem/bandit_party_1","A3BXT78QXFC6F3","either","2","223","","","","","","","0","0","1","0.1858030354","","0.4","0.6","0.8","0.2","","","","","0.4474166549","0.08868186825","0.1858030354","0.224531153","","","","","","","","","","75","K","2","","","81","main_expt","",""
"","bandit","165","402349","0.0-123.0-0.0","53501570","wem/bandit_party_1","A3BXT78QXFC6F3","either","2","221","","","","","","","0","0","1","0.2476542501","","0.4","0.6","0.8","0.2","","","","","0.4636297045","0.1073880826","0.2476542501","0.221125015","","","","","","","","","","75","K","2","","","82","main_expt","",""
"","bandit","166","404931","0.0-124.0-0.0","53501570","wem/bandit_party_1","A3BXT78QXFC6F3","either","2","963","","","","","","","0","0","1","0.2188241074","","0.4","0.6","0.8","0.2","","","","","0.467509749","0.1022587498","0.2188241074","0.2143237207","","","","","","","","","","75","K","2","","","83","main_expt","",""
"","bandit","167","407523","0.0-125.0-0.0","53501570","wem/bandit_party_1","A3BXT78QXFC6F3","either","2","332","","","","","","","0","0","1","0.2754771977","","0.4","0.6","0.8","0.2","","","","","0.4551111531","0.1085807699","0.2754771977","0.2097367537","","","","","","","","","","75","K","2","","","84","main_expt","",""
"","bandit","168","409987","0.0-126.0-0.0","53501570","wem/bandit_party_1","A3BXT78QXFC6F3","either","2","336","","","","","","","0","0","1","0.1263918358","","0.4","0.6","0.8","0.2","","","","","0.4621419017","0.1263918358","0.2965575968","0.1661536269","","","","","","","","","","74","J","1","","","85","main_expt","",""
"","bandit","169","411628","0.0-127.0-0.0","53501570","wem/bandit_party_1","A3BXT78QXFC6F3","either","2","32","","","","","","","0","0","1","0.257129161","","0.4","0.6","0.8","0.2","","","","","0.4612050897","0.1481941301","0.257129161","0.1364458955","","","","","","","","","","75","K","2","","","86","main_expt","",""
"","bandit","170","414146","0.0-128.0-0.0","53501570","wem/bandit_party_1","A3BXT78QXFC6F3","either","2","113","","","","","","","0","0","1","","0.1447872846","0.4","0.6","0.8","0.2","0.4334675206","0.1447872846","0.2338967043","0.08235553135","","","","","","","","","","","","","","74","J","1","","","87","main_expt","",""
"","bandit","171","415887","0.0-129.0-0.0","53501570","wem/bandit_party_1","A3BXT78QXFC6F3","either","2","199","","","","","","","1","0","0","0.1391637727","","0.4","0.6","0.8","0.2","","","","","0.4397617206","0.1391637727","0.2161535794","0.0754832669","","","","","","","","","","74","J","1","","","88","main_expt","",""
"","bandit","172","417457","0.0-130.0-0.0","53501570","wem/bandit_party_1","A3BXT78QXFC6F3","either","2","2","","","","","","","0","0","1","0.2043146745","","0.4","0.6","0.8","0.2","","","","","0.4635478967","0.1476089376","0.2043146745","0.109361408","","","","","","","","","","75","K","2","","","89","main_expt","",""
"","bandit","173","419827","0.0-131.0-0.0","53501570","wem/bandit_party_1","A3BXT78QXFC6F3","either","2","1","","","","","","","0","0","1","0.2346009907","","0.4","0.6","0.8","0.2","","","","","0.4234969579","0.2081489191","0.2346009907","0.07391079866","","","","","","","","","","75","K","2","","","90","main_expt","",""
"","bandit","174","421637","0.0-132.0-0.0","53501570","wem/bandit_party_1","A3BXT78QXFC6F3","either","2","262","","","","","","","0","0","1","0.1834039029","","0.4","0.6","0.8","0.2","","","","","0.4267507071","0.1834039029","0.2333967219","0.1164594673","","","","","","","","","","74","J","1","","","91","main_expt","",""
"","bandit","175","423637","0.0-133.0-0.0","53501570","wem/bandit_party_1","A3BXT78QXFC6F3","either","2","365","","","","","","","0","0","1","0.2027314649","","0.4","0.6","0.8","0.2","","","","","0.4089505196","0.2027314649","0.2150480475","0.113043345","","","","","","","","","","74","J","1","","","92","main_expt","",""
"","bandit","176","425877","0.0-134.0-0.0","53501570","wem/bandit_party_1","A3BXT78QXFC6F3","either","2","96","","","","","","","0","0","1","0.1738894496","","0.4","0.6","0.8","0.2","","","","","0.4112501448","0.1738894496","0.2588080464","0.1714352716","","","","","","","","","","74","J","1","","","93","main_expt","",""
"","bandit","177","427677","0.0-135.0-0.0","53501570","wem/bandit_party_1","A3BXT78QXFC6F3","either","2","194","","","","","","","0","0","1","0.2748849181","","0.4","0.6","0.8","0.2","","","","","0.452415855","0.2484708832","0.2748849181","0.1253024032","","","","","","","","","","75","K","2","","","94","main_expt","",""
"","bandit","178","429794","0.0-136.0-0.0","53501570","wem/bandit_party_1","A3BXT78QXFC6F3","either","2","17","","","","","","","0","0","1","0.2791739054","","0.4","0.6","0.8","0.2","","","","","0.4589197587","0.2914685715","0.2791739054","0.1401284447","","","","","","","","","","75","K","2","","","95","main_expt","",""
"","bandit","179","431367","0.0-137.0-0.0","53501570","wem/bandit_party_1","A3BXT78QXFC6F3","either","2","15","","","","","","","0","0","1","0.2417524935","","0.4","0.6","0.8","0.2","","","","","0.4481870348","0.2417524935","0.3149564315","0.1320491369","","","","","","","","","","74","J","1","","","96","main_expt","",""
"","bandit","180","433114","0.0-138.0-0.0","53501570","wem/bandit_party_1","A3BXT78QXFC6F3","either","2","96","","","","","","","0","1","0","","0.2492821404","0.4","0.6","0.8","0.2","0.4597072186","0.2492821404","0.372564007","0.1518453759","","","","","","","","","","","","","","74","J","1","","","97","main_expt","",""
"","bandit","181","434979","0.0-139.0-0.0","53501570","wem/bandit_party_1","A3BXT78QXFC6F3","either","2","106","","","","","","","0","0","1","","0.3002958449","0.4","0.6","0.8","0.2","0.4705619112","0.3002958449","0.393328365","0.2173959583","","","","","","","","","","","","","","74","J","1","","","98","main_expt","",""
"","bandit","182","436791","0.0-140.0-0.0","53501570","wem/bandit_party_1","A3BXT78QXFC6F3","either","2","78","","","","","","","0","1","0","","0.3544832656","0.4","0.6","0.8","0.2","0.4800968761","0.3544832656","0.421239771","0.2618725657","","","","","","","","","","","","","","74","J","1","","","99","main_expt","",""
"","bandit","183","438365","0.0-141.0-0.0","53501570","wem/bandit_party_1","A3BXT78QXFC6F3","either","2","2","","","","","","","0","0","1","0.4130759476","","0.4","0.6","0.8","0.2","","","","","0.4780143146","0.3810954338","0.4130759476","0.2487788848","","","","","","","","","","75","K","2","","","100","main_expt","",""
"","bandit","184","440819","0.0-142.0-0.0","53501570","wem/bandit_party_1","A3BXT78QXFC6F3","either","2","899","","","","","","","1","0","0","0.4042362267","","0.4","0.6","0.8","0.2","","","","","0.4849002763","0.4042362267","0.4089462913","0.2890792313","","","","","","","","","","74","J","1","","","101","main_expt","",""
"","bandit","185","442708","0.0-143.0-0.0","53501570","wem/bandit_party_1","A3BXT78QXFC6F3","either","2","308","","","","","","","0","0","1","0.4594696392","","0.4","0.6","0.8","0.2","","","","","0.4886078379","0.4594696392","0.370330464","0.3136369757","","","","","","","","","","74","J","1","","","102","main_expt","",""
"","bandit","186","445576","0.0-144.0-0.0","53501570","wem/bandit_party_1","A3BXT78QXFC6F3","either","2","1177","","","","","","","1","0","0","0.3306315663","","0.4","0.6","0.8","0.2","","","","","0.47121906","0.4588766667","0.3306315663","0.2364671533","","","","","","","","","","75","K","2","","","103","main_expt","",""
"","bandit","187","447588","0.0-145.0-0.0","53501570","wem/bandit_party_1","A3BXT78QXFC6F3","either","2","393","","","","","","","0","0","1","","0.354634178","0.4","0.6","0.8","0.2","0.4760763377","0.4372785745","0.354634178","0.2202486688","","","","","","","","","","","","","","75","K","2","","","104","main_expt","",""
"","bandit","188","450113","0.0-146.0-0.0","53501570","wem/bandit_party_1","A3BXT78QXFC6F3","either","2","886","","","","","","","0","0","1","","0.1854418088","0.4","0.6","0.8","0.2","0.4701389446","0.4063887309","0.3896605338","0.1854418088","","","","","","","","","","","","","","76","L","3","","","105","main_expt","",""
"","bandit","189","451814","0.0-147.0-0.0","53501570","wem/bandit_party_1","A3BXT78QXFC6F3","either","2","146","","","","","","","0","0","1","0.3778019321","","0.4","0.6","0.8","0.2","","","","","0.471324938","0.3778019321","0.414339711","0.1596754559","","","","","","","","","","74","J","1","","","106","main_expt","",""
"","bandit","190","454077","0.0-148.0-0.0","53501570","wem/bandit_party_1","A3BXT78QXFC6F3","either","2","215","","","","","","","0","0","1","","0.4164239898","0.4","0.6","0.8","0.2","0.4786694594","0.3614143111","0.4164239898","0.137099288","","","","","","","","","","","","","","75","K","2","","","107","main_expt","",""
"","bandit","191","456142","0.0-149.0-0.0","53501570","wem/bandit_party_1","A3BXT78QXFC6F3","either","2","518","","","","","","","0","0","1","0.3836571442","","0.4","0.6","0.8","0.2","","","","","0.4810065258","0.3681250399","0.3836571442","0.1443984823","","","","","","","","","","75","K","2","","","108","main_expt","",""
"","bandit","192","459139","0.0-150.0-0.0","53501570","wem/bandit_party_1","A3BXT78QXFC6F3","either","2","1417","","","","","","","1","0","0","0.3881214568","","0.4","0.6","0.8","0.2","","","","","0.4816764674","0.3446081275","0.3881214568","0.1409511773","","","","","","","","","","75","K","2","","","109","main_expt","",""
"","bandit","193","460970","0.0-151.0-0.0","53501570","wem/bandit_party_1","A3BXT78QXFC6F3","either","2","91","","","","","","","0","0","1","","0.3681270965","0.4","0.6","0.8","0.2","0.4882082215","0.3681270965","0.4266873791","0.1787750665","","","","","","","","","","","","","","74","J","1","","","110","main_expt","",""
"","bandit","194","462818","0.0-152.0-0.0","53501570","wem/bandit_party_1","A3BXT78QXFC6F3","either","2","104","","","","","","","0","0","1","","0.391379093","0.4","0.6","0.8","0.2","0.478642168","0.391379093","0.4475699482","0.1862786225","","","","","","","","","","","","","","74","J","1","","","111","main_expt","",""
"","bandit","195","464414","0.0-153.0-0.0","53501570","wem/bandit_party_1","A3BXT78QXFC6F3","either","2","58","","","","","","","0","0","1","0.4190314983","","0.4","0.6","0.8","0.2","","","","","0.4841415165","0.4131544452","0.4190314983","0.1654620982","","","","","","","","","","75","K","2","","","112","main_expt","",""
"","bandit","196","466091","0.0-154.0-0.0","53501570","wem/bandit_party_1","A3BXT78QXFC6F3","either","2","36","","","","","","","0","0","1","0.3963985948","","0.4","0.6","0.8","0.2","","","","","0.4883212127","0.3963985948","0.3666128881","0.1582981878","","","","","","","","","","74","J","1","","","113","main_expt","",""
"","bandit","197","467986","0.0-155.0-0.0","53501570","wem/bandit_party_1","A3BXT78QXFC6F3","either","2","1","","","","","","","0","0","1","0.4117985871","","0.4","0.6","0.8","0.2","","","","","0.4883790739","0.4117985871","0.3866259854","0.1922757069","","","","","","","","","","74","J","1","","","114","main_expt","",""
"","bandit","198","469826","0.0-156.0-0.0","53501570","wem/bandit_party_1","A3BXT78QXFC6F3","either","2","41","","","","","","","0","0","1","0.394381103","","0.4","0.6","0.8","0.2","","","","","0.4902011966","0.394381103","0.354161152","0.185618385","","","","","","","","","","74","J","1","","","115","main_expt","",""
"","bandit","199","471952","0.0-157.0-0.0","53501570","wem/bandit_party_1","A3BXT78QXFC6F3","either","2","43","","","","","","","0","0","1","","0.3762408663","0.4","0.6","0.8","0.2","0.4844723045","0.3762408663","0.3170745426","0.2057277395","","","","","","","","","","","","","","74","J","1","","","116","main_expt","",""
"","bandit","200","477467","0.0-158.0-0.0","53501570","wem/bandit_party_1","A3BXT78QXFC6F3","either","2","3326","","","","","","","1","0","0","0.4895589844","","0.4","0.6","0.8","0.2","","","","","0.4895589844","0.3823674378","0.304536318","0.2288411079","","","","","","","","","","72","H","0","img/none_selected.jpg","","117","main_expt","",""
"","bandit","201","479259","0.0-159.0-0.0","53501570","wem/bandit_party_1","A3BXT78QXFC6F3","either","2","208","","","","","","","0","0","1","0.4899729034","","0.4","0.6","0.8","0.2","","","","","0.4899729034","0.4050195855","0.3411026949","0.2207517482","","","","","","","","","","72","H","0","img/none_selected.jpg","","118","main_expt","",""
"","bandit","202","481047","0.0-160.0-0.0","53501570","wem/bandit_party_1","A3BXT78QXFC6F3","either","2","197","","","","","","","0","0","1","","0.1955286499","0.4","0.6","0.8","0.2","0.4947041593","0.4227562767","0.3447942488","0.1955286499","","","","","","","","","","","","","","76","L","3","","","119","main_expt","",""
"","bandit","203","504170","0.0-161.0-0.0","53501570","wem/bandit_party_1","A3BXT78QXFC6F3","either","2","21304","","","","","","","0","0","1","","0.4916865355","0.4","0.6","0.8","0.2","0.4916865355","0.4163810796","0.3686185352","0.2427950695","","","","","","","","","","","","","","72","H","0","img/none_selected.jpg","","120","main_expt","",""
"","bandit","204","506248","0.0-162.0-0.0","53501570","wem/bandit_party_1","A3BXT78QXFC6F3","either","2","453","","","","","","","0","0","1","","0.4860386064","0.4","0.6","0.8","0.2","0.4860386064","0.406821829","0.3547669752","0.2479682904","","","","","","","","","","","","","","72","H","0","img/none_selected.jpg","","121","main_expt","",""
"","bandit","205","508582","0.0-163.0-0.0","53501570","wem/bandit_party_1","A3BXT78QXFC6F3","either","2","121","","","","","","","0","0","1","0.365994073","","0.4","0.6","0.8","0.2","","","","","0.483083859","0.3999449125","0.365994073","0.3081985406","","","","","","","","","","75","K","2","","","122","main_expt","",""
"","bandit","206","510374","0.0-164.0-0.0","53501570","wem/bandit_party_1","A3BXT78QXFC6F3","either","2","76","","","","","","","0","0","1","0.3120596142","","0.4","0.6","0.8","0.2","","","","","0.4791491275","0.366626489","0.3120596142","0.3089359708","","","","","","","","","","75","K","2","","","123","main_expt","",""
"","bandit","207","512334","0.0-165.0-0.0","53501570","wem/bandit_party_1","A3BXT78QXFC6F3","either","2","1","","","","","","","0","0","1","","0.3706278578","0.4","0.6","0.8","0.2","0.4776777384","0.3706278578","0.302161917","0.3298338218","","","","","","","","","","","","","","74","J","1","","","124","main_expt","",""
"","bandit","208","514615","0.0-166.0-0.0","53501570","wem/bandit_party_1","A3BXT78QXFC6F3","either","2","556","","","","","","","0","0","1","0.478983255","","0.4","0.6","0.8","0.2","","","","","0.478983255","0.3545504723","0.2794370347","0.2795250441","","","","","","","","","","72","H","0","img/none_selected.jpg","","125","main_expt","",""
"","bandit","209","516346","0.0-167.0-0.0","53501570","wem/bandit_party_1","A3BXT78QXFC6F3","either","2","138","","","","","","","0","0","1","","0.4724726719","0.4","0.6","0.8","0.2","0.4724726719","0.3106298006","0.2466154908","0.2184127205","","","","","","","","","","","","","","72","H","0","img/none_selected.jpg","","126","main_expt","",""
"","bandit","210","518815","0.0-168.0-0.0","53501570","wem/bandit_party_1","A3BXT78QXFC6F3","either","2","917","","","","","","","0","0","1","","0.4796244369","0.4","0.6","0.8","0.2","0.4796244369","0.3351405197","0.2712823261","0.2488858907","","","","","","","","","","","","","","72","H","0","img/none_selected.jpg","","127","main_expt","",""
"","bandit","211","520454","0.0-169.0-0.0","53501570","wem/bandit_party_1","A3BXT78QXFC6F3","either","2","87","","","","","","","1","0","0","0.4825212971","","0.4","0.6","0.8","0.2","","","","","0.4825212971","0.2984422464","0.2095517986","0.2850827173","","","","","","","","","","72","H","0","img/none_selected.jpg","","128","main_expt","",""
"","bandit","212","522780","0.0-170.0-0.0","53501570","wem/bandit_party_1","A3BXT78QXFC6F3","either","2","49","","","","","","","0","0","1","","0.2027892291","0.4","0.6","0.8","0.2","0.4877535013","0.2027892291","0.1986866195","0.2867242009","","","","","","","","","","","","","","74","J","1","","","129","main_expt","",""
"","bandit","213","524388","0.0-171.0-0.0","53501570","wem/bandit_party_1","A3BXT78QXFC6F3","either","2","41","","","","","","","1","0","0","0.4833646461","","0.4","0.6","0.8","0.2","","","","","0.4833646461","0.13768179","0.172959111","0.2509552002","","","","","","","","","","72","H","0","img/none_selected.jpg","","130","main_expt","",""
"","bandit","214","526222","0.0-172.0-0.0","53501570","wem/bandit_party_1","A3BXT78QXFC6F3","either","2","28","","","","","","","0","0","1","0.163172462","","0.4","0.6","0.8","0.2","","","","","0.4790990265","0.1352832961","0.163172462","0.2172434631","","","","","","","","","","75","K","2","","","131","main_expt","",""
"","bandit","215","527913","0.0-173.0-0.0","53501570","wem/bandit_party_1","A3BXT78QXFC6F3","either","2","152","","","","","","","0","0","1","","0.4882311922","0.4","0.6","0.8","0.2","0.4882311922","0.08660982753","0.161148659","0.158295755","","","","","","","","","","","","","","72","H","0","img/none_selected.jpg","","132","main_expt","",""
"","bandit","216","530698","0.0-174.0-0.0","53501570","wem/bandit_party_1","A3BXT78QXFC6F3","either","2","652","","","","","","","1","0","0","0.4889625365","","0.4","0.6","0.8","0.2","","","","","0.4889625365","0.1020907376","0.1735641072","0.185310911","","","","","","","","","","72","H","0","img/none_selected.jpg","","133","main_expt","",""
"","bandit","217","532927","0.0-175.0-0.0","53501570","wem/bandit_party_1","A3BXT78QXFC6F3","either","2","608","","","","","","","1","0","0","0.4916783795","","0.4","0.6","0.8","0.2","","","","","0.4916783795","0.1231499397","0.1597390633","0.1966535246","","","","","","","","","","72","H","0","img/none_selected.jpg","","134","main_expt","",""
"","bandit","218","534484","0.0-176.0-0.0","53501570","wem/bandit_party_1","A3BXT78QXFC6F3","either","2","8","","","","","","","0","1","0","","0.4904315354","0.4","0.6","0.8","0.2","0.4904315354","0.1524236556","0.1460070414","0.2290191974","","","","","","","","","","","","","","72","H","0","img/none_selected.jpg","","135","main_expt","",""
"","bandit","219","536948","0.0-177.0-0.0","53501570","wem/bandit_party_1","A3BXT78QXFC6F3","either","2","292","","","","","","","0","0","1","","0.491666595","0.4","0.6","0.8","0.2","0.491666595","0.1954247664","0.105474526","0.2929229053","","","","","","","","","","","","","","72","H","0","img/none_selected.jpg","","136","main_expt","",""
"","bandit","220","538790","0.0-178.0-0.0","53501570","wem/bandit_party_1","A3BXT78QXFC6F3","either","2","200","","","","","","","0","0","1","","0.1833989084","0.4","0.6","0.8","0.2","0.4917142499","0.1833989084","0.08835118593","0.2780805385","","","","","","","","","","","","","","74","J","1","","","137","main_expt","",""
"","bandit","221","540655","0.0-179.0-0.0","53501570","wem/bandit_party_1","A3BXT78QXFC6F3","either","2","89","","","","","","","0","0","1","","0.4870170403","0.4","0.6","0.8","0.2","0.4870170403","0.1490533902","0.06418360449","0.217224157","","","","","","","","","","","","","","72","H","0","img/none_selected.jpg","","138","main_expt","",""
"","bandit","222","542295","0.0-180.0-0.0","53501570","wem/bandit_party_1","A3BXT78QXFC6F3","either","2","88","","","","","","","0","1","0","","0.4834992155","0.4","0.6","0.8","0.2","0.4834992155","0.1318817547","0.03554325754","0.2323391466","","","","","","","","","","","","","","72","H","0","img/none_selected.jpg","","139","main_expt","",""
"","bandit","223","544193","0.0-181.0-0.0","53501570","wem/bandit_party_1","A3BXT78QXFC6F3","either","2","255","","","","","","","0","0","1","","0.1877412345","0.4","0.6","0.8","0.2","0.4927392517","0.1877412345","0.04477370895","0.244475209","","","","","","","","","","","","","","74","J","1","","","140","main_expt","",""
"","bandit","224","546631","0.0-182.0-0.0","53501570","wem/bandit_party_1","A3BXT78QXFC6F3","either","2","378","","","","","","","0","0","1","","0.4872377518","0.4","0.6","0.8","0.2","0.4872377518","0.2363671377","0.03780119019","0.232604034","","","","","","","","","","","","","","72","H","0","img/none_selected.jpg","","141","main_expt","",""
"","bandit","225","549129","0.0-183.0-0.0","53501570","wem/bandit_party_1","A3BXT78QXFC6F3","either","2","333","","","","","","","0","1","0","","0.4846254936","0.4","0.6","0.8","0.2","0.4846254936","0.2546402356","0.03149913875","0.2447345556","","","","","","","","","","","","","","72","H","0","img/none_selected.jpg","","142","main_expt","",""
"","bandit","226","550988","0.0-184.0-0.0","53501570","wem/bandit_party_1","A3BXT78QXFC6F3","either","2","294","","","","","","","0","1","0","","0.26413271","0.4","0.6","0.8","0.2","0.4815328815","0.2825544685","0.04191513266","0.26413271","","","","","","","","","","","","","","76","L","3","","","143","main_expt","",""
"","bandit","227","552794","0.0-185.0-0.0","53501570","wem/bandit_party_1","A3BXT78QXFC6F3","either","2","123","","","","","","","0","0","1","","0.1988203511","0.4","0.6","0.8","0.2","0.4854048375","0.2731230023","0.05613120157","0.1988203511","","","","","","","","","","","","","","76","L","3","","","144","main_expt","",""
"","bandit","228","554446","0.0-186.0-0.0","53501570","wem/bandit_party_1","A3BXT78QXFC6F3","either","2","2","","","","","","","0","1","0","","0.4813029389","0.4","0.6","0.8","0.2","0.4813029389","0.2943814715","0.03827589539","0.217822638","","","","","","","","","","","","","","72","H","0","img/none_selected.jpg","","145","main_expt","",""
"","bandit","229","556035","0.0-187.0-0.0","53501570","wem/bandit_party_1","A3BXT78QXFC6F3","either","2","28","","","","","","","1","0","0","0.328634005","","0.4","0.6","0.8","0.2","","","","","0.4884824202","0.328634005","0.02861175853","0.2009042904","","","","","","","","","","74","J","1","","","146","main_expt","",""
"","bandit","230","557722","0.0-188.0-0.0","53501570","wem/bandit_party_1","A3BXT78QXFC6F3","either","2","119","","","","","","","0","0","1","","0.2080446297","0.4","0.6","0.8","0.2","0.4835291327","0.3511209141","0.02140640811","0.2080446297","","","","","","","","","","","","","","76","L","3","","","147","main_expt","",""
"","bandit","231","559473","0.0-189.0-0.0","53501570","wem/bandit_party_1","A3BXT78QXFC6F3","either","2","114","","","","","","","0","0","1","","0.1536700415","0.4","0.6","0.8","0.2","0.4716003481","0.3874996206","0.0202041473","0.1536700415","","","","","","","","","","","","","","76","L","3","","","148","main_expt","",""
"","bandit","232","561020","0.0-190.0-0.0","53501570","wem/bandit_party_1","A3BXT78QXFC6F3","either","2","1","","","","","","","0","0","1","0.4341886607","","0.4","0.6","0.8","0.2","","","","","0.4341886607","0.3476646045","0.01154190459","0.1593661633","","","","","","","","","","72","H","0","img/none_selected.jpg","","149","main_expt","",""
"","bandit","233","562652","0.0-191.0-0.0","53501570","wem/bandit_party_1","A3BXT78QXFC6F3","either","2","80","","","","","","","0","0","1","","0.4014438172","0.4","0.6","0.8","0.2","0.4014438172","0.3323010919","0.01291237021","0.144955896","","","","","","","","","","","","","","72","H","0","img/none_selected.jpg","","150","main_expt","",""
"","bandit","234","564458","0.0-192.0-0.0","53501570","wem/bandit_party_1","A3BXT78QXFC6F3","either","2","8","","","","","","","0","0","1","","0.3954477196","0.4","0.6","0.8","0.2","0.3980713407","0.3954477196","0.0137789916","0.2123564028","","","","","","","","","","","","","","74","J","1","","","151","main_expt","",""
"","bandit","235","566057","0.0-193.0-0.0","53501570","wem/bandit_party_1","A3BXT78QXFC6F3","either","2","1","","","","","","","0","0","1","0.4186327087","","0.4","0.6","0.8","0.2","","","","","0.4002357887","0.4186327087","0.01985271471","0.2301890466","","","","","","","","","","74","J","1","","","152","main_expt","",""
"","bandit","236","568275","0.0-194.0-0.0","53501570","wem/bandit_party_1","A3BXT78QXFC6F3","either","2","666","","","","","","","0","0","1","0.388677987","","0.4","0.6","0.8","0.2","","","","","0.388677987","0.4029566754","0.02951100453","0.2295153641","","","","","","","","","","72","H","0","img/none_selected.jpg","","153","main_expt","",""
"","bandit","237","572377","0.0-195.0-0.0","53501570","wem/bandit_party_1","A3BXT78QXFC6F3","either","2","2559","","","","","","","0","0","1","","0.3817747688","0.4","0.6","0.8","0.2","0.3817747688","0.4037751878","0.02325572033","0.2163321136","","","","","","","","","","","","","","72","H","0","img/none_selected.jpg","","154","main_expt","",""
"","bandit","238","574199","0.0-196.0-0.0","53501570","wem/bandit_party_1","A3BXT78QXFC6F3","either","2","167","","","","","","","0","0","1","","0.4078727314","0.4","0.6","0.8","0.2","0.327727533","0.4078727314","0.03925092562","0.2257858177","","","","","","","","","","","","","","74","J","1","","","155","main_expt","",""
"","bandit","239","575944","0.0-197.0-0.0","53501570","wem/bandit_party_1","A3BXT78QXFC6F3","either","2","2","","","","","","","1","0","0","0.3941681487","","0.4","0.6","0.8","0.2","","","","","0.2821504166","0.3941681487","0.05532081832","0.2077891775","","","","","","","","","","74","J","1","","","156","main_expt","",""
"","bandit","240","578247","0.0-198.0-0.0","53501570","wem/bandit_party_1","A3BXT78QXFC6F3","either","2","566","","","","","","","0","0","1","","0.05983660039","0.4","0.6","0.8","0.2","0.2784527126","0.3417147062","0.05983660039","0.1742908387","","","","","","","","","","","","","","75","K","2","","","157","main_expt","",""
"","bandit","241","580041","0.0-199.0-0.0","53501570","wem/bandit_party_1","A3BXT78QXFC6F3","either","2","66","","","","","","","0","0","1","0.2857058734","","0.4","0.6","0.8","0.2","","","","","0.2857058734","0.2963220618","0.09347744845","0.162057643","","","","","","","","","","72","H","0","img/none_selected.jpg","","158","main_expt","",""
"","bandit","242","582332","0.0-200.0-0.0","53501570","wem/bandit_party_1","A3BXT78QXFC6F3","either","2","732","","","","","","","0","0","1","0.2961528309","","0.4","0.6","0.8","0.2","","","","","0.2349295223","0.2961528309","0.09649648717","0.1805514511","","","","","","","","","","74","J","1","","","159","main_expt","",""
"","bandit","243","584240","0.0-201.0-0.0","53501570","wem/bandit_party_1","A3BXT78QXFC6F3","either","2","2","","","","","","","0","0","1","0.08382429791","","0.4","0.6","0.8","0.2","","","","","0.2275717407","0.2842772575","0.08382429791","0.1724629995","","","","","","","","","","75","K","2","","","160","main_expt","",""
"","bandit","244","586219","0.0-202.0-0.0","53501570","wem/bandit_party_1","A3BXT78QXFC6F3","either","2","15","","","","","","","1","0","0","0.1466352983","","0.4","0.6","0.8","0.2","","","","","0.2559884592","0.2747674873","0.1466352983","0.1660992999","","","","","","","","","","75","K","2","","","161","main_expt","",""
"","bandit","245","587826","0.0-203.0-0.0","53501570","wem/bandit_party_1","A3BXT78QXFC6F3","either","2","57","","","","","","","0","0","1","","0.2670526618","0.4","0.6","0.8","0.2","0.2670526618","0.2993190406","0.1569467617","0.2281832109","","","","","","","","","","","","","","72","H","0","img/none_selected.jpg","","162","main_expt","",""
"","bandit","246","589526","0.0-204.0-0.0","53501570","wem/bandit_party_1","A3BXT78QXFC6F3","either","2","2","","","","","","","1","0","0","0.2618894379","","0.4","0.6","0.8","0.2","","","","","0.2618894379","0.3102408377","0.1437935099","0.2144285545","","","","","","","","","","72","H","0","img/none_selected.jpg","","163","main_expt","",""
"","bandit","247","591981","0.0-205.0-0.0","53501570","wem/bandit_party_1","A3BXT78QXFC6F3","either","2","35","","","","","","","0","0","1","0.2977476978","","0.4","0.6","0.8","0.2","","","","","0.2977476978","0.2607878409","0.1503677763","0.2131293933","","","","","","","","","","72","H","0","img/none_selected.jpg","","164","main_expt","",""
"","bandit","248","593612","0.0-206.0-0.0","53501570","wem/bandit_party_1","A3BXT78QXFC6F3","either","2","70","","","","","","","0","1","0","","0.3138636066","0.4","0.6","0.8","0.2","0.3138636066","0.2470054868","0.1574825995","0.251698227","","","","","","","","","","","","","","72","H","0","img/none_selected.jpg","","165","main_expt","",""
"","bandit","249","595944","0.0-207.0-0.0","53501570","wem/bandit_party_1","A3BXT78QXFC6F3","either","2","18","","","","","","","0","0","1","","0.3204338644","0.4","0.6","0.8","0.2","0.3204338644","0.2629624785","0.1500633275","0.2831539445","","","","","","","","","","","","","","72","H","0","img/none_selected.jpg","","166","main_expt","",""
"","bandit","250","597690","0.0-208.0-0.0","53501570","wem/bandit_party_1","A3BXT78QXFC6F3","either","2","199","","","","","","","1","0","0","0.3600517585","","0.4","0.6","0.8","0.2","","","","","0.3600517585","0.2745713682","0.1137242654","0.2496169508","","","","","","","","","","72","H","0","img/none_selected.jpg","","167","main_expt","",""
"","bandit","251","599625","0.0-209.0-0.0","53501570","wem/bandit_party_1","A3BXT78QXFC6F3","either","2","394","","","","","","","0","0","1","0.3678373827","","0.4","0.6","0.8","0.2","","","","","0.3678373827","0.2557249153","0.145192941","0.2315540067","","","","","","","","","","72","H","0","img/none_selected.jpg","","168","main_expt","",""
"","bandit","252","602433","0.0-210.0-0.0","53501570","wem/bandit_party_1","A3BXT78QXFC6F3","either","2","411","","","","","","","0","0","1","","0.3421512568","0.4","0.6","0.8","0.2","0.3421512568","0.2016321063","0.1863479632","0.1825517174","","","","","","","","","","","","","","72","H","0","img/none_selected.jpg","","169","main_expt","",""
"","bandit","253","603986","0.0-211.0-0.0","53501570","wem/bandit_party_1","A3BXT78QXFC6F3","either","2","1","","","","","","","0","0","1","","0.142304713","0.4","0.6","0.8","0.2","0.3917895485","0.2210696627","0.142304713","0.2535959064","","","","","","","","","","","","","","75","K","2","","","170","main_expt","",""
"","bandit","254","606443","0.0-212.0-0.0","53501570","wem/bandit_party_1","A3BXT78QXFC6F3","either","2","176","","","","","","","1","0","0","0.1739768979","","0.4","0.6","0.8","0.2","","","","","0.3206692194","0.1627904758","0.1739768979","0.3004284576","","","","","","","","","","75","K","2","","","171","main_expt","",""
"","bandit","255","607990","0.0-213.0-0.0","53501570","wem/bandit_party_1","A3BXT78QXFC6F3","either","2","1","","","","","","","1","0","0","0.3198600846","","0.4","0.6","0.8","0.2","","","","","0.3198600846","0.1421076649","0.2172659048","0.2716191145","","","","","","","","","","72","H","0","img/none_selected.jpg","","172","main_expt","",""
"","bandit","256","609682","0.0-214.0-0.0","53501570","wem/bandit_party_1","A3BXT78QXFC6F3","either","2","98","","","","","","","0","0","1","0.165050165","","0.4","0.6","0.8","0.2","","","","","0.2641483633","0.165050165","0.2419731025","0.3253138029","","","","","","","","","","74","J","1","","","173","main_expt","",""
"","bandit","257","612127","0.0-215.0-0.0","53501570","wem/bandit_party_1","A3BXT78QXFC6F3","either","2","275","","","","","","","0","0","1","0.2239571331","","0.4","0.6","0.8","0.2","","","","","0.2248062597","0.1406738207","0.2239571331","0.3419591401","","","","","","","","","","75","K","2","","","174","main_expt","",""
"","bandit","258","613918","0.0-216.0-0.0","53501570","wem/bandit_party_1","A3BXT78QXFC6F3","either","2","237","","","","","","","0","0","1","0.138310495","","0.4","0.6","0.8","0.2","","","","","0.2370379408","0.138310495","0.2311410243","0.3442692367","","","","","","","","","","74","J","1","","","175","main_expt","",""
"","bandit","259","616440","0.0-217.0-0.0","53501570","wem/bandit_party_1","A3BXT78QXFC6F3","either","2","942","","","","","","","0","0","1","","0.2610077479","0.4","0.6","0.8","0.2","0.2157433706","0.1675243642","0.2610077479","0.3397266539","","","","","","","","","","","","","","75","K","2","","","176","main_expt","",""
"","bandit","260","618257","0.0-218.0-0.0","53501570","wem/bandit_party_1","A3BXT78QXFC6F3","either","2","91","","","","","","","0","0","1","","0.1919885971","0.4","0.6","0.8","0.2","0.2014791824","0.1919885971","0.2780938204","0.2997078274","","","","","","","","","","","","","","74","J","1","","","177","main_expt","",""
"","bandit","261","620533","0.0-219.0-0.0","53501570","wem/bandit_party_1","A3BXT78QXFC6F3","either","2","233","","","","","","","0","0","1","0.1913564418","","0.4","0.6","0.8","0.2","","","","","0.1913564418","0.2365392944","0.3151752793","0.3064007527","","","","","","","","","","72","H","0","img/none_selected.jpg","","178","main_expt","",""
"","bandit","262","622302","0.0-220.0-0.0","53501570","wem/bandit_party_1","A3BXT78QXFC6F3","either","2","92","","","","","","","1","0","0","0.1980728016","","0.4","0.6","0.8","0.2","","","","","0.1980728016","0.2509455726","0.2799621139","0.3533432679","","","","","","","","","","72","H","0","img/none_selected.jpg","","179","main_expt","",""
"","bandit","263","624044","0.0-221.0-0.0","53501570","wem/bandit_party_1","A3BXT78QXFC6F3","either","2","185","","","","","","","1","0","0","0.2767223981","","0.4","0.6","0.8","0.2","","","","","0.1833491223","0.2767223981","0.3170936092","0.3652522579","","","","","","","","","","74","J","1","","","180","main_expt","",""
"","bandit","264","626323","0.0-222.0-0.0","53501570","wem/bandit_party_1","A3BXT78QXFC6F3","either","2","49","","","","","","","0","0","1","0.28101752","","0.4","0.6","0.8","0.2","","","","","0.1342686697","0.314600373","0.28101752","0.3383156657","","","","","","","","","","75","K","2","","","181","main_expt","",""
"","bandit","265","627881","0.0-223.0-0.0","53501570","wem/bandit_party_1","A3BXT78QXFC6F3","either","2","1","","","","","","","1","0","0","0.1636660304","","0.4","0.6","0.8","0.2","","","","","0.1636660304","0.3943610609","0.3043342224","0.2902116232","","","","","","","","","","72","H","0","img/none_selected.jpg","","182","main_expt","",""
"","bandit","266","629601","0.0-224.0-0.0","53501570","wem/bandit_party_1","A3BXT78QXFC6F3","either","2","18","","","","","","","0","0","1","","0.3192524042","0.4","0.6","0.8","0.2","0.136761637","0.3586422101","0.3192524042","0.3026157476","","","","","","","","","","","","","","75","K","2","","","183","main_expt","",""
"","bandit","267","631863","0.0-225.0-0.0","53501570","wem/bandit_party_1","A3BXT78QXFC6F3","either","2","714","","","","","","","0","0","1","0.3332516821","","0.4","0.6","0.8","0.2","","","","","0.1685989701","0.3879999062","0.3332516821","0.3360229169","","","","","","","","","","75","K","2","","","184","main_expt","",""
"","bandit","268","633474","0.0-226.0-0.0","53501570","wem/bandit_party_1","A3BXT78QXFC6F3","either","2","56","","","","","","","0","0","1","0.1663529744","","0.4","0.6","0.8","0.2","","","","","0.1663529744","0.3831340227","0.3228184693","0.3336456265","","","","","","","","","","72","H","0","img/none_selected.jpg","","185","main_expt","",""
"","bandit","269","635663","0.0-227.0-0.0","53501570","wem/bandit_party_1","A3BXT78QXFC6F3","either","2","21","","","","","","","0","0","1","0.3999004662","","0.4","0.6","0.8","0.2","","","","","0.1916836285","0.3999004662","0.3111703144","0.3308881938","","","","","","","","","","74","J","1","","","186","main_expt","",""
"","bandit","270","637215","0.0-228.0-0.0","53501570","wem/bandit_party_1","A3BXT78QXFC6F3","either","2","1","","","","","","","0","0","1","","0.3875363153","0.4","0.6","0.8","0.2","0.1686829448","0.3875363153","0.3353611299","0.325530054","","","","","","","","","","","","","","74","J","1","","","187","main_expt","",""
"","bandit","271","638955","0.0-229.0-0.0","53501570","wem/bandit_party_1","A3BXT78QXFC6F3","either","2","32","","","","","","","0","0","1","0.3646937268","","0.4","0.6","0.8","0.2","","","","","0.1461675531","0.3875691392","0.3646937268","0.3055482451","","","","","","","","","","75","K","2","","","188","main_expt","",""
"","bandit","272","641862","0.0-230.0-0.0","53501570","wem/bandit_party_1","A3BXT78QXFC6F3","either","2","1369","","","","","","","0","0","1","0.3891323825","","0.4","0.6","0.8","0.2","","","","","0.1382971047","0.4166866882","0.3891323825","0.3002345065","","","","","","","","","","75","K","2","","","189","main_expt","",""
"","bandit","273","643520","0.0-231.0-0.0","53501570","wem/bandit_party_1","A3BXT78QXFC6F3","either","2","108","","","","","","","1","0","0","0.3860741766","","0.4","0.6","0.8","0.2","","","","","0.1898135375","0.4124474499","0.3860741766","0.2693931213","","","","","","","","","","75","K","2","","","190","main_expt","",""
"","bandit","274","645635","0.0-232.0-0.0","53501570","wem/bandit_party_1","A3BXT78QXFC6F3","either","2","1","","","","","","","0","0","1","","0.3864243721","0.4","0.6","0.8","0.2","0.1264917812","0.3638199534","0.3864243721","0.3009284261","","","","","","","","","","","","","","75","K","2","","","191","main_expt","",""
"","bandit","275","647442","0.0-233.0-0.0","53501570","wem/bandit_party_1","A3BXT78QXFC6F3","either","2","187","","","","","","","0","0","1","0.1185409567","","0.4","0.6","0.8","0.2","","","","","0.1185409567","0.3711146034","0.400448014","0.3157917784","","","","","","","","","","72","H","0","img/none_selected.jpg","","192","main_expt","",""
"","bandit","276","649033","0.0-234.0-0.0","53501570","wem/bandit_party_1","A3BXT78QXFC6F3","either","2","56","","","","","","","0","0","1","0.09837948322","","0.4","0.6","0.8","0.2","","","","","0.09837948322","0.3654165885","0.3895367297","0.2999212614","","","","","","","","","","72","H","0","img/none_selected.jpg","","193","main_expt","",""
"","bandit","277","651252","0.0-235.0-0.0","53501570","wem/bandit_party_1","A3BXT78QXFC6F3","either","2","84","","","","","","","0","0","1","","0.137690802","0.4","0.6","0.8","0.2","0.137690802","0.3537818584","0.4032313792","0.3287494418","","","","","","","","","","","","","","72","H","0","img/none_selected.jpg","","194","main_expt","",""
"","bandit","278","653039","0.0-236.0-0.0","53501570","wem/bandit_party_1","A3BXT78QXFC6F3","either","2","30","","","","","","","0","0","1","","0.1683354775","0.4","0.6","0.8","0.2","0.1683354775","0.3597494918","0.337234763","0.3031978913","","","","","","","","","","","","","","72","H","0","img/none_selected.jpg","","195","main_expt","",""
"","bandit","279","654711","0.0-237.0-0.0","53501570","wem/bandit_party_1","A3BXT78QXFC6F3","either","2","106","","","","","","","1","0","0","0.3950764453","","0.4","0.6","0.8","0.2","","","","","0.1561951964","0.3479121901","0.3950764453","0.2901303692","","","","","","","","","","75","K","2","","","196","main_expt","",""
"","bandit","280","658037","0.0-238.0-0.0","53501570","wem/bandit_party_1","A3BXT78QXFC6F3","either","2","8","","","","","","","1","0","0","0.4193743727","","0.4","0.6","0.8","0.2","","","","","0.1329868482","0.3596292454","0.4193743727","0.2444781728","","","","","","","","","","75","K","2","","","197","main_expt","",""
"","bandit","281","659605","0.0-239.0-0.0","53501570","wem/bandit_party_1","A3BXT78QXFC6F3","either","2","8","","","","","","","0","0","1","0.4375347816","","0.4","0.6","0.8","0.2","","","","","0.1730826789","0.3555371828","0.4375347816","0.2140047665","","","","","","","","","","75","K","2","","","198","main_expt","",""
"","bandit","282","661315","0.0-240.0-0.0","53501570","wem/bandit_party_1","A3BXT78QXFC6F3","either","2","48","","","","","","","1","0","0","0.4315030007","","0.4","0.6","0.8","0.2","","","","","0.1385649096","0.4016486285","0.4315030007","0.2077842613","","","","","","","","","","75","K","2","","","199","main_expt","",""
"","bandit","283","663628","0.0-241.0-0.0","53501570","wem/bandit_party_1","A3BXT78QXFC6F3","either","2","748","","","","","","","0","0","1","","0.1941139053","0.4","0.6","0.8","0.2","0.1941139053","0.3871107612","0.4340108373","0.180488049","","","","","","","","","","","","","","72","H","0","img/none_selected.jpg","","200","main_expt","",""
"","bandit","284","665208","0.0-242.0-0.0","53501570","wem/bandit_party_1","A3BXT78QXFC6F3","either","2","28","","","","","","","0","0","1","","0.1825013029","0.4","0.6","0.8","0.2","0.1825013029","0.3856539452","0.441078118","0.2084987087","","","","","","","","","","","","","","72","H","0","img/none_selected.jpg","","201","main_expt","",""
"","bandit","285","667187","0.0-243.0-0.0","53501570","wem/bandit_party_1","A3BXT78QXFC6F3","either","2","10","","","","","","","0","0","1","0.358588673","","0.4","0.6","0.8","0.2","","","","","0.162440572","0.358588673","0.4143682719","0.1869669721","","","","","","","","","","74","J","1","","","202","main_expt","",""
"","bandit","286","668957","0.0-244.0-0.0","53501570","wem/bandit_party_1","A3BXT78QXFC6F3","either","2","118","","","","","","","1","0","0","0.4280720422","","0.4","0.6","0.8","0.2","","","","","0.1914238456","0.3460881607","0.4280720422","0.1383076553","","","","","","","","","","75","K","2","","","203","main_expt","",""
"","bandit","287","670633","0.0-245.0-0.0","53501570","wem/bandit_party_1","A3BXT78QXFC6F3","either","2","103","","","","","","","1","0","0","0.4113524858","","0.4","0.6","0.8","0.2","","","","","0.1849793247","0.3091432968","0.4113524858","0.1656187697","","","","","","","","","","75","K","2","","","204","main_expt","",""
"","bandit","288","673004","0.0-246.0-0.0","53501570","wem/bandit_party_1","A3BXT78QXFC6F3","either","2","108","","","","","","","0","1","0","","0.3016396897","0.4","0.6","0.8","0.2","0.1722293799","0.3016396897","0.4151465815","0.1699285253","","","","","","","","","","","","","","74","J","1","","","205","main_expt","",""
"","bandit","289","674913","0.0-247.0-0.0","53501570","wem/bandit_party_1","A3BXT78QXFC6F3","either","2","351","","","","","","","0","0","1","0.3300702997","","0.4","0.6","0.8","0.2","","","","","0.1625694713","0.3300702997","0.4002359997","0.161732949","","","","","","","","","","74","J","1","","","206","main_expt","",""
"","bandit","290","676922","0.0-248.0-0.0","53501570","wem/bandit_party_1","A3BXT78QXFC6F3","either","2","2","","","","","","","0","0","1","0.3692387261","","0.4","0.6","0.8","0.2","","","","","0.1079769143","0.2648848683","0.3692387261","0.1699017951","","","","","","","","","","75","K","2","","","207","main_expt","",""
"","bandit","291","678490","0.0-249.0-0.0","53501570","wem/bandit_party_1","A3BXT78QXFC6F3","either","2","11","","","","","","","0","0","1","0.2502792914","","0.4","0.6","0.8","0.2","","","","","0.1380178959","0.2502792914","0.3283471685","0.1592107695","","","","","","","","","","74","J","1","","","208","main_expt","",""
"","bandit","292","680412","0.0-250.0-0.0","53501570","wem/bandit_party_1","A3BXT78QXFC6F3","either","2","187","","","","","","","0","0","1","","0.1538506734","0.4","0.6","0.8","0.2","0.1538506734","0.2770073026","0.2924758898","0.1659907122","","","","","","","","","","","","","","72","H","0","img/none_selected.jpg","","209","main_expt","",""
"","bandit","293","682061","0.0-251.0-0.0","53501570","wem/bandit_party_1","A3BXT78QXFC6F3","either","2","66","","","","","","","0","0","1","0.2279470939","","0.4","0.6","0.8","0.2","","","","","0.1406222791","0.3451435735","0.2279470939","0.229525517","","","","","","","","","","75","K","2","","","210","main_expt","",""
"","bandit","294","683729","0.0-252.0-0.0","53501570","wem/bandit_party_1","A3BXT78QXFC6F3","either","2","108","","","","","","","0","0","1","0.2131844406","","0.4","0.6","0.8","0.2","","","","","0.08987887408","0.3514478275","0.2131844406","0.2434605193","","","","","","","","","","75","K","2","","","211","main_expt","",""
"","bandit","295","685442","0.0-253.0-0.0","53501570","wem/bandit_party_1","A3BXT78QXFC6F3","either","2","79","","","","","","","0","0","1","0.1277875359","","0.4","0.6","0.8","0.2","","","","","0.1277875359","0.3579324364","0.1601793481","0.1633214123","","","","","","","","","","72","H","0","img/none_selected.jpg","","212","main_expt","",""
"","bandit","296","687179","0.0-254.0-0.0","53501570","wem/bandit_party_1","A3BXT78QXFC6F3","either","2","8","","","","","","","0","0","1","0.1354109392","","0.4","0.6","0.8","0.2","","","","","0.134271297","0.3231243524","0.1354109392","0.1014835246","","","","","","","","","","75","K","2","","","213","main_expt","",""
"","bandit","297","689158","0.0-255.0-0.0","53501570","wem/bandit_party_1","A3BXT78QXFC6F3","either","2","229","","","","","","","0","0","1","0.1385204111","","0.4","0.6","0.8","0.2","","","","","0.1385204111","0.2798540136","0.1142105534","0.09587264096","","","","","","","","","","72","H","0","img/none_selected.jpg","","214","main_expt","",""
"","bandit","298","690783","0.0-256.0-0.0","53501570","wem/bandit_party_1","A3BXT78QXFC6F3","either","2","21","","","","","","","0","0","1","0.2469391402","","0.4","0.6","0.8","0.2","","","","","0.1089132689","0.2469391402","0.1031311673","0.08342689115","","","","","","","","","","74","J","1","","","215","main_expt","",""
"","bandit","299","693536","0.0-257.0-0.0","53501570","wem/bandit_party_1","A3BXT78QXFC6F3","either","2","212","","","","","","","1","0","0","0.1299508563","","0.4","0.6","0.8","0.2","","","","","0.1299508563","0.3211823944","0.1031732366","0.05361264496","","","","","","","","","","72","H","0","img/none_selected.jpg","","216","main_expt","",""
"","bandit","300","695082","0.0-258.0-0.0","53501570","wem/bandit_party_1","A3BXT78QXFC6F3","either","2","1","","","","","","","0","0","1","0.3545519007","","0.4","0.6","0.8","0.2","","","","","0.131109262","0.3545519007","0.1188097379","0.09912420903","","","","","","","","","","74","J","1","","","217","main_expt","",""
"","bandit","301","697525","0.0-259.0-0.0","53501570","wem/bandit_party_1","A3BXT78QXFC6F3","either","2","199","","","","","","","0","0","1","","0.3781539282","0.4","0.6","0.8","0.2","0.1039495344","0.3781539282","0.1096623481","0.1021137889","","","","","","","","","","","","","","74","J","1","","","218","main_expt","",""
"","bandit","302","699384","0.0-260.0-0.0","53501570","wem/bandit_party_1","A3BXT78QXFC6F3","either","2","287","","","","","","","0","0","1","0.09488552944","","0.4","0.6","0.8","0.2","","","","","0.09488552944","0.3674409598","0.08679630722","0.1025207236","","","","","","","","","","72","H","0","img/none_selected.jpg","","219","main_expt","",""
"","bandit","303","700959","0.0-261.0-0.0","53501570","wem/bandit_party_1","A3BXT78QXFC6F3","either","2","1","","","","","","","1","0","0","0.315237632","","0.4","0.6","0.8","0.2","","","","","0.1311925698","0.315237632","0.1482089448","0.1049734862","","","","","","","","","","74","J","1","","","220","main_expt","",""
"","bandit","304","702765","0.0-262.0-0.0","53501570","wem/bandit_party_1","A3BXT78QXFC6F3","either","2","98","","","","","","","0","0","1","","0.08224132258","0.4","0.6","0.8","0.2","0.08224132258","0.3572442142","0.217172314","0.08244295151","","","","","","","","","","","","","","72","H","0","img/none_selected.jpg","","221","main_expt","",""
"","bandit","305","704413","0.0-263.0-0.0","53501570","wem/bandit_party_1","A3BXT78QXFC6F3","either","2","17","","","","","","","0","0","1","","0.06870998364","0.4","0.6","0.8","0.2","0.06870998364","0.2796125419","0.2227738938","0.09815111748","","","","","","","","","","","","","","72","H","0","img/none_selected.jpg","","222","main_expt","",""
"","bandit","306","706249","0.0-264.0-0.0","53501570","wem/bandit_party_1","A3BXT78QXFC6F3","either","2","268","","","","","","","0","0","1","0.111762886","","0.4","0.6","0.8","0.2","","","","","0.111762886","0.2265565182","0.2768694491","0.09925351505","","","","","","","","","","72","H","0","img/none_selected.jpg","","223","main_expt","",""
"","bandit","307","708490","0.0-265.0-0.0","53501570","wem/bandit_party_1","A3BXT78QXFC6F3","either","2","12","","","","","","","0","0","1","","0.09652303785","0.4","0.6","0.8","0.2","0.09652303785","0.1727872262","0.2895694018","0.07842644678","","","","","","","","","","","","","","72","H","0","img/none_selected.jpg","","224","main_expt","",""
"","bandit","308","710070","0.0-266.0-0.0","53501570","wem/bandit_party_1","A3BXT78QXFC6F3","either","2","2","","","","","","","0","0","1","0.3515154126","","0.4","0.6","0.8","0.2","","","","","0.09424892582","0.1580797834","0.3515154126","0.05284632075","","","","","","","","","","75","K","2","","","225","main_expt","",""
"","bandit","309","711801","0.0-267.0-0.0","53501570","wem/bandit_party_1","A3BXT78QXFC6F3","either","2","18","","","","","","","0","0","1","0.3960872924","","0.4","0.6","0.8","0.2","","","","","0.1094697254","0.1206031336","0.3960872924","0.06788221328","","","","","","","","","","75","K","2","","","226","main_expt","",""
"","bandit","310","714094","0.0-268.0-0.0","53501570","wem/bandit_party_1","A3BXT78QXFC6F3","either","2","706","","","","","","","0","0","1","","0.1055794081","0.4","0.6","0.8","0.2","0.1055794081","0.1218099769","0.3301105445","0.04226868229","","","","","","","","","","","","","","72","H","0","img/none_selected.jpg","","227","main_expt","",""
"","bandit","311","716170","0.0-269.0-0.0","53501570","wem/bandit_party_1","A3BXT78QXFC6F3","either","2","514","","","","","","","0","0","1","0.08458740206","","0.4","0.6","0.8","0.2","","","","","0.1210232629","0.08458740206","0.3679650562","0.06174471126","","","","","","","","","","74","J","1","","","228","main_expt","",""
"","bandit","312","718602","0.0-270.0-0.0","53501570","wem/bandit_party_1","A3BXT78QXFC6F3","either","2","93","","","","","","","1","0","0","0.3413725311","","0.4","0.6","0.8","0.2","","","","","0.1249199002","0.06311990622","0.3413725311","0.06122033102","","","","","","","","","","75","K","2","","","229","main_expt","",""
"","bandit","313","720368","0.0-271.0-0.0","53501570","wem/bandit_party_1","A3BXT78QXFC6F3","either","2","200","","","","","","","0","0","1","0.1423167866","","0.4","0.6","0.8","0.2","","","","","0.1423167866","0.04674316758","0.3652503211","0.09369367087","","","","","","","","","","72","H","0","img/none_selected.jpg","","230","main_expt","",""
"","bandit","314","723064","0.0-272.0-0.0","53501570","wem/bandit_party_1","A3BXT78QXFC6F3","either","2","127","","","","","","","0","0","1","0.06697327866","","0.4","0.6","0.8","0.2","","","","","0.1441411413","0.06697327866","0.3774172636","0.1378364932","","","","","","","","","","74","J","1","","","231","main_expt","",""
