"consent","trial_type","trial_index","time_elapsed","internal_node_id","subjID","study","MID","cond","drift","rt","responses","button_pressed","key_press","like","value","connected","gems","bombs","no_reward","GemPrChosen","BombPrChosen","GainOverPainPr_0","GainOverPainPr_1","GainOverPainPr_2","GainOverPainPr_3","LosePr_0","LosePr_1","LosePr_2","LosePr_3","WinPr_0","WinPr_1","WinPr_2","WinPr_3","Q0","Q1","Q2","gender","age","ethnicity","label","expt_phase","target","respCharCode","respKey","respChoiceNum","respChoice","practice","trial_counter","trial_label","Q0_index","view_history"
"GDM/GDM_behavioral_consent_30min_online.html","consent","0","5609","0.0-0.0","58162224","wem/bandit_party_1","AD8JNBDMO3NED","either","7","","","","","","","","","","","","","","","","","","","","","","","","","","","","","","","","","","","","","","","","","",""
"","survey-text","1","8694","0.0-1.0","58162224","wem/bandit_party_1","AD8JNBDMO3NED","either","7","2072","{""Q0"":""AD8JNBDMO3NED""}","","","","","","","","","","","","","","","","","","","","","","","","","","","","","","","","","","","","","","","",""
"","button-response","2","11277","0.0-2.0","58162224","wem/bandit_party_1","AD8JNBDMO3NED","either","7","1574","","1","","","","","","","","","","","","","","","","","","","","","","","","","","","","","","","","","","","","","","",""
"","text-replacement","3","21453","0.0-3.0","58162224","wem/bandit_party_1","AD8JNBDMO3NED","either","7","9171","","","32","","","","","","","","","","","","","","","","","","","","","","","","","","","","","","","","","","","","","",""
"","text-replacement","4","23167","0.0-4.0","58162224","wem/bandit_party_1","AD8JNBDMO3NED","either","7","1711","","","32","","","","","","","","","","","","","","","","","","","","","","","","","","","","","","","","","","","","","",""
"","identification","5","27531","0.0-6.0-0.0","58162224","wem/bandit_party_1","AD8JNBDMO3NED","either","7","4329","","","","4","4","3","","","","","","","","","","","","","","","","","","","","","","","","pre","identification_pre","the Democratic Party","","","","","","","","",""
"","identification","6","31012","0.0-6.0-1.0","58162224","wem/bandit_party_1","AD8JNBDMO3NED","either","7","2442","","","","2","2","3","","","","","","","","","","","","","","","","","","","","","","","","pre","identification_pre","the Republican party","","","","","","","","",""
"","text-replacement","7","38694","0.0-7.0","58162224","wem/bandit_party_1","AD8JNBDMO3NED","either","7","6679","","","32","","","","","","","","","","","","","","","","","","","","","","","","","","","","","","","","","","","","","",""
"","text-replacement","8","41200","0.0-8.0","58162224","wem/bandit_party_1","AD8JNBDMO3NED","either","7","2503","","","32","","","","","","","","","","","","","","","","","","","","","","","","","","","","","","","","","","","","","",""
"","text-replacement","9","47558","0.0-9.0","58162224","wem/bandit_party_1","AD8JNBDMO3NED","either","7","6355","","","32","","","","","","","","","","","","","","","","","","","","","","","","","","","","","","","","","","","","","",""
"","text-replacement","10","52049","0.0-10.0","58162224","wem/bandit_party_1","AD8JNBDMO3NED","either","7","4488","","","32","","","","","","","","","","","","","","","","","","","","","","","","","","","","","","","","","","","","","",""
"","text-replacement","11","55125","0.0-11.0","58162224","wem/bandit_party_1","AD8JNBDMO3NED","either","7","3073","","","32","","","","","","","","","","","","","","","","","","","","","","","","","","","","","","","","","","","","","",""
"","bandit","12","57242","0.0-12.0-0.0","58162224","wem/bandit_party_1","AD8JNBDMO3NED","either","7","599","","","","","","","0","0","1","0","0","","","","","0","","","","0","","","","","","","","","","","","","74","J","0","img/none_selected_demo.jpg","true","0","","",""
"","bandit","13","59169","0.0-13.0-0.0","58162224","wem/bandit_party_1","AD8JNBDMO3NED","either","7","414","","","","","","","0","0","1","0","0","","","","","0","","","","0","","","","","","","","","","","","","75","K","0","img/none_selected_demo.jpg","true","0","","",""
"","text-replacement","14","62087","0.0-14.0","58162224","wem/bandit_party_1","AD8JNBDMO3NED","either","7","2913","","","32","","","","","","","","","","","","","","","","","","","","","","","","","","","","","","","","","","","","","",""
"","text-replacement","15","62840","0.0-15.0","58162224","wem/bandit_party_1","AD8JNBDMO3NED","either","7","744","","","32","","","","","","","","","","","","","","","","","","","","","","","","","","","","","","","","","","","","","",""
"","text-replacement","16","63655","0.0-16.0","58162224","wem/bandit_party_1","AD8JNBDMO3NED","either","7","810","","","32","","","","","","","","","","","","","","","","","","","","","","","","","","","","","","","","","","","","","",""
"","text-replacement","17","64291","0.0-17.0","58162224","wem/bandit_party_1","AD8JNBDMO3NED","either","7","629","","","32","","","","","","","","","","","","","","","","","","","","","","","","","","","","","","","","","","","","","",""
"","bandit","18","65825","0.0-18.0-0.0","58162224","wem/bandit_party_1","AD8JNBDMO3NED","either","7","11","","","","","","","0","0","1","0.2","","0.5","0.5","","","","","","","0.8","0.2","","","","","","","","","","","","75","K","1","","true","0","80_20_practice","",""
"","bandit","19","67562","0.0-18.0-1.0","58162224","wem/bandit_party_1","AD8JNBDMO3NED","either","7","218","","","","","","","0","0","1","0.2","","0.5","0.5","","","","","","","0.8","0.2","","","","","","","","","","","","75","K","1","","true","0","80_20_practice","",""
"","bandit","20","69261","0.0-18.0-2.0","58162224","wem/bandit_party_1","AD8JNBDMO3NED","either","7","186","","","","","","","0","0","1","0.8","","0.5","0.5","","","","","","","0.8","0.2","","","","","","","","","","","","74","J","0","img/none_selected_demo.jpg","true","0","80_20_practice","",""
"","bandit","21","70944","0.0-18.0-3.0","58162224","wem/bandit_party_1","AD8JNBDMO3NED","either","7","169","","","","","","","1","0","0","0.8","","0.5","0.5","","","","","","","0.8","0.2","","","","","","","","","","","","74","J","0","img/none_selected_demo.jpg","true","0","80_20_practice","",""
"","bandit","22","72562","0.0-18.0-4.0","58162224","wem/bandit_party_1","AD8JNBDMO3NED","either","7","106","","","","","","","0","1","0","","0.8","0.5","0.5","","","0.8","0.2","","","","","","","","","","","","","","","","74","J","0","img/none_selected_demo.jpg","true","0","80_20_practice","",""
"","bandit","23","74150","0.0-18.0-5.0","58162224","wem/bandit_party_1","AD8JNBDMO3NED","either","7","74","","","","","","","0","0","1","0.2","","0.5","0.5","","","","","","","0.8","0.2","","","","","","","","","","","","75","K","1","","true","0","80_20_practice","",""
"","bandit","24","75798","0.0-18.0-6.0","58162224","wem/bandit_party_1","AD8JNBDMO3NED","either","7","134","","","","","","","0","1","0","","0.8","0.5","0.5","","","0.8","0.2","","","","","","","","","","","","","","","","74","J","0","img/none_selected_demo.jpg","true","0","80_20_practice","",""
"","bandit","25","77425","0.0-18.0-7.0","58162224","wem/bandit_party_1","AD8JNBDMO3NED","either","7","112","","","","","","","0","0","1","0.2","","0.5","0.5","","","","","","","0.8","0.2","","","","","","","","","","","","75","K","1","","true","0","80_20_practice","",""
"","bandit","26","79027","0.0-18.0-8.0","58162224","wem/bandit_party_1","AD8JNBDMO3NED","either","7","87","","","","","","","0","0","1","0.2","","0.5","0.5","","","","","","","0.8","0.2","","","","","","","","","","","","75","K","1","","true","0","80_20_practice","",""
"","bandit","27","80672","0.0-18.0-9.0","58162224","wem/bandit_party_1","AD8JNBDMO3NED","either","7","131","","","","","","","0","1","0","","0.8","0.5","0.5","","","0.8","0.2","","","","","","","","","","","","","","","","74","J","0","img/none_selected_demo.jpg","true","0","80_20_practice","",""
"","bandit","28","82326","0.0-18.0-10.0","58162224","wem/bandit_party_1","AD8JNBDMO3NED","either","7","139","","","","","","","0","1","0","","0.8","0.5","0.5","","","0.8","0.2","","","","","","","","","","","","","","","","74","J","0","img/none_selected_demo.jpg","true","0","80_20_practice","",""
"","bandit","29","83964","0.0-18.0-11.0","58162224","wem/bandit_party_1","AD8JNBDMO3NED","either","7","126","","","","","","","0","0","1","","0.2","0.5","0.5","","","0.8","0.2","","","","","","","","","","","","","","","","75","K","1","","true","0","80_20_practice","",""
"","bandit","30","85641","0.0-18.0-12.0","58162224","wem/bandit_party_1","AD8JNBDMO3NED","either","7","163","","","","","","","0","1","0","","0.2","0.5","0.5","","","0.8","0.2","","","","","","","","","","","","","","","","75","K","1","","true","0","80_20_practice","",""
"","bandit","31","87296","0.0-18.0-13.0","58162224","wem/bandit_party_1","AD8JNBDMO3NED","either","7","142","","","","","","","1","0","0","0.8","","0.5","0.5","","","","","","","0.8","0.2","","","","","","","","","","","","74","J","0","img/none_selected_demo.jpg","true","0","80_20_practice","",""
"","bandit","32","88959","0.0-18.0-14.0","58162224","wem/bandit_party_1","AD8JNBDMO3NED","either","7","149","","","","","","","1","0","0","0.8","","0.5","0.5","","","","","","","0.8","0.2","","","","","","","","","","","","74","J","0","img/none_selected_demo.jpg","true","0","80_20_practice","",""
"","bandit","33","90629","0.0-18.0-15.0","58162224","wem/bandit_party_1","AD8JNBDMO3NED","either","7","157","","","","","","","0","0","1","0.8","","0.5","0.5","","","","","","","0.8","0.2","","","","","","","","","","","","74","J","0","img/none_selected_demo.jpg","true","0","80_20_practice","",""
"","bandit","34","92192","0.0-18.0-16.0","58162224","wem/bandit_party_1","AD8JNBDMO3NED","either","7","50","","","","","","","0","0","1","","0.2","0.5","0.5","","","0.8","0.2","","","","","","","","","","","","","","","","75","K","1","","true","0","80_20_practice","",""
"","bandit","35","93732","0.0-18.0-17.0","58162224","wem/bandit_party_1","AD8JNBDMO3NED","either","7","29","","","","","","","0","1","0","","0.8","0.5","0.5","","","0.8","0.2","","","","","","","","","","","","","","","","74","J","0","img/none_selected_demo.jpg","true","0","80_20_practice","",""
"","bandit","36","95256","0.0-18.0-18.0","58162224","wem/bandit_party_1","AD8JNBDMO3NED","either","7","12","","","","","","","0","0","1","","0.2","0.5","0.5","","","0.8","0.2","","","","","","","","","","","","","","","","75","K","1","","true","0","80_20_practice","",""
"","bandit","37","96974","0.0-18.0-19.0","58162224","wem/bandit_party_1","AD8JNBDMO3NED","either","7","201","","","","","","","0","0","1","0.2","","0.5","0.5","","","","","","","0.8","0.2","","","","","","","","","","","","75","K","1","","true","0","80_20_practice","",""
"","text-replacement","38","102395","0.0-19.0","58162224","wem/bandit_party_1","AD8JNBDMO3NED","either","7","5417","","","32","","","","","","","","","","","","","","","","","","","","","","","","","","","","","","","","","","","","","",""
"","bandit","39","105222","0.0-20.0-0.0","58162224","wem/bandit_party_1","AD8JNBDMO3NED","either","7","1313","","","","","","","0","1","0","0","1","","","","","0","1","","","1","0","","","","","","","","","","","","75","K","1","","true","0","","",""
"","text-replacement","40","105327","0.0-21.0","58162224","wem/bandit_party_1","AD8JNBDMO3NED","either","7","101","","","74","","","","","","","","","","","","","","","","","","","","","","","","","","","","","","","","","","","","","",""
"","text-replacement","41","109806","0.0-22.0","58162224","wem/bandit_party_1","AD8JNBDMO3NED","either","7","4476","","","32","","","","","","","","","","","","","","","","","","","","","","","","","","","","","","","","","","","","","",""
"","text-replacement","42","110307","0.0-23.0","58162224","wem/bandit_party_1","AD8JNBDMO3NED","either","7","497","","","32","","","","","","","","","","","","","","","","","","","","","","","","","","","","","","","","","","","","","",""
"","text-replacement","43","111015","0.0-24.0","58162224","wem/bandit_party_1","AD8JNBDMO3NED","either","7","706","","","32","","","","","","","","","","","","","","","","","","","","","","","","","","","","","","","","","","","","","",""
"","text-replacement","44","111294","0.0-25.0","58162224","wem/bandit_party_1","AD8JNBDMO3NED","either","7","275","","","32","","","","","","","","","","","","","","","","","","","","","","","","","","","","","","","","","","","","","",""
"","text-replacement","45","111562","0.0-26.0","58162224","wem/bandit_party_1","AD8JNBDMO3NED","either","7","266","","","32","","","","","","","","","","","","","","","","","","","","","","","","","","","","","","","","","","","","","",""
"","text-replacement","46","111965","0.0-27.0","58162224","wem/bandit_party_1","AD8JNBDMO3NED","either","7","400","","","32","","","","","","","","","","","","","","","","","","","","","","","","","","","","","","","","","","","","","",""
"","text-replacement","47","112112","0.0-28.0","58162224","wem/bandit_party_1","AD8JNBDMO3NED","either","7","143","","","32","","","","","","","","","","","","","","","","","","","","","","","","","","","","","","","","","","","","","",""
"","text-replacement","48","112399","0.0-29.0","58162224","wem/bandit_party_1","AD8JNBDMO3NED","either","7","285","","","32","","","","","","","","","","","","","","","","","","","","","","","","","","","","","","","","","","","","","",""
"","text-replacement","49","112744","0.0-30.0","58162224","wem/bandit_party_1","AD8JNBDMO3NED","either","7","341","","","32","","","","","","","","","","","","","","","","","","","","","","","","","","","","","","","","","","","","","",""
"","text-replacement","50","113082","0.0-31.0","58162224","wem/bandit_party_1","AD8JNBDMO3NED","either","7","336","","","32","","","","","","","","","","","","","","","","","","","","","","","","","","","","","","","","","","","","","",""
"","bandit","51","114731","0.0-32.0-0.0","58162224","wem/bandit_party_1","AD8JNBDMO3NED","either","7","135","","","","","","","0","0","1","0.2","","0.5","0.5","0.5","0.5","","","","","0.8","0.2","0.6","0.2","","","","","","","","","","74","J","1","","true","0","full_practice","",""
"","bandit","52","116403","0.0-32.0-1.0","58162224","wem/bandit_party_1","AD8JNBDMO3NED","either","7","157","","","","","","","0","0","1","0.2","","0.5","0.5","0.5","0.5","","","","","0.8","0.2","0.6","0.2","","","","","","","","","","74","J","1","","true","0","full_practice","",""
"","bandit","53","117931","0.0-32.0-2.0","58162224","wem/bandit_party_1","AD8JNBDMO3NED","either","7","14","","","","","","","0","0","1","","0.2","0.5","0.5","0.5","0.5","0.8","0.2","0.6","0.2","","","","","","","","","","","","","","74","J","1","","true","0","full_practice","",""
"","bandit","54","119496","0.0-32.0-3.0","58162224","wem/bandit_party_1","AD8JNBDMO3NED","either","7","51","","","","","","","0","1","0","","0.6","0.5","0.5","0.5","0.5","0.8","0.2","0.6","0.2","","","","","","","","","","","","","","75","K","2","","true","0","full_practice","",""
"","bandit","55","121126","0.0-32.0-4.0","58162224","wem/bandit_party_1","AD8JNBDMO3NED","either","7","117","","","","","","","1","0","0","0.2","","0.5","0.5","0.5","0.5","","","","","0.8","0.2","0.6","0.2","","","","","","","","","","74","J","1","","true","0","full_practice","",""
"","bandit","56","122724","0.0-32.0-5.0","58162224","wem/bandit_party_1","AD8JNBDMO3NED","either","7","80","","","","","","","0","0","1","","0.2","0.5","0.5","0.5","0.5","0.8","0.2","0.6","0.2","","","","","","","","","","","","","","76","L","3","","true","0","full_practice","",""
"","bandit","57","124485","0.0-32.0-6.0","58162224","wem/bandit_party_1","AD8JNBDMO3NED","either","7","247","","","","","","","0","0","1","","0.8","0.5","0.5","0.5","0.5","0.8","0.2","0.6","0.2","","","","","","","","","","","","","","72","H","0","img/none_selected.jpg","true","0","full_practice","",""
"","bandit","58","126074","0.0-32.0-7.0","58162224","wem/bandit_party_1","AD8JNBDMO3NED","either","7","76","","","","","","","0","0","1","","0.2","0.5","0.5","0.5","0.5","0.8","0.2","0.6","0.2","","","","","","","","","","","","","","74","J","1","","true","0","full_practice","",""
"","bandit","59","127632","0.0-32.0-8.0","58162224","wem/bandit_party_1","AD8JNBDMO3NED","either","7","44","","","","","","","0","0","1","0.6","","0.5","0.5","0.5","0.5","","","","","0.8","0.2","0.6","0.2","","","","","","","","","","75","K","2","","true","0","full_practice","",""
"","bandit","60","129178","0.0-32.0-9.0","58162224","wem/bandit_party_1","AD8JNBDMO3NED","either","7","33","","","","","","","1","0","0","0.8","","0.5","0.5","0.5","0.5","","","","","0.8","0.2","0.6","0.2","","","","","","","","","","72","H","0","img/none_selected.jpg","true","0","full_practice","",""
"","bandit","61","130696","0.0-32.0-10.0","58162224","wem/bandit_party_1","AD8JNBDMO3NED","either","7","5","","","","","","","0","0","1","0.2","","0.5","0.5","0.5","0.5","","","","","0.8","0.2","0.6","0.2","","","","","","","","","","76","L","3","","true","0","full_practice","",""
"","bandit","62","132291","0.0-32.0-11.0","58162224","wem/bandit_party_1","AD8JNBDMO3NED","either","7","84","","","","","","","0","0","1","0.2","","0.5","0.5","0.5","0.5","","","","","0.8","0.2","0.6","0.2","","","","","","","","","","76","L","3","","true","0","full_practice","",""
"","bandit","63","133805","0.0-32.0-12.0","58162224","wem/bandit_party_1","AD8JNBDMO3NED","either","7","1","","","","","","","0","1","0","","0.2","0.5","0.5","0.5","0.5","0.8","0.2","0.6","0.2","","","","","","","","","","","","","","76","L","3","","true","0","full_practice","",""
"","bandit","64","135332","0.0-32.0-13.0","58162224","wem/bandit_party_1","AD8JNBDMO3NED","either","7","12","","","","","","","0","0","1","","0.6","0.5","0.5","0.5","0.5","0.8","0.2","0.6","0.2","","","","","","","","","","","","","","75","K","2","","true","0","full_practice","",""
"","bandit","65","136848","0.0-32.0-14.0","58162224","wem/bandit_party_1","AD8JNBDMO3NED","either","7","3","","","","","","","0","1","0","","0.8","0.5","0.5","0.5","0.5","0.8","0.2","0.6","0.2","","","","","","","","","","","","","","72","H","0","img/none_selected.jpg","true","0","full_practice","",""
"","bandit","66","138385","0.0-32.0-15.0","58162224","wem/bandit_party_1","AD8JNBDMO3NED","either","7","25","","","","","","","0","1","0","","0.2","0.5","0.5","0.5","0.5","0.8","0.2","0.6","0.2","","","","","","","","","","","","","","76","L","3","","true","0","full_practice","",""
"","bandit","67","139929","0.0-32.0-16.0","58162224","wem/bandit_party_1","AD8JNBDMO3NED","either","7","18","","","","","","","0","0","1","0.2","","0.5","0.5","0.5","0.5","","","","","0.8","0.2","0.6","0.2","","","","","","","","","","74","J","1","","true","0","full_practice","",""
"","bandit","68","141584","0.0-32.0-17.0","58162224","wem/bandit_party_1","AD8JNBDMO3NED","either","7","140","","","","","","","0","0","1","","0.2","0.5","0.5","0.5","0.5","0.8","0.2","0.6","0.2","","","","","","","","","","","","","","76","L","3","","true","0","full_practice","",""
"","bandit","69","143157","0.0-32.0-18.0","58162224","wem/bandit_party_1","AD8JNBDMO3NED","either","7","59","","","","","","","0","0","1","","0.2","0.5","0.5","0.5","0.5","0.8","0.2","0.6","0.2","","","","","","","","","","","","","","74","J","1","","true","0","full_practice","",""
"","bandit","70","144673","0.0-32.0-19.0","58162224","wem/bandit_party_1","AD8JNBDMO3NED","either","7","2","","","","","","","0","0","1","0.6","","0.5","0.5","0.5","0.5","","","","","0.8","0.2","0.6","0.2","","","","","","","","","","75","K","2","","true","0","full_practice","",""
"","text","71","148044","0.0-33.0","58162224","wem/bandit_party_1","AD8JNBDMO3NED","either","7","3360","","","32","","","","","","","","","","","","","","","","","","","","","","","","","","","","","","","","","","","","","",""
"","text-replacement","72","150274","0.0-34.0","58162224","wem/bandit_party_1","AD8JNBDMO3NED","either","7","1225","","","32","","","","","","","","","","","","","","","","","","","","","","","","","","","","","","","","","","","","","",""
"","text-replacement","73","150560","0.0-35.0","58162224","wem/bandit_party_1","AD8JNBDMO3NED","either","7","280","","","32","","","","","","","","","","","","","","","","","","","","","","","","","","","","","","","","","","","","","",""
"","text-replacement","74","150749","0.0-36.0","58162224","wem/bandit_party_1","AD8JNBDMO3NED","either","7","184","","","32","","","","","","","","","","","","","","","","","","","","","","","","","","","","","","","","","","","","","",""
"","text-replacement","75","150901","0.0-37.0","58162224","wem/bandit_party_1","AD8JNBDMO3NED","either","7","148","","","32","","","","","","","","","","","","","","","","","","","","","","","","","","","","","","","","","","","","","",""
"","text-replacement","76","151067","0.0-38.0","58162224","wem/bandit_party_1","AD8JNBDMO3NED","either","7","162","","","32","","","","","","","","","","","","","","","","","","","","","","","","","","","","","","","","","","","","","",""
"","survey-multi-choice-replacement","77","155804","0.0-39.0-0.0","58162224","wem/bandit_party_1","AD8JNBDMO3NED","either","7","4716","","","","","","","","","","","","","","","","","","","","","","","","Money will be added to the pool for <span style='color:blue;'>DEMOCRATS</span>","","","","","","","attn_check","","","","","","","","","0",""
"","survey-multi-choice-replacement","78","167252","0.0-40.0-0.0","58162224","wem/bandit_party_1","AD8JNBDMO3NED","either","7","10427","","","","","","","","","","","","","","","","","","","","","","","","Money will be subtracted from the pool for <span style='color:red;'>REPUBLICANS</span>","","","","","","","attn_check","","","","","","","","","1",""
"","instructions","79","169641","0.0-40.0-1.0-0.0","58162224","wem/bandit_party_1","AD8JNBDMO3NED","either","7","1384","","","","","","","","","","","","","","","","","","","","","","","","","","","","","","","","","","","","","","","","","[{""page_index"":0,""viewing_time"":1384}]"
"","survey-multi-choice-replacement","80","175348","0.0-40.1-0.1","58162224","wem/bandit_party_1","AD8JNBDMO3NED","either","7","4694","","","","","","","","","","","","","","","","","","","","","","","","Equal amounts of money will be added to the pool for <span style='color:blue;'>DEMOCRATS</span> and subtracted from the pool for <span style='color:red;'>REPUBLICANS</span>","","","","","","","attn_check","","","","","","","","","2",""
"","survey-multi-choice-replacement","81","180989","0.0-41.0-0.0","58162224","wem/bandit_party_1","AD8JNBDMO3NED","either","7","4627","","","","","","","","","","","","","","","","","","","","","","","","No money will be added to either pool","","","","","","","attn_check","","","","","","","","","3",""
"","bandit","82","184763","0.0-42.0-0.0","58162224","wem/bandit_party_1","AD8JNBDMO3NED","either","7","1255","","","","","","","0","0","1","0.06530018083","","0.2","0.6","0.4","0.8","","","","","0.1952616071","0.1480066451","0.01738065524","0.06530018083","","","","","","","","","","76","L","3","","","1","main_expt","",""
"","bandit","83","186320","0.0-43.0-0.0","58162224","wem/bandit_party_1","AD8JNBDMO3NED","either","7","37","","","","","","","0","0","1","0.0196943787","","0.2","0.6","0.4","0.8","","","","","0.1652234336","0.1053714073","0.0196943787","0.1011701763","","","","","","","","","","75","K","2","","","2","main_expt","",""
"","bandit","84","187841","0.0-44.0-0.0","58162224","wem/bandit_party_1","AD8JNBDMO3NED","either","7","7","","","","","","","0","0","1","0.1460078221","","0.2","0.6","0.4","0.8","","","","","0.1347382479","0.1460078221","0.01678573497","0.09486719381","","","","","","","","","","74","J","1","","","3","main_expt","",""
"","bandit","85","189531","0.0-45.0-0.0","58162224","wem/bandit_party_1","AD8JNBDMO3NED","either","7","176","","","","","","","0","0","1","","0.1866138214","0.2","0.6","0.4","0.8","0.1684625442","0.1866138214","0.02981965743","0.06705802814","","","","","","","","","","","","","","74","J","1","","","4","main_expt","",""
"","bandit","86","191283","0.0-46.0-0.0","58162224","wem/bandit_party_1","AD8JNBDMO3NED","either","7","221","","","","","","","0","1","0","","0.1792029032","0.2","0.6","0.4","0.8","0.1792029032","0.2445348717","0.02600208211","0.0822298525","","","","","","","","","","","","","","72","H","0","img/none_selected.jpg","","5","main_expt","",""
"","bandit","87","192914","0.0-47.0-0.0","58162224","wem/bandit_party_1","AD8JNBDMO3NED","either","7","115","","","","","","","0","0","1","","0.2546962146","0.2","0.6","0.4","0.8","0.2153873139","0.2546962146","0.02332436933","0.09162209411","","","","","","","","","","","","","","74","J","1","","","6","main_expt","",""
"","bandit","88","194572","0.0-48.0-0.0","58162224","wem/bandit_party_1","AD8JNBDMO3NED","either","7","142","","","","","","","0","0","1","0.2344841702","","0.2","0.6","0.4","0.8","","","","","0.1757762721","0.2344841702","0.02864040813","0.1028820098","","","","","","","","","","74","J","1","","","7","main_expt","",""
"","bandit","89","196154","0.0-49.0-0.0","58162224","wem/bandit_party_1","AD8JNBDMO3NED","either","7","67","","","","","","","0","0","1","0.02951264166","","0.2","0.6","0.4","0.8","","","","","0.2241229746","0.2473344203","0.02951264166","0.1532270122","","","","","","","","","","75","K","2","","","8","main_expt","",""
"","bandit","90","197732","0.0-50.0-0.0","58162224","wem/bandit_party_1","AD8JNBDMO3NED","either","7","60","","","","","","","0","0","1","0.2642160399","","0.2","0.6","0.4","0.8","","","","","0.2199426203","0.2642160399","0.02997011939","0.2131450397","","","","","","","","","","74","J","1","","","9","main_expt","",""
"","bandit","91","199268","0.0-51.0-0.0","58162224","wem/bandit_party_1","AD8JNBDMO3NED","either","7","21","","","","","","","0","0","1","","0.2104627424","0.2","0.6","0.4","0.8","0.1520686932","0.2104627424","0.02489651457","0.2985754635","","","","","","","","","","","","","","74","J","1","","","10","main_expt","",""
"","bandit","92","200832","0.0-52.0-0.0","58162224","wem/bandit_party_1","AD8JNBDMO3NED","either","7","51","","","","","","","0","0","1","0.2924640086","","0.2","0.6","0.4","0.8","","","","","0.2013349999","0.219372878","0.01651058827","0.2924640086","","","","","","","","","","76","L","3","","","11","main_expt","",""
"","bandit","93","202346","0.0-53.0-0.0","58162224","wem/bandit_party_1","AD8JNBDMO3NED","either","7","0","","","","","","","0","0","1","","0.02341729431","0.2","0.6","0.4","0.8","0.2156800105","0.2105839871","0.02341729431","0.3264291113","","","","","","","","","","","","","","75","K","2","","","12","main_expt","",""
"","bandit","94","203934","0.0-54.0-0.0","58162224","wem/bandit_party_1","AD8JNBDMO3NED","either","7","73","","","","","","","0","0","1","","0.2511698571","0.2","0.6","0.4","0.8","0.1833947696","0.2511698571","0.0257410372","0.3254913314","","","","","","","","","","","","","","74","J","1","","","13","main_expt","",""
"","bandit","95","205488","0.0-55.0-0.0","58162224","wem/bandit_party_1","AD8JNBDMO3NED","either","7","39","","","","","","","0","0","1","","0.243643366","0.2","0.6","0.4","0.8","0.243643366","0.2158977649","0.02570014082","0.3428504842","","","","","","","","","","","","","","72","H","0","img/none_selected.jpg","","14","main_expt","",""
"","bandit","96","207044","0.0-56.0-0.0","58162224","wem/bandit_party_1","AD8JNBDMO3NED","either","7","40","","","","","","","0","0","1","0.3244047679","","0.2","0.6","0.4","0.8","","","","","0.2265365198","0.2762480727","0.04268316416","0.3244047679","","","","","","","","","","76","L","3","","","15","main_expt","",""
"","bandit","97","208680","0.0-57.0-0.0","58162224","wem/bandit_party_1","AD8JNBDMO3NED","either","7","120","","","","","","","0","0","1","0.3025313629","","0.2","0.6","0.4","0.8","","","","","0.2484951132","0.3202890724","0.04667408308","0.3025313629","","","","","","","","","","76","L","3","","","16","main_expt","",""
"","bandit","98","210213","0.0-58.0-0.0","58162224","wem/bandit_party_1","AD8JNBDMO3NED","either","7","3","","","","","","","0","1","0","","0.2570267238","0.2","0.6","0.4","0.8","0.2570267238","0.3680552247","0.0506688767","0.3291216938","","","","","","","","","","","","","","72","H","0","img/none_selected.jpg","","17","main_expt","",""
"","bandit","99","211784","0.0-59.0-0.0","58162224","wem/bandit_party_1","AD8JNBDMO3NED","either","7","54","","","","","","","0","0","1","0.3968593921","","0.2","0.6","0.4","0.8","","","","","0.287418789","0.3968593921","0.02988526167","0.2987881532","","","","","","","","","","74","J","1","","","18","main_expt","",""
"","bandit","100","213303","0.0-60.0-0.0","58162224","wem/bandit_party_1","AD8JNBDMO3NED","either","7","3","","","","","","","0","0","1","","0.4192996399","0.2","0.6","0.4","0.8","0.2338710899","0.4192996399","0.03476350355","0.281207523","","","","","","","","","","","","","","74","J","1","","","19","main_expt","",""
"","bandit","101","214828","0.0-61.0-0.0","58162224","wem/bandit_party_1","AD8JNBDMO3NED","either","7","15","","","","","","","0","0","1","0.4362768361","","0.2","0.6","0.4","0.8","","","","","0.2335293464","0.4362768361","0.0233687216","0.291129981","","","","","","","","","","74","J","1","","","20","main_expt","",""
"","bandit","102","216388","0.0-62.0-0.0","58162224","wem/bandit_party_1","AD8JNBDMO3NED","either","7","46","","","","","","","0","0","1","","0.4599691003","0.2","0.6","0.4","0.8","0.2434826965","0.4599691003","0.01272547494","0.2729578326","","","","","","","","","","","","","","74","J","1","","","21","main_expt","",""
"","bandit","103","218019","0.0-63.0-0.0","58162224","wem/bandit_party_1","AD8JNBDMO3NED","either","7","116","","","","","","","0","1","0","","0.44353765","0.2","0.6","0.4","0.8","0.2702300591","0.44353765","0.01739491555","0.2805141014","","","","","","","","","","","","","","74","J","1","","","22","main_expt","",""
"","bandit","104","219667","0.0-64.0-0.0","58162224","wem/bandit_party_1","AD8JNBDMO3NED","either","7","134","","","","","","","0","1","0","","0.4105594395","0.2","0.6","0.4","0.8","0.2424740502","0.4105594395","0.006692102231","0.3016389313","","","","","","","","","","","","","","74","J","1","","","23","main_expt","",""
"","bandit","105","221220","0.0-65.0-0.0","58162224","wem/bandit_party_1","AD8JNBDMO3NED","either","7","37","","","","","","","1","0","0","0.4243351486","","0.2","0.6","0.4","0.8","","","","","0.1754503809","0.4243351486","0.01209419849","0.2475621169","","","","","","","","","","74","J","1","","","24","main_expt","",""
"","bandit","106","222738","0.0-66.0-0.0","58162224","wem/bandit_party_1","AD8JNBDMO3NED","either","7","3","","","","","","","0","0","1","0.4172780312","","0.2","0.6","0.4","0.8","","","","","0.2023019753","0.4172780312","0.009734580702","0.2607476102","","","","","","","","","","74","J","1","","","25","main_expt","",""
"","bandit","107","224326","0.0-67.0-0.0","58162224","wem/bandit_party_1","AD8JNBDMO3NED","either","7","71","","","","","","","0","1","0","","0.1887270612","0.2","0.6","0.4","0.8","0.1887270612","0.3981062588","0.008596148908","0.292589008","","","","","","","","","","","","","","72","H","0","img/none_selected.jpg","","26","main_expt","",""
"","bandit","108","225930","0.0-68.0-0.0","58162224","wem/bandit_party_1","AD8JNBDMO3NED","either","7","89","","","","","","","0","0","1","0.01380650739","","0.2","0.6","0.4","0.8","","","","","0.2526986378","0.3889188119","0.01380650739","0.2978950393","","","","","","","","","","75","K","2","","","27","main_expt","",""
"","bandit","109","227549","0.0-69.0-0.0","58162224","wem/bandit_party_1","AD8JNBDMO3NED","either","7","103","","","","","","","0","0","1","0.337392419","","0.2","0.6","0.4","0.8","","","","","0.2536033627","0.3699095679","0.01160852189","0.337392419","","","","","","","","","","76","L","3","","","28","main_expt","",""
"","bandit","110","229419","0.0-70.0-0.0","58162224","wem/bandit_party_1","AD8JNBDMO3NED","either","7","274","","","","","","","1","0","0","0.4087832773","","0.2","0.6","0.4","0.8","","","","","0.258258936","0.4087832773","0.02858314752","0.3830759015","","","","","","","","","","74","J","1","","","29","main_expt","",""
"","bandit","111","231019","0.0-71.0-0.0","58162224","wem/bandit_party_1","AD8JNBDMO3NED","either","7","86","","","","","","","0","0","1","","0.0265596094","0.2","0.6","0.4","0.8","0.3152574144","0.4162513677","0.0265596094","0.3778881599","","","","","","","","","","","","","","75","K","2","","","30","main_expt","",""
"","bandit","112","232691","0.0-72.0-0.0","58162224","wem/bandit_party_1","AD8JNBDMO3NED","either","7","154","","","","","","","0","0","1","0.02828816112","","0.2","0.6","0.4","0.8","","","","","0.3508579725","0.43337534","0.02828816112","0.3585458117","","","","","","","","","","75","K","2","","","31","main_expt","",""
"","bandit","113","234210","0.0-73.0-0.0","58162224","wem/bandit_party_1","AD8JNBDMO3NED","either","7","3","","","","","","","0","0","1","","0.03857304495","0.2","0.6","0.4","0.8","0.3902021543","0.4399105216","0.03857304495","0.3511664436","","","","","","","","","","","","","","75","K","2","","","32","main_expt","",""
"","bandit","114","235749","0.0-74.0-0.0","58162224","wem/bandit_party_1","AD8JNBDMO3NED","either","7","24","","","","","","","0","0","1","0.3859623535","","0.2","0.6","0.4","0.8","","","","","0.4112626521","0.3859623535","0.02642959278","0.3924960189","","","","","","","","","","74","J","1","","","33","main_expt","",""
"","bandit","115","237273","0.0-75.0-0.0","58162224","wem/bandit_party_1","AD8JNBDMO3NED","either","7","12","","","","","","","1","0","0","0.4231921331","","0.2","0.6","0.4","0.8","","","","","0.3912589523","0.4231921331","0.06800028167","0.3713907517","","","","","","","","","","74","J","1","","","34","main_expt","",""
"","bandit","116","238884","0.0-76.0-0.0","58162224","wem/bandit_party_1","AD8JNBDMO3NED","either","7","91","","","","","","","0","0","1","0.05710280771","","0.2","0.6","0.4","0.8","","","","","0.3663646496","0.3950458867","0.05710280771","0.3929004689","","","","","","","","","","75","K","2","","","35","main_expt","",""
"","bandit","117","240413","0.0-77.0-0.0","58162224","wem/bandit_party_1","AD8JNBDMO3NED","either","7","15","","","","","","","0","0","1","0.07756943076","","0.2","0.6","0.4","0.8","","","","","0.3045225128","0.4005306787","0.07756943076","0.3820467604","","","","","","","","","","75","K","2","","","36","main_expt","",""
"","bandit","118","242050","0.0-78.0-0.0","58162224","wem/bandit_party_1","AD8JNBDMO3NED","either","7","114","","","","","","","0","0","1","","0.06074629621","0.2","0.6","0.4","0.8","0.2806474599","0.3972735937","0.06074629621","0.3948022939","","","","","","","","","","","","","","75","K","2","","","37","main_expt","",""
"","bandit","119","243627","0.0-79.0-0.0","58162224","wem/bandit_party_1","AD8JNBDMO3NED","either","7","59","","","","","","","0","0","1","0.07063042774","","0.2","0.6","0.4","0.8","","","","","0.3558759705","0.38339591","0.07063042774","0.3769579019","","","","","","","","","","75","K","2","","","38","main_expt","",""
"","bandit","120","245244","0.0-80.0-0.0","58162224","wem/bandit_party_1","AD8JNBDMO3NED","either","7","101","","","","","","","0","1","0","","0.3194138052","0.2","0.6","0.4","0.8","0.3194138052","0.3906354184","0.06209293178","0.4030344636","","","","","","","","","","","","","","72","H","0","img/none_selected.jpg","","39","main_expt","",""
"","bandit","121","246773","0.0-81.0-0.0","58162224","wem/bandit_party_1","AD8JNBDMO3NED","either","7","14","","","","","","","0","0","1","","0.3623676206","0.2","0.6","0.4","0.8","0.3549086085","0.3623676206","0.06952578958","0.3622335218","","","","","","","","","","","","","","74","J","1","","","40","main_expt","",""
"","bandit","122","248369","0.0-82.0-0.0","58162224","wem/bandit_party_1","AD8JNBDMO3NED","either","7","80","","","","","","","0","1","0","","0.1291245709","0.2","0.6","0.4","0.8","0.3452113815","0.3873704927","0.1291245709","0.3911596719","","","","","","","","","","","","","","75","K","2","","","41","main_expt","",""
"","bandit","123","249887","0.0-83.0-0.0","58162224","wem/bandit_party_1","AD8JNBDMO3NED","either","7","4","","","","","","","0","0","1","","0.3921858285","0.2","0.6","0.4","0.8","0.3522960267","0.359823116","0.1174523948","0.3921858285","","","","","","","","","","","","","","76","L","3","","","42","main_expt","",""
"","bandit","124","251407","0.0-84.0-0.0","58162224","wem/bandit_party_1","AD8JNBDMO3NED","either","7","5","","","","","","","0","0","1","0.1201484523","","0.2","0.6","0.4","0.8","","","","","0.3093122096","0.3710191411","0.1201484523","0.3831213528","","","","","","","","","","75","K","2","","","43","main_expt","",""
"","bandit","125","252927","0.0-85.0-0.0","58162224","wem/bandit_party_1","AD8JNBDMO3NED","either","7","5","","","","","","","0","0","1","0.09958360536","","0.2","0.6","0.4","0.8","","","","","0.3026159556","0.3874065465","0.09958360536","0.3518708159","","","","","","","","","","75","K","2","","","44","main_expt","",""
"","bandit","126","254462","0.0-86.0-0.0","58162224","wem/bandit_party_1","AD8JNBDMO3NED","either","7","19","","","","","","","0","0","1","0.05173655998","","0.2","0.6","0.4","0.8","","","","","0.3336294247","0.3851533971","0.05173655998","0.3122870636","","","","","","","","","","75","K","2","","","45","main_expt","",""
"","bandit","127","255999","0.0-87.0-0.0","58162224","wem/bandit_party_1","AD8JNBDMO3NED","either","7","22","","","","","","","0","0","1","","0.05945041096","0.2","0.6","0.4","0.8","0.3400222736","0.4055883719","0.05945041096","0.2635721956","","","","","","","","","","","","","","75","K","2","","","46","main_expt","",""
"","bandit","128","257574","0.0-88.0-0.0","58162224","wem/bandit_party_1","AD8JNBDMO3NED","either","7","53","","","","","","","0","0","1","","0.04375763727","0.2","0.6","0.4","0.8","0.328707825","0.3671593179","0.04375763727","0.2856785865","","","","","","","","","","","","","","75","K","2","","","47","main_expt","",""
"","bandit","129","259092","0.0-89.0-0.0","58162224","wem/bandit_party_1","AD8JNBDMO3NED","either","7","4","","","","","","","0","0","1","","0.0666370861","0.2","0.6","0.4","0.8","0.3307690822","0.3198203038","0.0666370861","0.2649087478","","","","","","","","","","","","","","75","K","2","","","48","main_expt","",""
"","bandit","130","260682","0.0-90.0-0.0","58162224","wem/bandit_party_1","AD8JNBDMO3NED","either","7","75","","","","","","","0","0","1","","0.3111357295","0.2","0.6","0.4","0.8","0.3438067684","0.3111357295","0.08266213623","0.2462979357","","","","","","","","","","","","","","74","J","1","","","49","main_expt","",""
"","bandit","131","262268","0.0-91.0-0.0","58162224","wem/bandit_party_1","AD8JNBDMO3NED","either","7","70","","","","","","","0","0","1","0.08795051988","","0.2","0.6","0.4","0.8","","","","","0.4037002216","0.3196682981","0.08795051988","0.2490076798","","","","","","","","","","75","K","2","","","50","main_expt","",""
"","bandit","132","263789","0.0-92.0-0.0","58162224","wem/bandit_party_1","AD8JNBDMO3NED","either","7","5","","","","","","","0","0","1","0.3088596379","","0.2","0.6","0.4","0.8","","","","","0.3557518394","0.3088596379","0.07533366945","0.305209751","","","","","","","","","","74","J","1","","","51","main_expt","",""
"","bandit","133","265415","0.0-93.0-0.0","58162224","wem/bandit_party_1","AD8JNBDMO3NED","either","7","109","","","","","","","0","0","1","0.3060924957","","0.2","0.6","0.4","0.8","","","","","0.3254324358","0.3060924957","0.06506638851","0.3087204988","","","","","","","","","","74","J","1","","","52","main_expt","",""
"","bandit","134","266936","0.0-94.0-0.0","58162224","wem/bandit_party_1","AD8JNBDMO3NED","either","7","6","","","","","","","1","0","0","0.2984188648","","0.2","0.6","0.4","0.8","","","","","0.2952150256","0.3229319808","0.06562792832","0.2984188648","","","","","","","","","","76","L","3","","","53","main_expt","",""
"","bandit","135","268613","0.0-95.0-0.0","58162224","wem/bandit_party_1","AD8JNBDMO3NED","either","7","159","","","","","","","0","0","1","0.3353917468","","0.2","0.6","0.4","0.8","","","","","0.300320608","0.3280138586","0.04630081711","0.3353917468","","","","","","","","","","76","L","3","","","54","main_expt","",""
"","bandit","136","270133","0.0-96.0-0.0","58162224","wem/bandit_party_1","AD8JNBDMO3NED","either","7","3","","","","","","","0","0","1","0.3259144651","","0.2","0.6","0.4","0.8","","","","","0.2985084879","0.2777260571","0.03868373719","0.3259144651","","","","","","","","","","76","L","3","","","55","main_expt","",""
"","bandit","137","271752","0.0-97.0-0.0","58162224","wem/bandit_party_1","AD8JNBDMO3NED","either","7","102","","","","","","","0","0","1","","0.06235362297","0.2","0.6","0.4","0.8","0.2607009345","0.1791004868","0.06235362297","0.3259049121","","","","","","","","","","","","","","75","K","2","","","56","main_expt","",""
"","bandit","138","273410","0.0-98.0-0.0","58162224","wem/bandit_party_1","AD8JNBDMO3NED","either","7","143","","","","","","","0","0","1","0.2182265394","","0.2","0.6","0.4","0.8","","","","","0.2565854794","0.2182265394","0.04639461243","0.3687904078","","","","","","","","","","74","J","1","","","57","main_expt","",""
"","bandit","139","275096","0.0-99.0-0.0","58162224","wem/bandit_party_1","AD8JNBDMO3NED","either","7","166","","","","","","","0","0","1","0.2970860181","","0.2","0.6","0.4","0.8","","","","","0.319121847","0.2970860181","0.08954448139","0.3422038875","","","","","","","","","","74","J","1","","","58","main_expt","",""
"","bandit","140","276680","0.0-100.0-0.0","58162224","wem/bandit_party_1","AD8JNBDMO3NED","either","7","69","","","","","","","0","0","1","","0.07390342289","0.2","0.6","0.4","0.8","0.3269923399","0.3249685468","0.07390342289","0.3771421139","","","","","","","","","","","","","","75","K","2","","","59","main_expt","",""
"","bandit","141","278212","0.0-101.0-0.0","58162224","wem/bandit_party_1","AD8JNBDMO3NED","either","7","18","","","","","","","0","0","1","","0.3150968823","0.2","0.6","0.4","0.8","0.3150968823","0.2931470039","0.05801548519","0.3620124399","","","","","","","","","","","","","","72","H","0","img/none_selected.jpg","","60","main_expt","",""
"","bandit","142","279727","0.0-102.0-0.0","58162224","wem/bandit_party_1","AD8JNBDMO3NED","either","7","1","","","","","","","0","0","1","0.2646536279","","0.2","0.6","0.4","0.8","","","","","0.324539239","0.2646536279","0.07333263924","0.3958116198","","","","","","","","","","74","J","1","","","61","main_expt","",""
"","bandit","143","281250","0.0-103.0-0.0","58162224","wem/bandit_party_1","AD8JNBDMO3NED","either","7","3","","","","","","","0","0","1","0.07563430262","","0.2","0.6","0.4","0.8","","","","","0.3066306166","0.242461968","0.07563430262","0.3615218546","","","","","","","","","","75","K","2","","","62","main_expt","",""
"","bandit","144","282867","0.0-104.0-0.0","58162224","wem/bandit_party_1","AD8JNBDMO3NED","either","7","99","","","","","","","0","1","0","","0.2206683029","0.2","0.6","0.4","0.8","0.3068900116","0.2206683029","0.06826526778","0.3574266064","","","","","","","","","","","","","","74","J","1","","","63","main_expt","",""
"","bandit","145","284383","0.0-105.0-0.0","58162224","wem/bandit_party_1","AD8JNBDMO3NED","either","7","1","","","","","","","1","0","0","0.2288959862","","0.2","0.6","0.4","0.8","","","","","0.2936494982","0.2288959862","0.1175271989","0.3541915859","","","","","","","","","","74","J","1","","","64","main_expt","",""
"","bandit","146","285913","0.0-106.0-0.0","58162224","wem/bandit_party_1","AD8JNBDMO3NED","either","7","14","","","","","","","0","0","1","","0.290236101","0.2","0.6","0.4","0.8","0.290236101","0.2346523549","0.1273865191","0.3339820985","","","","","","","","","","","","","","72","H","0","img/none_selected.jpg","","65","main_expt","",""
"","bandit","147","287474","0.0-107.0-0.0","58162224","wem/bandit_party_1","AD8JNBDMO3NED","either","7","45","","","","","","","0","0","1","","0.3195467083","0.2","0.6","0.4","0.8","0.2512036594","0.1881688105","0.09075088943","0.3195467083","","","","","","","","","","","","","","76","L","3","","","66","main_expt","",""
"","bandit","148","288999","0.0-108.0-0.0","58162224","wem/bandit_party_1","AD8JNBDMO3NED","either","7","8","","","","","","","0","0","1","","0.08077075725","0.2","0.6","0.4","0.8","0.263747572","0.231043846","0.08077075725","0.3477383846","","","","","","","","","","","","","","75","K","2","","","67","main_expt","",""
"","bandit","149","290630","0.0-109.0-0.0","58162224","wem/bandit_party_1","AD8JNBDMO3NED","either","7","89","","","","","","","0","0","1","0.3365352069","","0.2","0.6","0.4","0.8","","","","","0.2892519303","0.2576664243","0.08810311296","0.3365352069","","","","","","","","","","76","L","3","","","68","main_expt","",""
"","bandit","150","292213","0.0-110.0-0.0","58162224","wem/bandit_party_1","AD8JNBDMO3NED","either","7","59","","","","","","","0","0","1","","0.1260156682","0.2","0.6","0.4","0.8","0.2383664846","0.2183283259","0.1260156682","0.3148812039","","","","","","","","","","","","","","75","K","2","","","69","main_expt","",""
"","bandit","151","293858","0.0-111.0-0.0","58162224","wem/bandit_party_1","AD8JNBDMO3NED","either","7","119","","","","","","","0","0","1","","0.08773951932","0.2","0.6","0.4","0.8","0.2497111545","0.2260484764","0.08773951932","0.3154014692","","","","","","","","","","","","","","75","K","2","","","70","main_expt","",""
"","bandit","152","295465","0.0-112.0-0.0","58162224","wem/bandit_party_1","AD8JNBDMO3NED","either","7","68","","","","","","","1","0","0","0.3196469567","","0.2","0.6","0.4","0.8","","","","","0.2095843002","0.3196469567","0.1154304285","0.219815459","","","","","","","","","","74","J","1","","","71","main_expt","",""
"","bandit","153","297103","0.0-113.0-0.0","58162224","wem/bandit_party_1","AD8JNBDMO3NED","either","7","113","","","","","","","0","0","1","0.10097247","","0.2","0.6","0.4","0.8","","","","","0.1972488467","0.3644141189","0.10097247","0.2623730272","","","","","","","","","","75","K","2","","","72","main_expt","",""
"","bandit","154","298784","0.0-114.0-0.0","58162224","wem/bandit_party_1","AD8JNBDMO3NED","either","7","156","","","","","","","0","0","1","0.4081842109","","0.2","0.6","0.4","0.8","","","","","0.15494396","0.4081842109","0.0746930591","0.2639805735","","","","","","","","","","74","J","1","","","73","main_expt","",""
"","bandit","155","300312","0.0-115.0-0.0","58162224","wem/bandit_party_1","AD8JNBDMO3NED","either","7","3","","","","","","","0","0","1","","0.4506698749","0.2","0.6","0.4","0.8","0.1324790415","0.4506698749","0.1124392477","0.2770925356","","","","","","","","","","","","","","74","J","1","","","74","main_expt","",""
"","bandit","156","301896","0.0-116.0-0.0","58162224","wem/bandit_party_1","AD8JNBDMO3NED","either","7","42","","","","","","","0","0","1","","0.113494578","0.2","0.6","0.4","0.8","0.179195356","0.454520075","0.113494578","0.2796652475","","","","","","","","","","","","","","75","K","2","","","75","main_expt","",""
"","bandit","157","303427","0.0-117.0-0.0","58162224","wem/bandit_party_1","AD8JNBDMO3NED","either","7","6","","","","","","","1","0","0","0.466199952","","0.2","0.6","0.4","0.8","","","","","0.215808919","0.466199952","0.1469344428","0.3153427244","","","","","","","","","","74","J","1","","","76","main_expt","",""
"","bandit","158","305056","0.0-118.0-0.0","58162224","wem/bandit_party_1","AD8JNBDMO3NED","either","7","103","","","","","","","0","1","0","","0.4402141775","0.2","0.6","0.4","0.8","0.2312347408","0.4402141775","0.2152215887","0.3676911864","","","","","","","","","","","","","","74","J","1","","","77","main_expt","",""
"","bandit","159","306581","0.0-119.0-0.0","58162224","wem/bandit_party_1","AD8JNBDMO3NED","either","7","3","","","","","","","0","0","1","0.4525957793","","0.2","0.6","0.4","0.8","","","","","0.2197025874","0.4525957793","0.2055177618","0.3434277392","","","","","","","","","","74","J","1","","","78","main_expt","",""
"","bandit","160","308139","0.0-120.0-0.0","58162224","wem/bandit_party_1","AD8JNBDMO3NED","either","7","34","","","","","","","0","0","1","0.2227420924","","0.2","0.6","0.4","0.8","","","","","0.2227420924","0.4630799716","0.222262525","0.3758616161","","","","","","","","","","72","H","0","img/none_selected.jpg","","79","main_expt","",""
"","bandit","161","309700","0.0-121.0-0.0","58162224","wem/bandit_party_1","AD8JNBDMO3NED","either","7","24","","","","","","","1","0","0","0.3862393514","","0.2","0.6","0.4","0.8","","","","","0.2283057493","0.423693353","0.2700860438","0.3862393514","","","","","","","","","","76","L","3","","","80","main_expt","",""
"","bandit","162","311300","0.0-122.0-0.0","58162224","wem/bandit_party_1","AD8JNBDMO3NED","either","7","78","","","","","","","0","0","1","0.4319112677","","0.2","0.6","0.4","0.8","","","","","0.2721525977","0.4319112677","0.2642688004","0.3593770893","","","","","","","","","","74","J","1","","","81","main_expt","",""
"","bandit","163","312886","0.0-123.0-0.0","58162224","wem/bandit_party_1","AD8JNBDMO3NED","either","7","58","","","","","","","0","1","0","","0.441827487","0.2","0.6","0.4","0.8","0.2850237184","0.441827487","0.2824164754","0.4035110645","","","","","","","","","","","","","","74","J","1","","","82","main_expt","",""
"","bandit","164","314490","0.0-124.0-0.0","58162224","wem/bandit_party_1","AD8JNBDMO3NED","either","7","78","","","","","","","0","1","0","","0.3236436683","0.2","0.6","0.4","0.8","0.3236436683","0.4288861504","0.2819095575","0.3719627038","","","","","","","","","","","","","","72","H","0","img/none_selected.jpg","","83","main_expt","",""
"","bandit","165","316009","0.0-125.0-0.0","58162224","wem/bandit_party_1","AD8JNBDMO3NED","either","7","0","","","","","","","0","0","1","0.3349288927","","0.2","0.6","0.4","0.8","","","","","0.3339638593","0.4350385517","0.2589745902","0.3349288927","","","","","","","","","","76","L","3","","","84","main_expt","",""
"","bandit","166","317627","0.0-126.0-0.0","58162224","wem/bandit_party_1","AD8JNBDMO3NED","either","7","100","","","","","","","0","0","1","","0.3795022601","0.2","0.6","0.4","0.8","0.3795022601","0.4255505645","0.3626504113","0.3247899262","","","","","","","","","","","","","","72","H","0","img/none_selected.jpg","","85","main_expt","",""
"","bandit","167","319230","0.0-127.0-0.0","58162224","wem/bandit_party_1","AD8JNBDMO3NED","either","7","85","","","","","","","0","1","0","","0.3835523064","0.2","0.6","0.4","0.8","0.3835523064","0.4330938692","0.3598915268","0.3443557019","","","","","","","","","","","","","","72","H","0","img/none_selected.jpg","","86","main_expt","",""
"","bandit","168","320766","0.0-128.0-0.0","58162224","wem/bandit_party_1","AD8JNBDMO3NED","either","7","18","","","","","","","0","0","1","0.4548398529","","0.2","0.6","0.4","0.8","","","","","0.3772514457","0.4548398529","0.3433052933","0.3648776167","","","","","","","","","","74","J","1","","","87","main_expt","",""
"","bandit","169","322306","0.0-129.0-0.0","58162224","wem/bandit_party_1","AD8JNBDMO3NED","either","7","23","","","","","","","0","0","1","0.4493124031","","0.2","0.6","0.4","0.8","","","","","0.3766830519","0.4493124031","0.4022938878","0.3609631839","","","","","","","","","","74","J","1","","","88","main_expt","",""
"","bandit","170","323864","0.0-130.0-0.0","58162224","wem/bandit_party_1","AD8JNBDMO3NED","either","7","32","","","","","","","0","0","1","","0.4141493151","0.2","0.6","0.4","0.8","0.3537755119","0.4161110063","0.4141493151","0.3636167192","","","","","","","","","","","","","","75","K","2","","","89","main_expt","",""
"","bandit","171","325608","0.0-131.0-0.0","58162224","wem/bandit_party_1","AD8JNBDMO3NED","either","7","224","","","","","","","0","0","1","","0.4136124289","0.2","0.6","0.4","0.8","0.3014761449","0.405260856","0.4136124289","0.3563441379","","","","","","","","","","","","","","75","K","2","","","90","main_expt","",""
"","bandit","172","327133","0.0-132.0-0.0","58162224","wem/bandit_party_1","AD8JNBDMO3NED","either","7","8","","","","","","","0","0","1","","0.3827048226","0.2","0.6","0.4","0.8","0.2694038268","0.3827048226","0.4184852842","0.3389138503","","","","","","","","","","","","","","74","J","1","","","91","main_expt","",""
"","bandit","173","328784","0.0-133.0-0.0","58162224","wem/bandit_party_1","AD8JNBDMO3NED","either","7","133","","","","","","","0","0","1","0.3263360165","","0.2","0.6","0.4","0.8","","","","","0.2651536323","0.3552182969","0.4456808576","0.3263360165","","","","","","","","","","76","L","3","","","92","main_expt","",""
"","bandit","174","330484","0.0-134.0-0.0","58162224","wem/bandit_party_1","AD8JNBDMO3NED","either","7","181","","","","","","","0","0","1","0.4355219805","","0.2","0.6","0.4","0.8","","","","","0.1997208586","0.3286897504","0.4355219805","0.2844131911","","","","","","","","","","75","K","2","","","93","main_expt","",""
"","bandit","175","332120","0.0-135.0-0.0","58162224","wem/bandit_party_1","AD8JNBDMO3NED","either","7","118","","","","","","","0","1","0","","0.4609821192","0.2","0.6","0.4","0.8","0.2442555344","0.3422490236","0.4609821192","0.2978465223","","","","","","","","","","","","","","75","K","2","","","94","main_expt","",""
"","bandit","176","333852","0.0-136.0-0.0","58162224","wem/bandit_party_1","AD8JNBDMO3NED","either","7","216","","","","","","","1","0","0","0.2638723705","","0.2","0.6","0.4","0.8","","","","","0.2638839348","0.3160161054","0.4419374505","0.2638723705","","","","","","","","","","76","L","3","","","95","main_expt","",""
"","bandit","177","335574","0.0-137.0-0.0","58162224","wem/bandit_party_1","AD8JNBDMO3NED","either","7","201","","","","","","","0","0","1","0.2276010735","","0.2","0.6","0.4","0.8","","","","","0.2265245807","0.2945538732","0.39438674","0.2276010735","","","","","","","","","","76","L","3","","","96","main_expt","",""
"","bandit","178","337099","0.0-138.0-0.0","58162224","wem/bandit_party_1","AD8JNBDMO3NED","either","7","7","","","","","","","0","0","1","0.1969189177","","0.2","0.6","0.4","0.8","","","","","0.1969189177","0.393563827","0.3617668419","0.2045446072","","","","","","","","","","72","H","0","img/none_selected.jpg","","97","main_expt","",""
"","bandit","179","338796","0.0-139.0-0.0","58162224","wem/bandit_party_1","AD8JNBDMO3NED","either","7","179","","","","","","","0","1","0","","0.1761144245","0.2","0.6","0.4","0.8","0.1761144245","0.4046254927","0.3737913853","0.2436418828","","","","","","","","","","","","","","72","H","0","img/none_selected.jpg","","98","main_expt","",""
"","bandit","180","340407","0.0-140.0-0.0","58162224","wem/bandit_party_1","AD8JNBDMO3NED","either","7","93","","","","","","","0","0","1","0.2473144087","","0.2","0.6","0.4","0.8","","","","","0.1211630765","0.3659012549","0.4221129479","0.2473144087","","","","","","","","","","76","L","3","","","99","main_expt","",""
"","bandit","181","341975","0.0-141.0-0.0","58162224","wem/bandit_party_1","AD8JNBDMO3NED","either","7","39","","","","","","","0","0","1","","0.3857893684","0.2","0.6","0.4","0.8","0.1257326749","0.400368336","0.3857893684","0.2707360286","","","","","","","","","","","","","","75","K","2","","","100","main_expt","",""
"","bandit","182","343511","0.0-142.0-0.0","58162224","wem/bandit_party_1","AD8JNBDMO3NED","either","7","18","","","","","","","1","0","0","0.3635527264","","0.2","0.6","0.4","0.8","","","","","0.09975532208","0.4367931528","0.3635527264","0.3250409822","","","","","","","","","","75","K","2","","","101","main_expt","",""
"","bandit","183","345085","0.0-143.0-0.0","58162224","wem/bandit_party_1","AD8JNBDMO3NED","either","7","55","","","","","","","0","0","1","","0.1127414424","0.2","0.6","0.4","0.8","0.1127414424","0.4371155326","0.3738375489","0.3088580598","","","","","","","","","","","","","","72","H","0","img/none_selected.jpg","","102","main_expt","",""
"","bandit","184","346642","0.0-144.0-0.0","58162224","wem/bandit_party_1","AD8JNBDMO3NED","either","7","42","","","","","","","0","0","1","","0.3860163181","0.2","0.6","0.4","0.8","0.1232600734","0.388648264","0.3860163181","0.2901001995","","","","","","","","","","","","","","75","K","2","","","103","main_expt","",""
"","bandit","185","348212","0.0-145.0-0.0","58162224","wem/bandit_party_1","AD8JNBDMO3NED","either","7","48","","","","","","","1","0","0","0.390692362","","0.2","0.6","0.4","0.8","","","","","0.08156843846","0.3718469433","0.390692362","0.309645936","","","","","","","","","","75","K","2","","","104","main_expt","",""
"","bandit","186","349775","0.0-146.0-0.0","58162224","wem/bandit_party_1","AD8JNBDMO3NED","either","7","41","","","","","","","0","0","1","0.4139082553","","0.2","0.6","0.4","0.8","","","","","0.08245659199","0.3920304628","0.4139082553","0.3386062745","","","","","","","","","","75","K","2","","","105","main_expt","",""
"","bandit","187","351313","0.0-147.0-0.0","58162224","wem/bandit_party_1","AD8JNBDMO3NED","either","7","19","","","","","","","0","0","1","0.3295275825","","0.2","0.6","0.4","0.8","","","","","0.1276639339","0.3733497125","0.3295275825","0.3827539061","","","","","","","","","","75","K","2","","","106","main_expt","",""
"","bandit","188","352835","0.0-148.0-0.0","58162224","wem/bandit_party_1","AD8JNBDMO3NED","either","7","3","","","","","","","0","1","0","","0.3499712774","0.2","0.6","0.4","0.8","0.1812689745","0.3878439861","0.3499712774","0.3401355396","","","","","","","","","","","","","","75","K","2","","","107","main_expt","",""
"","bandit","189","354380","0.0-149.0-0.0","58162224","wem/bandit_party_1","AD8JNBDMO3NED","either","7","2","","","","","","","0","0","1","0.3529013302","","0.2","0.6","0.4","0.8","","","","","0.2187982558","0.3529013302","0.2666891207","0.3258039352","","","","","","","","","","74","J","1","","","108","main_expt","",""
"","bandit","190","356135","0.0-150.0-0.0","58162224","wem/bandit_party_1","AD8JNBDMO3NED","either","7","223","","","","","","","1","0","0","0.3457683734","","0.2","0.6","0.4","0.8","","","","","0.2201216928","0.3457683734","0.2575067634","0.374919859","","","","","","","","","","74","J","1","","","109","main_expt","",""
"","bandit","191","357861","0.0-151.0-0.0","58162224","wem/bandit_party_1","AD8JNBDMO3NED","either","7","198","","","","","","","0","0","1","","0.2664913793","0.2","0.6","0.4","0.8","0.1789817232","0.3316873257","0.2664913793","0.3656186065","","","","","","","","","","","","","","75","K","2","","","110","main_expt","",""
"","bandit","192","359610","0.0-152.0-0.0","58162224","wem/bandit_party_1","AD8JNBDMO3NED","either","7","199","","","","","","","0","1","0","","0.3434945318","0.2","0.6","0.4","0.8","0.2404947452","0.3434945318","0.2233446911","0.3649701027","","","","","","","","","","","","","","74","J","1","","","111","main_expt","",""
"","bandit","193","361135","0.0-153.0-0.0","58162224","wem/bandit_party_1","AD8JNBDMO3NED","either","7","0","","","","","","","0","0","1","0.2729480053","","0.2","0.6","0.4","0.8","","","","","0.2959558532","0.2729480053","0.2170082082","0.3371716456","","","","","","","","","","74","J","1","","","112","main_expt","",""
"","bandit","194","362656","0.0-154.0-0.0","58162224","wem/bandit_party_1","AD8JNBDMO3NED","either","7","1","","","","","","","0","0","1","","0.1912277411","0.2","0.6","0.4","0.8","0.2966985553","0.2579672073","0.1912277411","0.2587224119","","","","","","","","","","","","","","75","K","2","","","113","main_expt","",""
"","bandit","195","364184","0.0-155.0-0.0","58162224","wem/bandit_party_1","AD8JNBDMO3NED","either","7","3","","","","","","","0","0","1","0.1691995451","","0.2","0.6","0.4","0.8","","","","","0.3289730608","0.24654084","0.1691995451","0.2384324947","","","","","","","","","","75","K","2","","","114","main_expt","",""
"","bandit","196","365743","0.0-156.0-0.0","58162224","wem/bandit_party_1","AD8JNBDMO3NED","either","7","19","","","","","","","0","0","1","","0.1263730162","0.2","0.6","0.4","0.8","0.2783705844","0.246649757","0.1263730162","0.2705755989","","","","","","","","","","","","","","75","K","2","","","115","main_expt","",""
"","bandit","197","367291","0.0-157.0-0.0","58162224","wem/bandit_party_1","AD8JNBDMO3NED","either","7","2","","","","","","","0","0","1","0.1130092975","","0.2","0.6","0.4","0.8","","","","","0.2990421824","0.2190482835","0.1130092975","0.2666822","","","","","","","","","","75","K","2","","","116","main_expt","",""
"","bandit","198","369028","0.0-158.0-0.0","58162224","wem/bandit_party_1","AD8JNBDMO3NED","either","7","214","","","","","","","0","0","1","","0.1317362661","0.2","0.6","0.4","0.8","0.3214730448","0.1860086181","0.1317362661","0.2664749026","","","","","","","","","","","","","","75","K","2","","","117","main_expt","",""
"","bandit","199","370759","0.0-159.0-0.0","58162224","wem/bandit_party_1","AD8JNBDMO3NED","either","7","197","","","","","","","0","0","1","0.285497096","","0.2","0.6","0.4","0.8","","","","","0.3996160597","0.1765749983","0.08460291254","0.285497096","","","","","","","","","","76","L","3","","","118","main_expt","",""
"","bandit","200","372838","0.0-160.0-0.0","58162224","wem/bandit_party_1","AD8JNBDMO3NED","either","7","551","","","","","","","0","0","1","0.3004427434","","0.2","0.6","0.4","0.8","","","","","0.4143362638","0.1840588368","0.09168363065","0.3004427434","","","","","","","","","","76","L","3","","","119","main_expt","",""
"","bandit","201","374613","0.0-161.0-0.0","58162224","wem/bandit_party_1","AD8JNBDMO3NED","either","7","234","","","","","","","0","0","1","","0.372340151","0.2","0.6","0.4","0.8","0.372340151","0.1988357929","0.06729372802","0.2419855731","","","","","","","","","","","","","","72","H","0","img/none_selected.jpg","","120","main_expt","",""
"","bandit","202","376235","0.0-162.0-0.0","58162224","wem/bandit_party_1","AD8JNBDMO3NED","either","7","97","","","","","","","1","0","0","0.3054132847","","0.2","0.6","0.4","0.8","","","","","0.3910424524","0.2315674","0.08346408207","0.3054132847","","","","","","","","","","76","L","3","","","121","main_expt","",""
"","bandit","203","377766","0.0-163.0-0.0","58162224","wem/bandit_party_1","AD8JNBDMO3NED","either","7","4","","","","","","","0","0","1","0.2473202095","","0.2","0.6","0.4","0.8","","","","","0.3813410711","0.2041322171","0.05632743158","0.2473202095","","","","","","","","","","76","L","3","","","122","main_expt","",""
"","bandit","204","379333","0.0-164.0-0.0","58162224","wem/bandit_party_1","AD8JNBDMO3NED","either","7","44","","","","","","","1","0","0","0.4247291795","","0.2","0.6","0.4","0.8","","","","","0.4247291795","0.1945268209","0.05516745574","0.2909195989","","","","","","","","","","72","H","0","img/none_selected.jpg","","123","main_expt","",""
"","bandit","205","380883","0.0-165.0-0.0","58162224","wem/bandit_party_1","AD8JNBDMO3NED","either","7","6","","","","","","","0","1","0","","0.4311179713","0.2","0.6","0.4","0.8","0.4311179713","0.2206749142","0.05528311039","0.3493750294","","","","","","","","","","","","","","72","H","0","img/none_selected.jpg","","124","main_expt","",""
"","bandit","206","382482","0.0-166.0-0.0","58162224","wem/bandit_party_1","AD8JNBDMO3NED","either","7","67","","","","","","","0","0","1","0.212012295","","0.2","0.6","0.4","0.8","","","","","0.4085782939","0.212012295","0.07149807259","0.3883668019","","","","","","","","","","74","J","1","","","125","main_expt","",""
"","bandit","207","385688","0.0-167.0-0.0","58162224","wem/bandit_party_1","AD8JNBDMO3NED","either","7","1681","","","","","","","1","0","0","0.3888129637","","0.2","0.6","0.4","0.8","","","","","0.4110861309","0.1656684785","0.1137803622","0.3888129637","","","","","","","","","","76","L","3","","","126","main_expt","",""
"","bandit","208","387546","0.0-168.0-0.0","58162224","wem/bandit_party_1","AD8JNBDMO3NED","either","7","336","","","","","","","0","0","1","0.3659195129","","0.2","0.6","0.4","0.8","","","","","0.4214671818","0.1685301808","0.1003054442","0.3659195129","","","","","","","","","","76","L","3","","","127","main_expt","",""
"","bandit","209","389070","0.0-169.0-0.0","58162224","wem/bandit_party_1","AD8JNBDMO3NED","either","7","4","","","","","","","0","0","1","0.1703551811","","0.2","0.6","0.4","0.8","","","","","0.36889317","0.1703551811","0.1378169536","0.3689954399","","","","","","","","","","74","J","1","","","128","main_expt","",""
"","bandit","210","390643","0.0-170.0-0.0","58162224","wem/bandit_party_1","AD8JNBDMO3NED","either","7","50","","","","","","","1","0","0","0.1333081235","","0.2","0.6","0.4","0.8","","","","","0.3840267129","0.1624753709","0.1333081235","0.3600340942","","","","","","","","","","75","K","2","","","129","main_expt","",""
"","bandit","211","392257","0.0-171.0-0.0","58162224","wem/bandit_party_1","AD8JNBDMO3NED","either","7","94","","","","","","","0","0","1","0.3580797835","","0.2","0.6","0.4","0.8","","","","","0.3809677701","0.2335662737","0.1682212827","0.3580797835","","","","","","","","","","76","L","3","","","130","main_expt","",""
"","bandit","212","393864","0.0-172.0-0.0","58162224","wem/bandit_party_1","AD8JNBDMO3NED","either","7","87","","","","","","","0","0","1","0.2193829955","","0.2","0.6","0.4","0.8","","","","","0.3681933818","0.240441026","0.2193829955","0.3785893338","","","","","","","","","","75","K","2","","","131","main_expt","",""
"","bandit","213","395476","0.0-173.0-0.0","58162224","wem/bandit_party_1","AD8JNBDMO3NED","either","7","92","","","","","","","0","0","1","","0.2266699971","0.2","0.6","0.4","0.8","0.3664045944","0.2266699971","0.2693349046","0.3764735404","","","","","","","","","","","","","","74","J","1","","","132","main_expt","",""
"","bandit","214","397000","0.0-174.0-0.0","58162224","wem/bandit_party_1","AD8JNBDMO3NED","either","7","4","","","","","","","0","0","1","0.3433534211","","0.2","0.6","0.4","0.8","","","","","0.4046437197","0.1994193025","0.2576546077","0.3433534211","","","","","","","","","","76","L","3","","","133","main_expt","",""
"","bandit","215","398529","0.0-175.0-0.0","58162224","wem/bandit_party_1","AD8JNBDMO3NED","either","7","6","","","","","","","0","0","1","0.3606247271","","0.2","0.6","0.4","0.8","","","","","0.364490756","0.1891464922","0.2412372273","0.3606247271","","","","","","","","","","76","L","3","","","134","main_expt","",""
"","bandit","216","400115","0.0-176.0-0.0","58162224","wem/bandit_party_1","AD8JNBDMO3NED","either","7","67","","","","","","","0","0","1","0.1614798668","","0.2","0.6","0.4","0.8","","","","","0.311914316","0.1614798668","0.2198641054","0.3268624306","","","","","","","","","","74","J","1","","","135","main_expt","",""
"","bandit","217","401639","0.0-177.0-0.0","58162224","wem/bandit_party_1","AD8JNBDMO3NED","either","7","4","","","","","","","0","0","1","0.1880386222","","0.2","0.6","0.4","0.8","","","","","0.2653901568","0.1880386222","0.2504132697","0.2854606769","","","","","","","","","","74","J","1","","","136","main_expt","",""
"","bandit","218","403197","0.0-178.0-0.0","58162224","wem/bandit_party_1","AD8JNBDMO3NED","either","7","38","","","","","","","0","0","1","0.3311747399","","0.2","0.6","0.4","0.8","","","","","0.2413295316","0.1961818793","0.1912230989","0.3311747399","","","","","","","","","","76","L","3","","","137","main_expt","",""
"","bandit","219","404761","0.0-179.0-0.0","58162224","wem/bandit_party_1","AD8JNBDMO3NED","either","7","44","","","","","","","0","0","1","0.2570785188","","0.2","0.6","0.4","0.8","","","","","0.2060295423","0.2857678963","0.1576256809","0.2570785188","","","","","","","","","","76","L","3","","","138","main_expt","",""
"","bandit","220","406443","0.0-180.0-0.0","58162224","wem/bandit_party_1","AD8JNBDMO3NED","either","7","157","","","","","","","0","0","1","0.2858060749","","0.2","0.6","0.4","0.8","","","","","0.1809645164","0.3449131854","0.1019788138","0.2858060749","","","","","","","","","","76","L","3","","","139","main_expt","",""
"","bandit","221","407968","0.0-181.0-0.0","58162224","wem/bandit_party_1","AD8JNBDMO3NED","either","7","5","","","","","","","0","0","1","0.2537716732","","0.2","0.6","0.4","0.8","","","","","0.1843216893","0.2537716732","0.07754087054","0.2975559752","","","","","","","","","","74","J","1","","","140","main_expt","",""
"","bandit","222","409582","0.0-182.0-0.0","58162224","wem/bandit_party_1","AD8JNBDMO3NED","either","7","94","","","","","","","0","0","1","","0.09489610577","0.2","0.6","0.4","0.8","0.1651876155","0.2858111263","0.09489610577","0.2802168405","","","","","","","","","","","","","","75","K","2","","","141","main_expt","",""
"","bandit","223","411152","0.0-183.0-0.0","58162224","wem/bandit_party_1","AD8JNBDMO3NED","either","7","49","","","","","","","0","0","1","0.09601428546","","0.2","0.6","0.4","0.8","","","","","0.1536427928","0.303049367","0.09601428546","0.2231986748","","","","","","","","","","75","K","2","","","142","main_expt","",""
"","bandit","224","412746","0.0-184.0-0.0","58162224","wem/bandit_party_1","AD8JNBDMO3NED","either","7","71","","","","","","","1","0","0","0.2969419413","","0.2","0.6","0.4","0.8","","","","","0.1546140226","0.2969419413","0.08301142993","0.2032880393","","","","","","","","","","74","J","1","","","143","main_expt","",""
"","bandit","225","414407","0.0-185.0-0.0","58162224","wem/bandit_party_1","AD8JNBDMO3NED","either","7","139","","","","","","","0","0","1","","0.1967741464","0.2","0.6","0.4","0.8","0.1746031107","0.3128690494","0.09599686985","0.1967741464","","","","","","","","","","","","","","76","L","3","","","144","main_expt","",""
"","bandit","226","416023","0.0-186.0-0.0","58162224","wem/bandit_party_1","AD8JNBDMO3NED","either","7","98","","","","","","","0","0","1","","0.07499383622","0.2","0.6","0.4","0.8","0.2021387556","0.2991796355","0.07499383622","0.2283154954","","","","","","","","","","","","","","75","K","2","","","145","main_expt","",""
"","bandit","227","418481","0.0-187.0-0.0","58162224","wem/bandit_party_1","AD8JNBDMO3NED","either","7","933","","","","","","","0","0","1","0.3163763193","","0.2","0.6","0.4","0.8","","","","","0.2504344391","0.3163763193","0.09566861","0.2118700154","","","","","","","","","","74","J","1","","","146","main_expt","",""
"","bandit","228","420118","0.0-188.0-0.0","58162224","wem/bandit_party_1","AD8JNBDMO3NED","either","7","94","","","","","","","0","0","1","0.2437718569","","0.2","0.6","0.4","0.8","","","","","0.2437718569","0.3198025905","0.08578591382","0.210437557","","","","","","","","","","72","H","0","img/none_selected.jpg","","147","main_expt","",""
"","bandit","229","421653","0.0-189.0-0.0","58162224","wem/bandit_party_1","AD8JNBDMO3NED","either","7","4","","","","","","","0","1","0","","0.2370661354","0.2","0.6","0.4","0.8","0.2446677265","0.2588245921","0.1147887709","0.2370661354","","","","","","","","","","","","","","76","L","3","","","148","main_expt","",""
"","bandit","230","423210","0.0-190.0-0.0","58162224","wem/bandit_party_1","AD8JNBDMO3NED","either","7","30","","","","","","","1","0","0","0.2430363771","","0.2","0.6","0.4","0.8","","","","","0.2911002833","0.248712437","0.1378203382","0.2430363771","","","","","","","","","","76","L","3","","","149","main_expt","",""
"","bandit","231","424741","0.0-191.0-0.0","58162224","wem/bandit_party_1","AD8JNBDMO3NED","either","7","3","","","","","","","0","0","1","0.2242182381","","0.2","0.6","0.4","0.8","","","","","0.3529655025","0.179144869","0.1414499273","0.2242182381","","","","","","","","","","76","L","3","","","150","main_expt","",""
"","bandit","232","426303","0.0-192.0-0.0","58162224","wem/bandit_party_1","AD8JNBDMO3NED","either","7","31","","","","","","","0","0","1","0.1545669956","","0.2","0.6","0.4","0.8","","","","","0.3885741111","0.1545669956","0.07852348772","0.1997145133","","","","","","","","","","74","J","1","","","151","main_expt","",""
"","bandit","233","427942","0.0-193.0-0.0","58162224","wem/bandit_party_1","AD8JNBDMO3NED","either","7","113","","","","","","","0","0","1","","0.1651714415","0.2","0.6","0.4","0.8","0.3690499696","0.1651714415","0.08485793113","0.2195927633","","","","","","","","","","","","","","74","J","1","","","152","main_expt","",""
"","bandit","234","429572","0.0-194.0-0.0","58162224","wem/bandit_party_1","AD8JNBDMO3NED","either","7","109","","","","","","","0","0","1","","0.3710492515","0.2","0.6","0.4","0.8","0.3710492515","0.2396245514","0.1083789561","0.2121816628","","","","","","","","","","","","","","72","H","0","img/none_selected.jpg","","153","main_expt","",""
"","bandit","235","431346","0.0-195.0-0.0","58162224","wem/bandit_party_1","AD8JNBDMO3NED","either","7","245","","","","","","","0","1","0","","0.2085838567","0.2","0.6","0.4","0.8","0.3483335413","0.2085838567","0.109098481","0.1830588608","","","","","","","","","","","","","","74","J","1","","","154","main_expt","",""
"","bandit","236","432898","0.0-196.0-0.0","58162224","wem/bandit_party_1","AD8JNBDMO3NED","either","7","31","","","","","","","0","0","1","0.1758262092","","0.2","0.6","0.4","0.8","","","","","0.3343760247","0.1864274254","0.1758262092","0.2031423662","","","","","","","","","","75","K","2","","","155","main_expt","",""
"","bandit","237","434425","0.0-197.0-0.0","58162224","wem/bandit_party_1","AD8JNBDMO3NED","either","7","8","","","","","","","0","1","0","","0.2022731065","0.2","0.6","0.4","0.8","0.3742013553","0.1750870897","0.2046597001","0.2022731065","","","","","","","","","","","","","","76","L","3","","","156","main_expt","",""
"","bandit","238","435948","0.0-198.0-0.0","58162224","wem/bandit_party_1","AD8JNBDMO3NED","either","7","4","","","","","","","0","0","1","","0.1774751899","0.2","0.6","0.4","0.8","0.3620366094","0.1321985386","0.1774751899","0.1826661219","","","","","","","","","","","","","","75","K","2","","","157","main_expt","",""
"","bandit","239","437630","0.0-199.0-0.0","58162224","wem/bandit_party_1","AD8JNBDMO3NED","either","7","161","","","","","","","0","0","1","0.1658993888","","0.2","0.6","0.4","0.8","","","","","0.3671714071","0.1341899746","0.1612033886","0.1658993888","","","","","","","","","","76","L","3","","","158","main_expt","",""
"","bandit","240","439307","0.0-200.0-0.0","58162224","wem/bandit_party_1","AD8JNBDMO3NED","either","7","155","","","","","","","0","0","1","0.1567784951","","0.2","0.6","0.4","0.8","","","","","0.4015988616","0.1567784951","0.1586838935","0.1620079643","","","","","","","","","","74","J","1","","","159","main_expt","",""
"","bandit","241","441081","0.0-201.0-0.0","58162224","wem/bandit_party_1","AD8JNBDMO3NED","either","7","250","","","","","","","0","0","1","0.1615549635","","0.2","0.6","0.4","0.8","","","","","0.4004877553","0.1615549635","0.2159944071","0.2453635642","","","","","","","","","","74","J","1","","","160","main_expt","",""
"","bandit","242","442646","0.0-202.0-0.0","58162224","wem/bandit_party_1","AD8JNBDMO3NED","either","7","43","","","","","","","0","0","1","","0.2105769377","0.2","0.6","0.4","0.8","0.4095849454","0.1854631015","0.2105769377","0.2456373749","","","","","","","","","","","","","","75","K","2","","","161","main_expt","",""
"","bandit","243","444170","0.0-203.0-0.0","58162224","wem/bandit_party_1","AD8JNBDMO3NED","either","7","3","","","","","","","0","0","1","0.2006925765","","0.2","0.6","0.4","0.8","","","","","0.3978002783","0.21229469","0.2006925765","0.2460125232","","","","","","","","","","75","K","2","","","162","main_expt","",""
"","bandit","244","445752","0.0-204.0-0.0","58162224","wem/bandit_party_1","AD8JNBDMO3NED","either","7","62","","","","","","","0","0","1","","0.4180552148","0.2","0.6","0.4","0.8","0.4180552148","0.162194177","0.2365124807","0.2013568893","","","","","","","","","","","","","","72","H","0","img/none_selected.jpg","","163","main_expt","",""
"","bandit","245","447427","0.0-205.0-0.0","58162224","wem/bandit_party_1","AD8JNBDMO3NED","either","7","151","","","","","","","0","0","1","","0.4407560021","0.2","0.6","0.4","0.8","0.4407560021","0.1535707797","0.2157370886","0.1933595846","","","","","","","","","","","","","","72","H","0","img/none_selected.jpg","","164","main_expt","",""
"","bandit","246","449214","0.0-206.0-0.0","58162224","wem/bandit_party_1","AD8JNBDMO3NED","either","7","265","","","","","","","0","0","1","0.2315934193","","0.2","0.6","0.4","0.8","","","","","0.4582960521","0.2315934193","0.2166787898","0.167552211","","","","","","","","","","74","J","1","","","165","main_expt","",""
"","bandit","247","450787","0.0-207.0-0.0","58162224","wem/bandit_party_1","AD8JNBDMO3NED","either","7","53","","","","","","","0","1","0","","0.4337500892","0.2","0.6","0.4","0.8","0.4337500892","0.2579087381","0.1846262972","0.1311237951","","","","","","","","","","","","","","72","H","0","img/none_selected.jpg","","166","main_expt","",""
"","bandit","248","452573","0.0-208.0-0.0","58162224","wem/bandit_party_1","AD8JNBDMO3NED","either","7","263","","","","","","","0","0","1","","0.4537582576","0.2","0.6","0.4","0.8","0.4537582576","0.2496457694","0.1888750078","0.1714029316","","","","","","","","","","","","","","72","H","0","img/none_selected.jpg","","167","main_expt","",""
"","bandit","249","454129","0.0-209.0-0.0","58162224","wem/bandit_party_1","AD8JNBDMO3NED","either","7","36","","","","","","","0","0","1","","0.234558796","0.2","0.6","0.4","0.8","0.4473485534","0.234558796","0.2315683769","0.1494402723","","","","","","","","","","","","","","74","J","1","","","168","main_expt","",""
"","bandit","250","455677","0.0-210.0-0.0","58162224","wem/bandit_party_1","AD8JNBDMO3NED","either","7","29","","","","","","","0","0","1","","0.2458600006","0.2","0.6","0.4","0.8","0.4471591033","0.2458600006","0.2018123945","0.1819888556","","","","","","","","","","","","","","74","J","1","","","169","main_expt","",""
"","bandit","251","457431","0.0-211.0-0.0","58162224","wem/bandit_party_1","AD8JNBDMO3NED","either","7","222","","","","","","","0","0","1","","0.139238222","0.2","0.6","0.4","0.8","0.4581839475","0.2214583157","0.139238222","0.2329206984","","","","","","","","","","","","","","75","K","2","","","170","main_expt","",""
"","bandit","252","458960","0.0-212.0-0.0","58162224","wem/bandit_party_1","AD8JNBDMO3NED","either","7","8","","","","","","","0","0","1","","0.4674995421","0.2","0.6","0.4","0.8","0.4674995421","0.296208115","0.1466511374","0.2000607923","","","","","","","","","","","","","","72","H","0","img/none_selected.jpg","","171","main_expt","",""
"","bandit","253","460638","0.0-213.0-0.0","58162224","wem/bandit_party_1","AD8JNBDMO3NED","either","7","156","","","","","","","0","0","1","0.1348290388","","0.2","0.6","0.4","0.8","","","","","0.4455620345","0.3062379281","0.1348290388","0.2342957318","","","","","","","","","","75","K","2","","","172","main_expt","",""
"","bandit","254","462171","0.0-214.0-0.0","58162224","wem/bandit_party_1","AD8JNBDMO3NED","either","7","9","","","","","","","0","0","1","0.2498067723","","0.2","0.6","0.4","0.8","","","","","0.4471610379","0.2498067723","0.1521691919","0.2189308077","","","","","","","","","","74","J","1","","","173","main_expt","",""
"","bandit","255","463795","0.0-215.0-0.0","58162224","wem/bandit_party_1","AD8JNBDMO3NED","either","7","101","","","","","","","0","0","1","","0.1803522277","0.2","0.6","0.4","0.8","0.4496576915","0.1803522277","0.2191935525","0.2373932689","","","","","","","","","","","","","","74","J","1","","","174","main_expt","",""
"","bandit","256","465597","0.0-216.0-0.0","58162224","wem/bandit_party_1","AD8JNBDMO3NED","either","7","280","","","","","","","0","0","1","0.2160264752","","0.2","0.6","0.4","0.8","","","","","0.4715297358","0.2014319342","0.219961305","0.2160264752","","","","","","","","","","76","L","3","","","175","main_expt","",""
"","bandit","257","467155","0.0-217.0-0.0","58162224","wem/bandit_party_1","AD8JNBDMO3NED","either","7","36","","","","","","","0","0","1","0.1990604306","","0.2","0.6","0.4","0.8","","","","","0.477956151","0.2122003168","0.1882485239","0.1990604306","","","","","","","","","","76","L","3","","","176","main_expt","",""
"","bandit","258","468718","0.0-218.0-0.0","58162224","wem/bandit_party_1","AD8JNBDMO3NED","either","7","41","","","","","","","0","0","1","0.2629069455","","0.2","0.6","0.4","0.8","","","","","0.4563721206","0.2629069455","0.1644902553","0.1729978196","","","","","","","","","","74","J","1","","","177","main_expt","",""
"","bandit","259","470460","0.0-219.0-0.0","58162224","wem/bandit_party_1","AD8JNBDMO3NED","either","7","218","","","","","","","0","0","1","0.1633080779","","0.2","0.6","0.4","0.8","","","","","0.4409869931","0.2336104206","0.1713669852","0.1633080779","","","","","","","","","","76","L","3","","","178","main_expt","",""
"","bandit","260","472182","0.0-220.0-0.0","58162224","wem/bandit_party_1","AD8JNBDMO3NED","either","7","200","","","","","","","0","0","1","0.1887504226","","0.2","0.6","0.4","0.8","","","","","0.4243126063","0.1887504226","0.2263400462","0.1243251356","","","","","","","","","","74","J","1","","","179","main_expt","",""
"","bandit","261","473717","0.0-221.0-0.0","58162224","wem/bandit_party_1","AD8JNBDMO3NED","either","7","14","","","","","","","1","0","0","0.1150149055","","0.2","0.6","0.4","0.8","","","","","0.4312830743","0.138376641","0.2036870175","0.1150149055","","","","","","","","","","76","L","3","","","180","main_expt","",""
"","bandit","262","475579","0.0-222.0-0.0","58162224","wem/bandit_party_1","AD8JNBDMO3NED","either","7","341","","","","","","","0","0","1","0.1407924877","","0.2","0.6","0.4","0.8","","","","","0.4433127893","0.1883992559","0.1934599198","0.1407924877","","","","","","","","","","76","L","3","","","181","main_expt","",""
"","bandit","263","477152","0.0-223.0-0.0","58162224","wem/bandit_party_1","AD8JNBDMO3NED","either","7","46","","","","","","","1","0","0","0.128889003","","0.2","0.6","0.4","0.8","","","","","0.440136403","0.128889003","0.2424515525","0.09672650852","","","","","","","","","","74","J","1","","","182","main_expt","",""
"","bandit","264","478707","0.0-224.0-0.0","58162224","wem/bandit_party_1","AD8JNBDMO3NED","either","7","33","","","","","","","0","0","1","0.09888002855","","0.2","0.6","0.4","0.8","","","","","0.4347693449","0.1748769843","0.1961777535","0.09888002855","","","","","","","","","","76","L","3","","","183","main_expt","",""
"","bandit","265","480235","0.0-225.0-0.0","58162224","wem/bandit_party_1","AD8JNBDMO3NED","either","7","7","","","","","","","0","0","1","0.1489283113","","0.2","0.6","0.4","0.8","","","","","0.4277130926","0.1945994373","0.1489283113","0.07200145298","","","","","","","","","","75","K","2","","","184","main_expt","",""
"","bandit","266","482060","0.0-226.0-0.0","58162224","wem/bandit_party_1","AD8JNBDMO3NED","either","7","302","","","","","","","0","0","1","","0.09476413333","0.2","0.6","0.4","0.8","0.3956248437","0.1644748654","0.1499965078","0.09476413333","","","","","","","","","","","","","","76","L","3","","","185","main_expt","",""
"","bandit","267","483911","0.0-227.0-0.0","58162224","wem/bandit_party_1","AD8JNBDMO3NED","either","7","309","","","","","","","0","0","1","","0.2169832988","0.2","0.6","0.4","0.8","0.3748928266","0.1504635592","0.2169832988","0.06556422103","","","","","","","","","","","","","","75","K","2","","","186","main_expt","",""
"","bandit","268","485616","0.0-228.0-0.0","58162224","wem/bandit_party_1","AD8JNBDMO3NED","either","7","163","","","","","","","0","0","1","","0.1760039214","0.2","0.6","0.4","0.8","0.3848139325","0.1760039214","0.2655186329","0.08901149072","","","","","","","","","","","","","","74","J","1","","","187","main_expt","",""
"","bandit","269","487299","0.0-229.0-0.0","58162224","wem/bandit_party_1","AD8JNBDMO3NED","either","7","150","","","","","","","0","0","1","0.1203267588","","0.2","0.6","0.4","0.8","","","","","0.3990176401","0.1203267588","0.2738785118","0.09471428588","","","","","","","","","","74","J","1","","","188","main_expt","",""
"","bandit","270","489255","0.0-230.0-0.0","58162224","wem/bandit_party_1","AD8JNBDMO3NED","either","7","410","","","","","","","0","0","1","0.05118235823","","0.2","0.6","0.4","0.8","","","","","0.3581396838","0.1171540391","0.3041874674","0.05118235823","","","","","","","","","","76","L","3","","","189","main_expt","",""
"","bandit","271","490976","0.0-231.0-0.0","58162224","wem/bandit_party_1","AD8JNBDMO3NED","either","7","188","","","","","","","0","0","1","0.05788318751","","0.2","0.6","0.4","0.8","","","","","0.2882972244","0.1535230761","0.3229453735","0.05788318751","","","","","","","","","","76","L","3","","","190","main_expt","",""
"","bandit","272","492567","0.0-232.0-0.0","58162224","wem/bandit_party_1","AD8JNBDMO3NED","either","7","65","","","","","","","0","0","1","0.08736915481","","0.2","0.6","0.4","0.8","","","","","0.3145326233","0.1372750947","0.3818249757","0.08736915481","","","","","","","","","","76","L","3","","","191","main_expt","",""
"","bandit","273","494450","0.0-233.0-0.0","58162224","wem/bandit_party_1","AD8JNBDMO3NED","either","7","359","","","","","","","0","0","1","0.1047771501","","0.2","0.6","0.4","0.8","","","","","0.3270603702","0.1047771501","0.4157726243","0.08251019118","","","","","","","","","","74","J","1","","","192","main_expt","",""
"","bandit","274","496054","0.0-234.0-0.0","58162224","wem/bandit_party_1","AD8JNBDMO3NED","either","7","79","","","","","","","0","0","1","","0.3604030797","0.2","0.6","0.4","0.8","0.3604030797","0.1100845432","0.4611608212","0.06897628064","","","","","","","","","","","","","","72","H","0","img/none_selected.jpg","","193","main_expt","",""
"","bandit","275","497637","0.0-235.0-0.0","58162224","wem/bandit_party_1","AD8JNBDMO3NED","either","7","60","","","","","","","1","0","0","0.1468163818","","0.2","0.6","0.4","0.8","","","","","0.357423186","0.1468163818","0.4508818777","0.06801266305","","","","","","","","","","74","J","1","","","194","main_expt","",""
"","bandit","276","499292","0.0-236.0-0.0","58162224","wem/bandit_party_1","AD8JNBDMO3NED","either","7","134","","","","","","","0","0","1","0.1495594621","","0.2","0.6","0.4","0.8","","","","","0.3697779856","0.1495594621","0.4278921451","0.09923709358","","","","","","","","","","74","J","1","","","195","main_expt","",""
"","bandit","277","500937","0.0-237.0-0.0","58162224","wem/bandit_party_1","AD8JNBDMO3NED","either","7","122","","","","","","","0","0","1","","0.2263220537","0.2","0.6","0.4","0.8","0.3617177512","0.2263220537","0.4256293003","0.1103063831","","","","","","","","","","","","","","74","J","1","","","196","main_expt","",""
"","bandit","278","502472","0.0-238.0-0.0","58162224","wem/bandit_party_1","AD8JNBDMO3NED","either","7","14","","","","","","","0","1","0","","0.4476975038","0.2","0.6","0.4","0.8","0.3775990084","0.2204718804","0.4476975038","0.07377144043","","","","","","","","","","","","","","75","K","2","","","197","main_expt","",""
"","bandit","279","504152","0.0-239.0-0.0","58162224","wem/bandit_party_1","AD8JNBDMO3NED","either","7","161","","","","","","","0","0","1","","0.08863448313","0.2","0.6","0.4","0.8","0.4144042571","0.2401118457","0.4434357272","0.08863448313","","","","","","","","","","","","","","76","L","3","","","198","main_expt","",""
"","bandit","280","505680","0.0-240.0-0.0","58162224","wem/bandit_party_1","AD8JNBDMO3NED","either","7","3","","","","","","","0","1","0","","0.4245114622","0.2","0.6","0.4","0.8","0.4081775392","0.2673724497","0.4245114622","0.1082179128","","","","","","","","","","","","","","75","K","2","","","199","main_expt","",""
"","bandit","281","507202","0.0-241.0-0.0","58162224","wem/bandit_party_1","AD8JNBDMO3NED","either","7","1","","","","","","","0","0","1","0.09350688576","","0.2","0.6","0.4","0.8","","","","","0.4166156547","0.3125307902","0.4087100315","0.09350688576","","","","","","","","","","76","L","3","","","200","main_expt","",""
"","bandit","282","508727","0.0-242.0-0.0","58162224","wem/bandit_party_1","AD8JNBDMO3NED","either","7","4","","","","","","","0","0","1","0.1036625099","","0.2","0.6","0.4","0.8","","","","","0.4306537176","0.2914574258","0.4361521275","0.1036625099","","","","","","","","","","76","L","3","","","201","main_expt","",""
"","bandit","283","510254","0.0-243.0-0.0","58162224","wem/bandit_party_1","AD8JNBDMO3NED","either","7","3","","","","","","","0","0","1","0.1216733889","","0.2","0.6","0.4","0.8","","","","","0.449382563","0.2550600684","0.3332596158","0.1216733889","","","","","","","","","","76","L","3","","","202","main_expt","",""
"","bandit","284","512174","0.0-244.0-0.0","58162224","wem/bandit_party_1","AD8JNBDMO3NED","either","7","399","","","","","","","0","0","1","0.2769745997","","0.2","0.6","0.4","0.8","","","","","0.4506576586","0.2769745997","0.3581848779","0.120655788","","","","","","","","","","74","J","1","","","203","main_expt","",""
"","bandit","285","514175","0.0-245.0-0.0","58162224","wem/bandit_party_1","AD8JNBDMO3NED","either","7","474","","","","","","","0","0","1","0.1082970726","","0.2","0.6","0.4","0.8","","","","","0.454839243","0.2752990059","0.3597133043","0.1082970726","","","","","","","","","","76","L","3","","","204","main_expt","",""
"","bandit","286","515737","0.0-246.0-0.0","58162224","wem/bandit_party_1","AD8JNBDMO3NED","either","7","40","","","","","","","0","0","1","0.09143681274","","0.2","0.6","0.4","0.8","","","","","0.4512889682","0.2901512169","0.3630183988","0.09143681274","","","","","","","","","","76","L","3","","","205","main_expt","",""
"","bandit","287","517481","0.0-247.0-0.0","58162224","wem/bandit_party_1","AD8JNBDMO3NED","either","7","222","","","","","","","0","0","1","0.2823763913","","0.2","0.6","0.4","0.8","","","","","0.4591490044","0.2823763913","0.3737494834","0.08377413986","","","","","","","","","","74","J","1","","","206","main_expt","",""
"","bandit","288","519019","0.0-248.0-0.0","58162224","wem/bandit_party_1","AD8JNBDMO3NED","either","7","18","","","","","","","0","1","0","","0.3668784438","0.2","0.6","0.4","0.8","0.4650593633","0.2708062506","0.3668784438","0.1585073664","","","","","","","","","","","","","","75","K","2","","","207","main_expt","",""
"","bandit","289","520928","0.0-249.0-0.0","58162224","wem/bandit_party_1","AD8JNBDMO3NED","either","7","388","","","","","","","0","0","1","0.162299901","","0.2","0.6","0.4","0.8","","","","","0.4641513068","0.2641553663","0.4045351895","0.162299901","","","","","","","","","","76","L","3","","","208","main_expt","",""
"","bandit","290","522701","0.0-250.0-0.0","58162224","wem/bandit_party_1","AD8JNBDMO3NED","either","7","245","","","","","","","0","0","1","","0.2704675845","0.2","0.6","0.4","0.8","0.4567807332","0.2704675845","0.4402386934","0.1542266077","","","","","","","","","","","","","","74","J","1","","","209","main_expt","",""
"","bandit","291","524274","0.0-251.0-0.0","58162224","wem/bandit_party_1","AD8JNBDMO3NED","either","7","53","","","","","","","0","0","1","0.3420868926","","0.2","0.6","0.4","0.8","","","","","0.428253188","0.3420868926","0.4483623408","0.1890415559","","","","","","","","","","74","J","1","","","210","main_expt","",""
"","bandit","292","525851","0.0-252.0-0.0","58162224","wem/bandit_party_1","AD8JNBDMO3NED","either","7","55","","","","","","","0","0","1","0.3069688952","","0.2","0.6","0.4","0.8","","","","","0.410271385","0.3069688952","0.4471415093","0.1818133019","","","","","","","","","","74","J","1","","","211","main_expt","",""
"","bandit","293","527456","0.0-253.0-0.0","58162224","wem/bandit_party_1","AD8JNBDMO3NED","either","7","81","","","","","","","0","0","1","0.1782747956","","0.2","0.6","0.4","0.8","","","","","0.4065587724","0.3005379093","0.4374655127","0.1782747956","","","","","","","","","","76","L","3","","","212","main_expt","",""
"","bandit","294","529116","0.0-254.0-0.0","58162224","wem/bandit_party_1","AD8JNBDMO3NED","either","7","136","","","","","","","0","0","1","","0.213882915","0.2","0.6","0.4","0.8","0.4007116542","0.213882915","0.4381457257","0.1935195711","","","","","","","","","","","","","","74","J","1","","","213","main_expt","",""
"","bandit","295","530910","0.0-255.0-0.0","58162224","wem/bandit_party_1","AD8JNBDMO3NED","either","7","275","","","","","","","0","0","1","0.2421176173","","0.2","0.6","0.4","0.8","","","","","0.4246209323","0.2138557204","0.4643769008","0.2421176173","","","","","","","","","","76","L","3","","","214","main_expt","",""
"","bandit","296","532436","0.0-256.0-0.0","58162224","wem/bandit_party_1","AD8JNBDMO3NED","either","7","3","","","","","","","0","0","1","0.2629876012","","0.2","0.6","0.4","0.8","","","","","0.3993057066","0.2142566612","0.4328812357","0.2629876012","","","","","","","","","","76","L","3","","","215","main_expt","",""
"","bandit","297","533967","0.0-257.0-0.0","58162224","wem/bandit_party_1","AD8JNBDMO3NED","either","7","10","","","","","","","1","0","0","0.2977714141","","0.2","0.6","0.4","0.8","","","","","0.3987772474","0.1900351118","0.4064507999","0.2977714141","","","","","","","","","","76","L","3","","","216","main_expt","",""
"","bandit","298","535569","0.0-258.0-0.0","58162224","wem/bandit_party_1","AD8JNBDMO3NED","either","7","79","","","","","","","1","0","0","0.3017601552","","0.2","0.6","0.4","0.8","","","","","0.4101433534","0.2185169477","0.4197961641","0.3017601552","","","","","","","","","","76","L","3","","","217","main_expt","",""
"","bandit","299","537102","0.0-259.0-0.0","58162224","wem/bandit_party_1","AD8JNBDMO3NED","either","7","5","","","","","","","0","1","0","","0.4448029092","0.2","0.6","0.4","0.8","0.4448029092","0.2240895604","0.4167397569","0.2888566207","","","","","","","","","","","","","","72","H","0","img/none_selected.jpg","","218","main_expt","",""
"","bandit","300","538742","0.0-260.0-0.0","58162224","wem/bandit_party_1","AD8JNBDMO3NED","either","7","118","","","","","","","0","1","0","","0.4250944588","0.2","0.6","0.4","0.8","0.4454766299","0.1990808675","0.4250944588","0.2844008008","","","","","","","","","","","","","","75","K","2","","","219","main_expt","",""
"","bandit","301","540408","0.0-261.0-0.0","58162224","wem/bandit_party_1","AD8JNBDMO3NED","either","7","144","","","","","","","0","0","1","0.2225062479","","0.2","0.6","0.4","0.8","","","","","0.4610997771","0.266602996","0.4173336587","0.2225062479","","","","","","","","","","76","L","3","","","220","main_expt","",""
"","bandit","302","542022","0.0-262.0-0.0","58162224","wem/bandit_party_1","AD8JNBDMO3NED","either","7","89","","","","","","","0","0","1","","0.4642289789","0.2","0.6","0.4","0.8","0.4642289789","0.2443661227","0.3944711005","0.2409900116","","","","","","","","","","","","","","72","H","0","img/none_selected.jpg","","221","main_expt","",""
"","bandit","303","544011","0.0-263.0-0.0","58162224","wem/bandit_party_1","AD8JNBDMO3NED","either","7","466","","","","","","","1","0","0","0.2205922116","","0.2","0.6","0.4","0.8","","","","","0.4641270597","0.2205922116","0.3619306912","0.1989678636","","","","","","","","","","74","J","1","","","222","main_expt","",""
"","bandit","304","545542","0.0-264.0-0.0","58162224","wem/bandit_party_1","AD8JNBDMO3NED","either","7","9","","","","","","","0","0","1","0.1861223506","","0.2","0.6","0.4","0.8","","","","","0.4697433819","0.1861223506","0.4117842179","0.1902867071","","","","","","","","","","74","J","1","","","223","main_expt","",""
"","bandit","305","547232","0.0-265.0-0.0","58162224","wem/bandit_party_1","AD8JNBDMO3NED","either","7","166","","","","","","","0","0","1","0.2076415522","","0.2","0.6","0.4","0.8","","","","","0.460898083","0.1668884863","0.3965092367","0.2076415522","","","","","","","","","","76","L","3","","","224","main_expt","",""
"","bandit","306","548876","0.0-266.0-0.0","58162224","wem/bandit_party_1","AD8JNBDMO3NED","either","7","116","","","","","","","0","0","1","0.1481472712","","0.2","0.6","0.4","0.8","","","","","0.4394890665","0.1481472712","0.4084477862","0.2393469174","","","","","","","","","","74","J","1","","","225","main_expt","",""
"","bandit","307","550455","0.0-267.0-0.0","58162224","wem/bandit_party_1","AD8JNBDMO3NED","either","7","44","","","","","","","0","0","1","","0.4104601526","0.2","0.6","0.4","0.8","0.4520955237","0.1140846591","0.4104601526","0.2425440376","","","","","","","","","","","","","","75","K","2","","","226","main_expt","",""
"","bandit","308","552091","0.0-268.0-0.0","58162224","wem/bandit_party_1","AD8JNBDMO3NED","either","7","106","","","","","","","0","0","1","","0.4324220164","0.2","0.6","0.4","0.8","0.4324220164","0.1074218354","0.3899733519","0.2365603363","","","","","","","","","","","","","","72","H","0","img/none_selected.jpg","","227","main_expt","",""
"","bandit","309","553870","0.0-269.0-0.0","58162224","wem/bandit_party_1","AD8JNBDMO3NED","either","7","232","","","","","","","1","0","0","0.3796730737","","0.2","0.6","0.4","0.8","","","","","0.4220482421","0.08065165665","0.3796730737","0.2127958296","","","","","","","","","","75","K","2","","","228","main_expt","",""
"","bandit","310","555724","0.0-270.0-0.0","58162224","wem/bandit_party_1","AD8JNBDMO3NED","either","7","320","","","","","","","0","0","1","0.2207861463","","0.2","0.6","0.4","0.8","","","","","0.3885749154","0.07774059362","0.4046866514","0.2207861463","","","","","","","","","","76","L","3","","","229","main_expt","",""
"","bandit","311","557370","0.0-271.0-0.0","58162224","wem/bandit_party_1","AD8JNBDMO3NED","either","7","131","","","","","","","0","0","1","0.3988793555","","0.2","0.6","0.4","0.8","","","","","0.4023755806","0.1109483114","0.3988793555","0.2589226453","","","","","","","","","","75","K","2","","","230","main_expt","",""
"","bandit","312","559002","0.0-272.0-0.0","58162224","wem/bandit_party_1","AD8JNBDMO3NED","either","7","108","","","","","","","0","0","1","0.05902300203","","0.2","0.6","0.4","0.8","","","","","0.3768725222","0.05902300203","0.3981898202","0.2956158432","","","","","","","","","","74","J","1","","","231","main_expt","",""
"","bandit","313","560638","0.0-273.0-0.0","58162224","wem/bandit_party_1","AD8JNBDMO3NED","either","7","112","","","","","","","0","1","0","","0.4411941832","0.2","0.6","0.4","0.8","0.3619917427","0.06675855664","0.4411941832","0.3202484073","","","","","","","","","","","","","","75","K","2","","","232","main_expt","",""
"","bandit","314","562305","0.0-274.0-0.0","58162224","wem/bandit_party_1","AD8JNBDMO3NED","either","7","143","","","","","","","0","1","0","","0.3833578816","0.2","0.6","0.4","0.8","0.3833578816","0.06703699679","0.42967461","0.2933644042","","","","","","","","","","","","","","72","H","0","img/none_selected.jpg","","233","main_expt","",""
"","bandit","315","563946","0.0-275.0-0.0","58162224","wem/bandit_party_1","AD8JNBDMO3NED","either","7","117","","","","","","","0","1","0","","0.3552131768","0.2","0.6","0.4","0.8","0.3552131768","0.05331023031","0.4242798354","0.3106154811","","","","","","","","","","","","","","72","H","0","img/none_selected.jpg","","234","main_expt","",""
"","bandit","316","565655","0.0-276.0-0.0","58162224","wem/bandit_party_1","AD8JNBDMO3NED","either","7","184","","","","","","","0","0","1","0.3135084543","","0.2","0.6","0.4","0.8","","","","","0.3135084543","0.05187545802","0.4617388459","0.3158990995","","","","","","","","","","72","H","0","img/none_selected.jpg","","235","main_expt","",""
"","bandit","317","567446","0.0-277.0-0.0","58162224","wem/bandit_party_1","AD8JNBDMO3NED","either","7","269","","","","","","","0","0","1","","0.244945467","0.2","0.6","0.4","0.8","0.244945467","0.06939909985","0.4619510484","0.3036927748","","","","","","","","","","","","","","72","H","0","img/none_selected.jpg","","236","main_expt","",""
