"consent","trial_type","trial_index","time_elapsed","internal_node_id","subjID","study","MID","cond","drift","rt","responses","button_pressed","key_press","like","value","connected","gems","bombs","no_reward","GemPrChosen","BombPrChosen","GainOverPainPr_0","GainOverPainPr_1","GainOverPainPr_2","GainOverPainPr_3","LosePr_0","LosePr_1","LosePr_2","LosePr_3","WinPr_0","WinPr_1","WinPr_2","WinPr_3","Q0","Q1","Q2","gender","age","ethnicity","label","expt_phase","target","respCharCode","respKey","respChoiceNum","respChoice","practice","trial_counter","trial_label","Q0_index"
"GDM/GDM_behavioral_consent_30min_online.html","consent","0","12209","0.0-0.0","59147995","wem/bandit_party_1","A1DBPM1UHEP4MU","either","4","","","","","","","","","","","","","","","","","","","","","","","","","","","","","","","","","","","","","","","","",""
"","survey-text","1","24213","0.0-1.0","59147995","wem/bandit_party_1","A1DBPM1UHEP4MU","either","4","10974","{""Q0"":""A1DBPM1UHEP4MU""}","","","","","","","","","","","","","","","","","","","","","","","","","","","","","","","","","","","","","","",""
"","button-response","2","26260","0.0-2.0","59147995","wem/bandit_party_1","A1DBPM1UHEP4MU","either","4","1032","","1","","","","","","","","","","","","","","","","","","","","","","","","","","","","","","","","","","","","","",""
"","text-replacement","3","40852","0.0-3.0","59147995","wem/bandit_party_1","A1DBPM1UHEP4MU","either","4","13582","","","32","","","","","","","","","","","","","","","","","","","","","","","","","","","","","","","","","","","","",""
"","text-replacement","4","42864","0.0-4.0","59147995","wem/bandit_party_1","A1DBPM1UHEP4MU","either","4","2008","","","32","","","","","","","","","","","","","","","","","","","","","","","","","","","","","","","","","","","","",""
"","identification","5","46761","0.0-6.0-0.0","59147995","wem/bandit_party_1","A1DBPM1UHEP4MU","either","4","3855","","","","6","6","6","","","","","","","","","","","","","","","","","","","","","","","","pre","identification_pre","the Democratic Party","","","","","","","",""
"","identification","6","51512","0.0-6.0-1.0","59147995","wem/bandit_party_1","A1DBPM1UHEP4MU","either","4","3710","","","","1","3","2","","","","","","","","","","","","","","","","","","","","","","","","pre","identification_pre","the Republican party","","","","","","","",""
"","text-replacement","7","58572","0.0-7.0","59147995","wem/bandit_party_1","A1DBPM1UHEP4MU","either","4","6054","","","32","","","","","","","","","","","","","","","","","","","","","","","","","","","","","","","","","","","","",""
"","text-replacement","8","62258","0.0-8.0","59147995","wem/bandit_party_1","A1DBPM1UHEP4MU","either","4","3681","","","32","","","","","","","","","","","","","","","","","","","","","","","","","","","","","","","","","","","","",""
"","text-replacement","9","73040","0.0-9.0","59147995","wem/bandit_party_1","A1DBPM1UHEP4MU","either","4","10778","","","32","","","","","","","","","","","","","","","","","","","","","","","","","","","","","","","","","","","","",""
"","text-replacement","10","75391","0.0-10.0","59147995","wem/bandit_party_1","A1DBPM1UHEP4MU","either","4","2348","","","32","","","","","","","","","","","","","","","","","","","","","","","","","","","","","","","","","","","","",""
"","text-replacement","11","77688","0.0-11.0","59147995","wem/bandit_party_1","A1DBPM1UHEP4MU","either","4","2294","","","32","","","","","","","","","","","","","","","","","","","","","","","","","","","","","","","","","","","","",""
"","bandit","12","80928","0.0-12.0-0.0","59147995","wem/bandit_party_1","A1DBPM1UHEP4MU","either","4","1720","","","","","","","0","0","1","0","0","","","","","0","","","","0","","","","","","","","","","","","","74","J","0","img/none_selected_demo.jpg","true","0","",""
"","bandit","13","82948","0.0-13.0-0.0","59147995","wem/bandit_party_1","A1DBPM1UHEP4MU","either","4","504","","","","","","","0","0","1","0","0","","","","","0","","","","0","","","","","","","","","","","","","75","K","0","img/none_selected_demo.jpg","true","0","",""
"","text-replacement","14","86449","0.0-14.0","59147995","wem/bandit_party_1","A1DBPM1UHEP4MU","either","4","3495","","","32","","","","","","","","","","","","","","","","","","","","","","","","","","","","","","","","","","","","",""
"","text-replacement","15","89961","0.0-15.0","59147995","wem/bandit_party_1","A1DBPM1UHEP4MU","either","4","3508","","","32","","","","","","","","","","","","","","","","","","","","","","","","","","","","","","","","","","","","",""
"","text-replacement","16","95625","0.0-16.0","59147995","wem/bandit_party_1","A1DBPM1UHEP4MU","either","4","5661","","","32","","","","","","","","","","","","","","","","","","","","","","","","","","","","","","","","","","","","",""
"","text-replacement","17","98353","0.0-17.0","59147995","wem/bandit_party_1","A1DBPM1UHEP4MU","either","4","2725","","","32","","","","","","","","","","","","","","","","","","","","","","","","","","","","","","","","","","","","",""
"","bandit","18","100475","0.0-18.0-0.0","59147995","wem/bandit_party_1","A1DBPM1UHEP4MU","either","4","605","","","","","","","0","0","1","0.8","","0.5","0.5","","","","","","","0.8","0.2","","","","","","","","","","","","74","J","0","img/none_selected_demo.jpg","true","0","80_20_practice",""
"","bandit","19","103681","0.0-18.0-1.0","59147995","wem/bandit_party_1","A1DBPM1UHEP4MU","either","4","1690","","","","","","","0","1","0","","0.8","0.5","0.5","","","0.8","0.2","","","","","","","","","","","","","","","","74","J","0","img/none_selected_demo.jpg","true","0","80_20_practice",""
"","bandit","20","105520","0.0-18.0-2.0","59147995","wem/bandit_party_1","A1DBPM1UHEP4MU","either","4","324","","","","","","","1","0","0","0.8","","0.5","0.5","","","","","","","0.8","0.2","","","","","","","","","","","","74","J","0","img/none_selected_demo.jpg","true","0","80_20_practice",""
"","bandit","21","107285","0.0-18.0-3.0","59147995","wem/bandit_party_1","A1DBPM1UHEP4MU","either","4","249","","","","","","","1","0","0","0.8","","0.5","0.5","","","","","","","0.8","0.2","","","","","","","","","","","","74","J","0","img/none_selected_demo.jpg","true","0","80_20_practice",""
"","bandit","22","109092","0.0-18.0-4.0","59147995","wem/bandit_party_1","A1DBPM1UHEP4MU","either","4","292","","","","","","","0","0","1","0.2","","0.5","0.5","","","","","","","0.8","0.2","","","","","","","","","","","","75","K","1","","true","0","80_20_practice",""
"","bandit","23","110818","0.0-18.0-5.0","59147995","wem/bandit_party_1","A1DBPM1UHEP4MU","either","4","210","","","","","","","0","0","1","","0.2","0.5","0.5","","","0.8","0.2","","","","","","","","","","","","","","","","75","K","1","","true","0","80_20_practice",""
"","bandit","24","112459","0.0-18.0-6.0","59147995","wem/bandit_party_1","A1DBPM1UHEP4MU","either","4","124","","","","","","","0","0","1","0.2","","0.5","0.5","","","","","","","0.8","0.2","","","","","","","","","","","","75","K","1","","true","0","80_20_practice",""
"","bandit","25","114190","0.0-18.0-7.0","59147995","wem/bandit_party_1","A1DBPM1UHEP4MU","either","4","215","","","","","","","0","0","1","0.2","","0.5","0.5","","","","","","","0.8","0.2","","","","","","","","","","","","75","K","1","","true","0","80_20_practice",""
"","bandit","26","115969","0.0-18.0-8.0","59147995","wem/bandit_party_1","A1DBPM1UHEP4MU","either","4","263","","","","","","","1","0","0","0.2","","0.5","0.5","","","","","","","0.8","0.2","","","","","","","","","","","","75","K","1","","true","0","80_20_practice",""
"","bandit","27","117720","0.0-18.0-9.0","59147995","wem/bandit_party_1","A1DBPM1UHEP4MU","either","4","237","","","","","","","0","0","1","0.2","","0.5","0.5","","","","","","","0.8","0.2","","","","","","","","","","","","75","K","1","","true","0","80_20_practice",""
"","bandit","28","119523","0.0-18.0-10.0","59147995","wem/bandit_party_1","A1DBPM1UHEP4MU","either","4","288","","","","","","","0","0","1","0.2","","0.5","0.5","","","","","","","0.8","0.2","","","","","","","","","","","","75","K","1","","true","0","80_20_practice",""
"","bandit","29","121256","0.0-18.0-11.0","59147995","wem/bandit_party_1","A1DBPM1UHEP4MU","either","4","216","","","","","","","0","0","1","0.2","","0.5","0.5","","","","","","","0.8","0.2","","","","","","","","","","","","75","K","1","","true","0","80_20_practice",""
"","bandit","30","123005","0.0-18.0-12.0","59147995","wem/bandit_party_1","A1DBPM1UHEP4MU","either","4","234","","","","","","","1","0","0","0.2","","0.5","0.5","","","","","","","0.8","0.2","","","","","","","","","","","","75","K","1","","true","0","80_20_practice",""
"","bandit","31","124750","0.0-18.0-13.0","59147995","wem/bandit_party_1","A1DBPM1UHEP4MU","either","4","227","","","","","","","0","0","1","0.2","","0.5","0.5","","","","","","","0.8","0.2","","","","","","","","","","","","75","K","1","","true","0","80_20_practice",""
"","bandit","32","126519","0.0-18.0-14.0","59147995","wem/bandit_party_1","A1DBPM1UHEP4MU","either","4","253","","","","","","","0","0","1","0.2","","0.5","0.5","","","","","","","0.8","0.2","","","","","","","","","","","","75","K","1","","true","0","80_20_practice",""
"","bandit","33","128172","0.0-18.0-15.0","59147995","wem/bandit_party_1","A1DBPM1UHEP4MU","either","4","137","","","","","","","0","0","1","0.2","","0.5","0.5","","","","","","","0.8","0.2","","","","","","","","","","","","75","K","1","","true","0","80_20_practice",""
"","bandit","34","129715","0.0-18.0-16.0","59147995","wem/bandit_party_1","A1DBPM1UHEP4MU","either","4","25","","","","","","","0","0","1","","0.2","0.5","0.5","","","0.8","0.2","","","","","","","","","","","","","","","","75","K","1","","true","0","80_20_practice",""
"","bandit","35","131242","0.0-18.0-17.0","59147995","wem/bandit_party_1","A1DBPM1UHEP4MU","either","4","11","","","","","","","0","0","1","","0.2","0.5","0.5","","","0.8","0.2","","","","","","","","","","","","","","","","75","K","1","","true","0","80_20_practice",""
"","bandit","36","132955","0.0-18.0-18.0","59147995","wem/bandit_party_1","A1DBPM1UHEP4MU","either","4","199","","","","","","","0","0","1","","0.2","0.5","0.5","","","0.8","0.2","","","","","","","","","","","","","","","","75","K","1","","true","0","80_20_practice",""
"","bandit","37","134704","0.0-18.0-19.0","59147995","wem/bandit_party_1","A1DBPM1UHEP4MU","either","4","231","","","","","","","0","1","0","","0.2","0.5","0.5","","","0.8","0.2","","","","","","","","","","","","","","","","75","K","1","","true","0","80_20_practice",""
"","text-replacement","38","136779","0.0-19.0","59147995","wem/bandit_party_1","A1DBPM1UHEP4MU","either","4","2067","","","32","","","","","","","","","","","","","","","","","","","","","","","","","","","","","","","","","","","","",""
"","bandit","39","141567","0.0-20.0-0.0","59147995","wem/bandit_party_1","A1DBPM1UHEP4MU","either","4","3273","","","","","","","1","0","0","1","0","","","","","0","1","","","1","0","","","","","","","","","","","","74","J","0","img/none_selected_demo.jpg","true","0","",""
"","text-replacement","40","141748","0.0-21.0","59147995","wem/bandit_party_1","A1DBPM1UHEP4MU","either","4","173","","","32","","","","","","","","","","","","","","","","","","","","","","","","","","","","","","","","","","","","",""
"","text-replacement","41","144783","0.0-22.0","59147995","wem/bandit_party_1","A1DBPM1UHEP4MU","either","4","3030","","","32","","","","","","","","","","","","","","","","","","","","","","","","","","","","","","","","","","","","",""
"","text-replacement","42","145844","0.0-23.0","59147995","wem/bandit_party_1","A1DBPM1UHEP4MU","either","4","1057","","","32","","","","","","","","","","","","","","","","","","","","","","","","","","","","","","","","","","","","",""
"","text-replacement","43","149740","0.0-24.0","59147995","wem/bandit_party_1","A1DBPM1UHEP4MU","either","4","3892","","","32","","","","","","","","","","","","","","","","","","","","","","","","","","","","","","","","","","","","",""
"","text-replacement","44","154639","0.0-25.0","59147995","wem/bandit_party_1","A1DBPM1UHEP4MU","either","4","4893","","","32","","","","","","","","","","","","","","","","","","","","","","","","","","","","","","","","","","","","",""
"","text-replacement","45","156662","0.0-26.0","59147995","wem/bandit_party_1","A1DBPM1UHEP4MU","either","4","2019","","","32","","","","","","","","","","","","","","","","","","","","","","","","","","","","","","","","","","","","",""
"","text-replacement","46","158557","0.0-27.0","59147995","wem/bandit_party_1","A1DBPM1UHEP4MU","either","4","1891","","","32","","","","","","","","","","","","","","","","","","","","","","","","","","","","","","","","","","","","",""
"","text-replacement","47","163750","0.0-28.0","59147995","wem/bandit_party_1","A1DBPM1UHEP4MU","either","4","5189","","","32","","","","","","","","","","","","","","","","","","","","","","","","","","","","","","","","","","","","",""
"","text-replacement","48","166061","0.0-29.0","59147995","wem/bandit_party_1","A1DBPM1UHEP4MU","either","4","2306","","","32","","","","","","","","","","","","","","","","","","","","","","","","","","","","","","","","","","","","",""
"","text-replacement","49","166978","0.0-30.0","59147995","wem/bandit_party_1","A1DBPM1UHEP4MU","either","4","913","","","32","","","","","","","","","","","","","","","","","","","","","","","","","","","","","","","","","","","","",""
"","text-replacement","50","168821","0.0-31.0","59147995","wem/bandit_party_1","A1DBPM1UHEP4MU","either","4","1839","","","32","","","","","","","","","","","","","","","","","","","","","","","","","","","","","","","","","","","","",""
"","bandit","51","170940","0.0-32.0-0.0","59147995","wem/bandit_party_1","A1DBPM1UHEP4MU","either","4","602","","","","","","","0","1","0","","0.8","0.5","0.5","0.5","0.5","0.8","0.2","0.6","0.2","","","","","","","","","","","","","","72","H","0","img/none_selected.jpg","true","0","full_practice",""
"","bandit","52","172722","0.0-32.0-1.0","59147995","wem/bandit_party_1","A1DBPM1UHEP4MU","either","4","266","","","","","","","0","0","1","0.2","","0.5","0.5","0.5","0.5","","","","","0.8","0.2","0.6","0.2","","","","","","","","","","74","J","1","","true","0","full_practice",""
"","bandit","53","174587","0.0-32.0-2.0","59147995","wem/bandit_party_1","A1DBPM1UHEP4MU","either","4","348","","","","","","","0","0","1","0.6","","0.5","0.5","0.5","0.5","","","","","0.8","0.2","0.6","0.2","","","","","","","","","","75","K","2","","true","0","full_practice",""
"","bandit","54","176338","0.0-32.0-3.0","59147995","wem/bandit_party_1","A1DBPM1UHEP4MU","either","4","233","","","","","","","1","0","0","0.2","","0.5","0.5","0.5","0.5","","","","","0.8","0.2","0.6","0.2","","","","","","","","","","76","L","3","","true","0","full_practice",""
"","bandit","55","178418","0.0-32.0-4.0","59147995","wem/bandit_party_1","A1DBPM1UHEP4MU","either","4","562","","","","","","","1","0","0","0.8","","0.5","0.5","0.5","0.5","","","","","0.8","0.2","0.6","0.2","","","","","","","","","","72","H","0","img/none_selected.jpg","true","0","full_practice",""
"","bandit","56","180188","0.0-32.0-5.0","59147995","wem/bandit_party_1","A1DBPM1UHEP4MU","either","4","250","","","","","","","0","0","1","0.2","","0.5","0.5","0.5","0.5","","","","","0.8","0.2","0.6","0.2","","","","","","","","","","74","J","1","","true","0","full_practice",""
"","bandit","57","182543","0.0-32.0-6.0","59147995","wem/bandit_party_1","A1DBPM1UHEP4MU","either","4","838","","","","","","","1","0","0","0.6","","0.5","0.5","0.5","0.5","","","","","0.8","0.2","0.6","0.2","","","","","","","","","","75","K","2","","true","0","full_practice",""
"","bandit","58","184300","0.0-32.0-7.0","59147995","wem/bandit_party_1","A1DBPM1UHEP4MU","either","4","237","","","","","","","0","0","1","","0.2","0.5","0.5","0.5","0.5","0.8","0.2","0.6","0.2","","","","","","","","","","","","","","76","L","3","","true","0","full_practice",""
"","bandit","59","186220","0.0-32.0-8.0","59147995","wem/bandit_party_1","A1DBPM1UHEP4MU","either","4","404","","","","","","","0","0","1","","0.8","0.5","0.5","0.5","0.5","0.8","0.2","0.6","0.2","","","","","","","","","","","","","","72","H","0","img/none_selected.jpg","true","0","full_practice",""
"","bandit","60","188475","0.0-32.0-9.0","59147995","wem/bandit_party_1","A1DBPM1UHEP4MU","either","4","736","","","","","","","0","0","1","0.2","","0.5","0.5","0.5","0.5","","","","","0.8","0.2","0.6","0.2","","","","","","","","","","74","J","1","","true","0","full_practice",""
"","bandit","61","190238","0.0-32.0-10.0","59147995","wem/bandit_party_1","A1DBPM1UHEP4MU","either","4","246","","","","","","","1","0","0","0.6","","0.5","0.5","0.5","0.5","","","","","0.8","0.2","0.6","0.2","","","","","","","","","","75","K","2","","true","0","full_practice",""
"","bandit","62","192000","0.0-32.0-11.0","59147995","wem/bandit_party_1","A1DBPM1UHEP4MU","either","4","245","","","","","","","0","0","1","","0.2","0.5","0.5","0.5","0.5","0.8","0.2","0.6","0.2","","","","","","","","","","","","","","76","L","3","","true","0","full_practice",""
"","bandit","63","193754","0.0-32.0-12.0","59147995","wem/bandit_party_1","A1DBPM1UHEP4MU","either","4","238","","","","","","","0","0","1","","0.6","0.5","0.5","0.5","0.5","0.8","0.2","0.6","0.2","","","","","","","","","","","","","","75","K","2","","true","0","full_practice",""
"","bandit","64","195437","0.0-32.0-13.0","59147995","wem/bandit_party_1","A1DBPM1UHEP4MU","either","4","166","","","","","","","0","0","1","","0.6","0.5","0.5","0.5","0.5","0.8","0.2","0.6","0.2","","","","","","","","","","","","","","75","K","2","","true","0","full_practice",""
"","bandit","65","197219","0.0-32.0-14.0","59147995","wem/bandit_party_1","A1DBPM1UHEP4MU","either","4","262","","","","","","","0","1","0","","0.6","0.5","0.5","0.5","0.5","0.8","0.2","0.6","0.2","","","","","","","","","","","","","","75","K","2","","true","0","full_practice",""
"","bandit","66","198968","0.0-32.0-15.0","59147995","wem/bandit_party_1","A1DBPM1UHEP4MU","either","4","229","","","","","","","0","0","1","","0.6","0.5","0.5","0.5","0.5","0.8","0.2","0.6","0.2","","","","","","","","","","","","","","75","K","2","","true","0","full_practice",""
"","bandit","67","200742","0.0-32.0-16.0","59147995","wem/bandit_party_1","A1DBPM1UHEP4MU","either","4","256","","","","","","","0","1","0","","0.8","0.5","0.5","0.5","0.5","0.8","0.2","0.6","0.2","","","","","","","","","","","","","","72","H","0","img/none_selected.jpg","true","0","full_practice",""
"","bandit","68","202343","0.0-32.0-17.0","59147995","wem/bandit_party_1","A1DBPM1UHEP4MU","either","4","83","","","","","","","0","1","0","","0.8","0.5","0.5","0.5","0.5","0.8","0.2","0.6","0.2","","","","","","","","","","","","","","72","H","0","img/none_selected.jpg","true","0","full_practice",""
"","bandit","69","204074","0.0-32.0-18.0","59147995","wem/bandit_party_1","A1DBPM1UHEP4MU","either","4","215","","","","","","","0","1","0","","0.8","0.5","0.5","0.5","0.5","0.8","0.2","0.6","0.2","","","","","","","","","","","","","","72","H","0","img/none_selected.jpg","true","0","full_practice",""
"","bandit","70","205791","0.0-32.0-19.0","59147995","wem/bandit_party_1","A1DBPM1UHEP4MU","either","4","198","","","","","","","1","0","0","0.8","","0.5","0.5","0.5","0.5","","","","","0.8","0.2","0.6","0.2","","","","","","","","","","72","H","0","img/none_selected.jpg","true","0","full_practice",""
"","text","71","208194","0.0-33.0","59147995","wem/bandit_party_1","A1DBPM1UHEP4MU","either","4","2375","","","32","","","","","","","","","","","","","","","","","","","","","","","","","","","","","","","","","","","","",""
"","text-replacement","72","215484","0.0-34.0","59147995","wem/bandit_party_1","A1DBPM1UHEP4MU","either","4","6281","","","32","","","","","","","","","","","","","","","","","","","","","","","","","","","","","","","","","","","","",""
"","text-replacement","73","223644","0.0-35.0","59147995","wem/bandit_party_1","A1DBPM1UHEP4MU","either","4","8155","","","32","","","","","","","","","","","","","","","","","","","","","","","","","","","","","","","","","","","","",""
"","text-replacement","74","227486","0.0-36.0","59147995","wem/bandit_party_1","A1DBPM1UHEP4MU","either","4","3836","","","32","","","","","","","","","","","","","","","","","","","","","","","","","","","","","","","","","","","","",""
"","text-replacement","75","229942","0.0-37.0","59147995","wem/bandit_party_1","A1DBPM1UHEP4MU","either","4","2448","","","32","","","","","","","","","","","","","","","","","","","","","","","","","","","","","","","","","","","","",""
"","text-replacement","76","231386","0.0-38.0","59147995","wem/bandit_party_1","A1DBPM1UHEP4MU","either","4","1438","","","32","","","","","","","","","","","","","","","","","","","","","","","","","","","","","","","","","","","","",""
"","survey-multi-choice-replacement","77","236585","0.0-39.0-0.0","59147995","wem/bandit_party_1","A1DBPM1UHEP4MU","either","4","5174","","","","","","","","","","","","","","","","","","","","","","","","Money will be added to the pool for <span style='color:blue;'>DEMOCRATS</span>","","","","","","","attn_check","","","","","","","","","0"
"","survey-multi-choice-replacement","78","239908","0.0-40.0-0.0","59147995","wem/bandit_party_1","A1DBPM1UHEP4MU","either","4","2292","","","","","","","","","","","","","","","","","","","","","","","","Equal amounts of money will be added to the pool for <span style='color:blue;'>DEMOCRATS</span> and subtracted from the pool for <span style='color:red;'>REPUBLICANS</span>","","","","","","","attn_check","","","","","","","","","2"
"","survey-multi-choice-replacement","79","242267","0.0-41.0-0.0","59147995","wem/bandit_party_1","A1DBPM1UHEP4MU","either","4","1333","","","","","","","","","","","","","","","","","","","","","","","","No money will be added to either pool","","","","","","","attn_check","","","","","","","","","3"
"","bandit","80","245547","0.0-42.0-0.0","59147995","wem/bandit_party_1","A1DBPM1UHEP4MU","either","4","757","","","","","","","0","0","1","0.3525715257","","0.6","0.2","0.8","0.4","","","","","0.3525715257","0.2771551185","0.3242650943","0.3894728165","","","","","","","","","","72","H","0","img/none_selected.jpg","","1","main_expt",""
"","bandit","81","247451","0.0-43.0-0.0","59147995","wem/bandit_party_1","A1DBPM1UHEP4MU","either","4","383","","","","","","","0","1","0","","0.3030893157","0.6","0.2","0.8","0.4","0.390153736","0.3030893157","0.3296228245","0.363660736","","","","","","","","","","","","","","74","J","1","","","2","main_expt",""
"","bandit","82","249194","0.0-44.0-0.0","59147995","wem/bandit_party_1","A1DBPM1UHEP4MU","either","4","225","","","","","","","0","1","0","","0.3102780753","0.6","0.2","0.8","0.4","0.3725447061","0.3211059343","0.3102780753","0.3842171554","","","","","","","","","","","","","","75","K","2","","","3","main_expt",""
"","bandit","83","250844","0.0-45.0-0.0","59147995","wem/bandit_party_1","A1DBPM1UHEP4MU","either","4","130","","","","","","","0","0","1","","0.3831963053","0.6","0.2","0.8","0.4","0.3431524481","0.2804386453","0.2749892112","0.3831963053","","","","","","","","","","","","","","76","L","3","","","4","main_expt",""
"","bandit","84","253020","0.0-46.0-0.0","59147995","wem/bandit_party_1","A1DBPM1UHEP4MU","either","4","657","","","","","","","0","0","1","","0.2609559086","0.6","0.2","0.8","0.4","0.3448007793","0.2609559086","0.3037824898","0.4056596471","","","","","","","","","","","","","","74","J","1","","","5","main_expt",""
"","bandit","85","255930","0.0-47.0-0.0","59147995","wem/bandit_party_1","A1DBPM1UHEP4MU","either","4","1389","","","","","","","0","1","0","","0.3217417103","0.6","0.2","0.8","0.4","0.3980888019","0.2259287768","0.3217417103","0.4409946319","","","","","","","","","","","","","","75","K","2","","","6","main_expt",""
"","bandit","86","257592","0.0-48.0-0.0","59147995","wem/bandit_party_1","A1DBPM1UHEP4MU","either","4","143","","","","","","","0","0","1","0.3018715163","","0.6","0.2","0.8","0.4","","","","","0.3693121862","0.2433618728","0.3018715163","0.3821747998","","","","","","","","","","75","K","2","","","7","main_expt",""
"","bandit","87","259284","0.0-49.0-0.0","59147995","wem/bandit_party_1","A1DBPM1UHEP4MU","either","4","175","","","","","","","1","0","0","0.3643645816","","0.6","0.2","0.8","0.4","","","","","0.2933697555","0.2025356769","0.3643645816","0.3841844813","","","","","","","","","","75","K","2","","","8","main_expt",""
"","bandit","88","260893","0.0-50.0-0.0","59147995","wem/bandit_party_1","A1DBPM1UHEP4MU","either","4","90","","","","","","","0","0","1","0.3418610374","","0.6","0.2","0.8","0.4","","","","","0.3036212831","0.1441028094","0.3418610374","0.3412237964","","","","","","","","","","75","K","2","","","9","main_expt",""
"","bandit","89","262492","0.0-51.0-0.0","59147995","wem/bandit_party_1","A1DBPM1UHEP4MU","either","4","72","","","","","","","0","0","1","0.3190157878","","0.6","0.2","0.8","0.4","","","","","0.308020301","0.1736005971","0.3190157878","0.3256420777","","","","","","","","","","75","K","2","","","10","main_expt",""
"","bandit","90","264432","0.0-52.0-0.0","59147995","wem/bandit_party_1","A1DBPM1UHEP4MU","either","4","420","","","","","","","0","1","0","","0.3514007431","0.6","0.2","0.8","0.4","0.3065973113","0.1836365694","0.2998731478","0.3514007431","","","","","","","","","","","","","","76","L","3","","","11","main_expt",""
"","bandit","91","266005","0.0-53.0-0.0","59147995","wem/bandit_party_1","A1DBPM1UHEP4MU","either","4","53","","","","","","","0","0","1","","0.3722032088","0.6","0.2","0.8","0.4","0.3271859636","0.2143869662","0.2942822571","0.3722032088","","","","","","","","","","","","","","76","L","3","","","12","main_expt",""
"","bandit","92","267596","0.0-54.0-0.0","59147995","wem/bandit_party_1","A1DBPM1UHEP4MU","either","4","73","","","","","","","0","0","1","0.1637139448","","0.6","0.2","0.8","0.4","","","","","0.2761076709","0.1637139448","0.3009212619","0.3681707299","","","","","","","","","","74","J","1","","","13","main_expt",""
"","bandit","93","269121","0.0-55.0-0.0","59147995","wem/bandit_party_1","A1DBPM1UHEP4MU","either","4","8","","","","","","","0","0","1","","0.1488535162","0.6","0.2","0.8","0.4","0.2311164494","0.1488535162","0.3227424667","0.3528222564","","","","","","","","","","","","","","74","J","1","","","14","main_expt",""
"","bandit","94","271139","0.0-56.0-0.0","59147995","wem/bandit_party_1","A1DBPM1UHEP4MU","either","4","498","","","","","","","0","0","1","","0.2905977425","0.6","0.2","0.8","0.4","0.2905977425","0.1332411271","0.3547546862","0.3738838661","","","","","","","","","","","","","","72","H","0","img/none_selected.jpg","","15","main_expt",""
"","bandit","95","272693","0.0-57.0-0.0","59147995","wem/bandit_party_1","A1DBPM1UHEP4MU","either","4","35","","","","","","","0","1","0","","0.2924554969","0.6","0.2","0.8","0.4","0.2924554969","0.09882415698","0.3241157583","0.3385239332","","","","","","","","","","","","","","72","H","0","img/none_selected.jpg","","16","main_expt",""
"","bandit","96","274237","0.0-58.0-0.0","59147995","wem/bandit_party_1","A1DBPM1UHEP4MU","either","4","24","","","","","","","0","0","1","0.3114836302","","0.6","0.2","0.8","0.4","","","","","0.3114836302","0.1069157009","0.3363410386","0.3111355138","","","","","","","","","","72","H","0","img/none_selected.jpg","","17","main_expt",""
"","bandit","97","275847","0.0-59.0-0.0","59147995","wem/bandit_party_1","A1DBPM1UHEP4MU","either","4","90","","","","","","","0","0","1","","0.3880947854","0.6","0.2","0.8","0.4","0.3215333475","0.134958137","0.3880947854","0.3487767647","","","","","","","","","","","","","","75","K","2","","","18","main_expt",""
"","bandit","98","277490","0.0-60.0-0.0","59147995","wem/bandit_party_1","A1DBPM1UHEP4MU","either","4","124","","","","","","","1","0","0","0.3010303499","","0.6","0.2","0.8","0.4","","","","","0.2733398822","0.1230418706","0.4116912081","0.3010303499","","","","","","","","","","76","L","3","","","19","main_expt",""
"","bandit","99","279120","0.0-61.0-0.0","59147995","wem/bandit_party_1","A1DBPM1UHEP4MU","either","4","111","","","","","","","0","1","0","","0.2907203997","0.6","0.2","0.8","0.4","0.2351410235","0.09866604889","0.3973894305","0.2907203997","","","","","","","","","","","","","","76","L","3","","","20","main_expt",""
"","bandit","100","280904","0.0-62.0-0.0","59147995","wem/bandit_party_1","A1DBPM1UHEP4MU","either","4","263","","","","","","","0","1","0","","0.3088108907","0.6","0.2","0.8","0.4","0.2257810982","0.1021222834","0.369037109","0.3088108907","","","","","","","","","","","","","","76","L","3","","","21","main_expt",""
"","bandit","101","282515","0.0-63.0-0.0","59147995","wem/bandit_party_1","A1DBPM1UHEP4MU","either","4","91","","","","","","","0","0","1","0.349202701","","0.6","0.2","0.8","0.4","","","","","0.2221856846","0.1234138809","0.4179468344","0.349202701","","","","","","","","","","76","L","3","","","22","main_expt",""
"","bandit","102","284061","0.0-64.0-0.0","59147995","wem/bandit_party_1","A1DBPM1UHEP4MU","either","4","24","","","","","","","1","0","0","0.4276062926","","0.6","0.2","0.8","0.4","","","","","0.2127124712","0.1030640584","0.4276062926","0.3785068464","","","","","","","","","","75","K","2","","","23","main_expt",""
"","bandit","103","285735","0.0-65.0-0.0","59147995","wem/bandit_party_1","A1DBPM1UHEP4MU","either","4","157","","","","","","","0","0","1","","0.4078122208","0.6","0.2","0.8","0.4","0.1882566648","0.1261035851","0.4078122208","0.4012919653","","","","","","","","","","","","","","75","K","2","","","24","main_expt",""
"","bandit","104","287469","0.0-66.0-0.0","59147995","wem/bandit_party_1","A1DBPM1UHEP4MU","either","4","211","","","","","","","0","0","1","","0.1796705612","0.6","0.2","0.8","0.4","0.1273223766","0.1796705612","0.3950411191","0.400899794","","","","","","","","","","","","","","74","J","1","","","25","main_expt",""
"","bandit","105","289191","0.0-67.0-0.0","59147995","wem/bandit_party_1","A1DBPM1UHEP4MU","either","4","203","","","","","","","0","0","1","0.15747458","","0.6","0.2","0.8","0.4","","","","","0.15747458","0.2414651519","0.4322303329","0.4126274585","","","","","","","","","","72","H","0","img/none_selected.jpg","","26","main_expt",""
"","bandit","106","290931","0.0-68.0-0.0","59147995","wem/bandit_party_1","A1DBPM1UHEP4MU","either","4","222","","","","","","","0","1","0","","0.3992263875","0.6","0.2","0.8","0.4","0.1442684908","0.2005374927","0.4353643722","0.3992263875","","","","","","","","","","","","","","76","L","3","","","27","main_expt",""
"","bandit","107","292459","0.0-69.0-0.0","59147995","wem/bandit_party_1","A1DBPM1UHEP4MU","either","4","9","","","","","","","0","1","0","","0.3846584236","0.6","0.2","0.8","0.4","0.2255404594","0.3197257227","0.4464017809","0.3846584236","","","","","","","","","","","","","","76","L","3","","","28","main_expt",""
"","bandit","108","294081","0.0-70.0-0.0","59147995","wem/bandit_party_1","A1DBPM1UHEP4MU","either","4","97","","","","","","","0","0","1","","0.3561298134","0.6","0.2","0.8","0.4","0.2730951691","0.3141869899","0.4417109462","0.3561298134","","","","","","","","","","","","","","76","L","3","","","29","main_expt",""
"","bandit","109","295642","0.0-71.0-0.0","59147995","wem/bandit_party_1","A1DBPM1UHEP4MU","either","4","41","","","","","","","0","1","0","","0.3101363315","0.6","0.2","0.8","0.4","0.2890412698","0.3445991012","0.4065908859","0.3101363315","","","","","","","","","","","","","","76","L","3","","","30","main_expt",""
"","bandit","110","297224","0.0-72.0-0.0","59147995","wem/bandit_party_1","A1DBPM1UHEP4MU","either","4","59","","","","","","","1","0","0","0.3322219809","","0.6","0.2","0.8","0.4","","","","","0.3309226042","0.3456655029","0.3954582793","0.3322219809","","","","","","","","","","76","L","3","","","31","main_expt",""
"","bandit","111","298889","0.0-73.0-0.0","59147995","wem/bandit_party_1","A1DBPM1UHEP4MU","either","4","148","","","","","","","0","1","0","","0.3516269472","0.6","0.2","0.8","0.4","0.3519301717","0.3826172224","0.3716723047","0.3516269472","","","","","","","","","","","","","","76","L","3","","","32","main_expt",""
"","bandit","112","300473","0.0-74.0-0.0","59147995","wem/bandit_party_1","A1DBPM1UHEP4MU","either","4","63","","","","","","","0","0","1","","0.3852085553","0.6","0.2","0.8","0.4","0.3414953842","0.3804083149","0.3799724366","0.3852085553","","","","","","","","","","","","","","76","L","3","","","33","main_expt",""
"","bandit","113","302090","0.0-75.0-0.0","59147995","wem/bandit_party_1","A1DBPM1UHEP4MU","either","4","94","","","","","","","0","0","1","0.4196644934","","0.6","0.2","0.8","0.4","","","","","0.2938412915","0.3808178469","0.409480615","0.4196644934","","","","","","","","","","76","L","3","","","34","main_expt",""
"","bandit","114","303699","0.0-76.0-0.0","59147995","wem/bandit_party_1","A1DBPM1UHEP4MU","either","4","63","","","","","","","0","0","1","0.420891004","","0.6","0.2","0.8","0.4","","","","","0.2256616696","0.376129724","0.3869649509","0.420891004","","","","","","","","","","76","L","3","","","35","main_expt",""
"","bandit","115","305407","0.0-77.0-0.0","59147995","wem/bandit_party_1","A1DBPM1UHEP4MU","either","4","187","","","","","","","0","1","0","","0.4027809904","0.6","0.2","0.8","0.4","0.2525957923","0.4027809904","0.3045389962","0.3808881167","","","","","","","","","","","","","","74","J","1","","","36","main_expt",""
"","bandit","116","307063","0.0-78.0-0.0","59147995","wem/bandit_party_1","A1DBPM1UHEP4MU","either","4","137","","","","","","","0","0","1","0.3715556026","","0.6","0.2","0.8","0.4","","","","","0.2333373749","0.3715556026","0.2954217214","0.3634360393","","","","","","","","","","74","J","1","","","37","main_expt",""
"","bandit","117","308594","0.0-79.0-0.0","59147995","wem/bandit_party_1","A1DBPM1UHEP4MU","either","4","9","","","","","","","0","0","1","0.354842885","","0.6","0.2","0.8","0.4","","","","","0.2126884676","0.354842885","0.2749906923","0.3432691328","","","","","","","","","","74","J","1","","","38","main_expt",""
"","bandit","118","310150","0.0-80.0-0.0","59147995","wem/bandit_party_1","A1DBPM1UHEP4MU","either","4","34","","","","","","","0","1","0","","0.212498526","0.6","0.2","0.8","0.4","0.212498526","0.3066825603","0.2911873598","0.3113322025","","","","","","","","","","","","","","72","H","0","img/none_selected.jpg","","39","main_expt",""
"","bandit","119","311697","0.0-81.0-0.0","59147995","wem/bandit_party_1","A1DBPM1UHEP4MU","either","4","27","","","","","","","1","0","0","0.2031275136","","0.6","0.2","0.8","0.4","","","","","0.2031275136","0.3208648015","0.3066149412","0.3298138996","","","","","","","","","","72","H","0","img/none_selected.jpg","","40","main_expt",""
"","bandit","120","313451","0.0-82.0-0.0","59147995","wem/bandit_party_1","A1DBPM1UHEP4MU","either","4","232","","","","","","","0","0","1","0.2409224204","","0.6","0.2","0.8","0.4","","","","","0.2409224204","0.2774570704","0.2612722093","0.3590557929","","","","","","","","","","72","H","0","img/none_selected.jpg","","41","main_expt",""
"","bandit","121","315051","0.0-83.0-0.0","59147995","wem/bandit_party_1","A1DBPM1UHEP4MU","either","4","77","","","","","","","0","0","1","","0.2166695961","0.6","0.2","0.8","0.4","0.2166695961","0.3092882543","0.2579482203","0.3455434044","","","","","","","","","","","","","","72","H","0","img/none_selected.jpg","","42","main_expt",""
"","bandit","122","316639","0.0-84.0-0.0","59147995","wem/bandit_party_1","A1DBPM1UHEP4MU","either","4","66","","","","","","","0","0","1","0.2314197793","","0.6","0.2","0.8","0.4","","","","","0.2314197793","0.3161251671","0.2232302517","0.4020043176","","","","","","","","","","72","H","0","img/none_selected.jpg","","43","main_expt",""
"","bandit","123","318387","0.0-85.0-0.0","59147995","wem/bandit_party_1","A1DBPM1UHEP4MU","either","4","225","","","","","","","0","0","1","0.2435669349","","0.6","0.2","0.8","0.4","","","","","0.1889371852","0.3032549762","0.2435669349","0.4088695108","","","","","","","","","","75","K","2","","","44","main_expt",""
"","bandit","124","319919","0.0-86.0-0.0","59147995","wem/bandit_party_1","A1DBPM1UHEP4MU","either","4","12","","","","","","","0","0","1","0.1885724617","","0.6","0.2","0.8","0.4","","","","","0.2152104473","0.3012359134","0.1885724617","0.3914045207","","","","","","","","","","75","K","2","","","45","main_expt",""
"","bandit","125","321467","0.0-87.0-0.0","59147995","wem/bandit_party_1","A1DBPM1UHEP4MU","either","4","24","","","","","","","0","1","0","","0.2994346937","0.6","0.2","0.8","0.4","0.2260726972","0.2994346937","0.104230756","0.3682142312","","","","","","","","","","","","","","74","J","1","","","46","main_expt",""
"","bandit","126","323050","0.0-88.0-0.0","59147995","wem/bandit_party_1","A1DBPM1UHEP4MU","either","4","63","","","","","","","0","0","1","","0.3169549043","0.6","0.2","0.8","0.4","0.2330399618","0.3169549043","0.09013225529","0.3462276735","","","","","","","","","","","","","","74","J","1","","","47","main_expt",""
"","bandit","127","324686","0.0-89.0-0.0","59147995","wem/bandit_party_1","A1DBPM1UHEP4MU","either","4","112","","","","","","","0","0","1","","0.3137179834","0.6","0.2","0.8","0.4","0.2769685944","0.3137179834","0.1066227192","0.3501405617","","","","","","","","","","","","","","74","J","1","","","48","main_expt",""
"","bandit","128","326247","0.0-90.0-0.0","59147995","wem/bandit_party_1","A1DBPM1UHEP4MU","either","4","41","","","","","","","0","0","1","","0.3607669766","0.6","0.2","0.8","0.4","0.2954986192","0.3026837323","0.1273062614","0.3607669766","","","","","","","","","","","","","","76","L","3","","","49","main_expt",""
"","bandit","129","327889","0.0-91.0-0.0","59147995","wem/bandit_party_1","A1DBPM1UHEP4MU","either","4","121","","","","","","","0","0","1","","0.3776327681","0.6","0.2","0.8","0.4","0.2730110453","0.2690248343","0.08158159543","0.3776327681","","","","","","","","","","","","","","76","L","3","","","50","main_expt",""
"","bandit","130","329412","0.0-92.0-0.0","59147995","wem/bandit_party_1","A1DBPM1UHEP4MU","either","4","2","","","","","","","0","0","1","0.08035098666","","0.6","0.2","0.8","0.4","","","","","0.2672659715","0.2407215714","0.08035098666","0.3922012959","","","","","","","","","","75","K","2","","","51","main_expt",""
"","bandit","131","331097","0.0-93.0-0.0","59147995","wem/bandit_party_1","A1DBPM1UHEP4MU","either","4","163","","","","","","","0","0","1","0.1007468434","","0.6","0.2","0.8","0.4","","","","","0.2552972095","0.2758158767","0.1007468434","0.3532085343","","","","","","","","","","75","K","2","","","52","main_expt",""
"","bandit","132","332843","0.0-94.0-0.0","59147995","wem/bandit_party_1","A1DBPM1UHEP4MU","either","4","227","","","","","","","0","0","1","","0.2661511239","0.6","0.2","0.8","0.4","0.1954439593","0.2661511239","0.1479770317","0.3597378762","","","","","","","","","","","","","","74","J","1","","","53","main_expt",""
"","bandit","133","334395","0.0-95.0-0.0","59147995","wem/bandit_party_1","A1DBPM1UHEP4MU","either","4","30","","","","","","","0","0","1","0.1250298759","","0.6","0.2","0.8","0.4","","","","","0.1250298759","0.250303373","0.1450389045","0.3553644404","","","","","","","","","","72","H","0","img/none_selected.jpg","","54","main_expt",""
"","bandit","134","335948","0.0-96.0-0.0","59147995","wem/bandit_party_1","A1DBPM1UHEP4MU","either","4","33","","","","","","","0","0","1","","0.1224949652","0.6","0.2","0.8","0.4","0.1224949652","0.1850572083","0.1678096349","0.3427354451","","","","","","","","","","","","","","72","H","0","img/none_selected.jpg","","55","main_expt",""
"","bandit","135","337532","0.0-97.0-0.0","59147995","wem/bandit_party_1","A1DBPM1UHEP4MU","either","4","63","","","","","","","0","0","1","0.1312048923","","0.6","0.2","0.8","0.4","","","","","0.1312048923","0.2410157884","0.1748395718","0.3158877586","","","","","","","","","","72","H","0","img/none_selected.jpg","","56","main_expt",""
"","bandit","136","339112","0.0-98.0-0.0","59147995","wem/bandit_party_1","A1DBPM1UHEP4MU","either","4","60","","","","","","","0","0","1","","0.2657224069","0.6","0.2","0.8","0.4","0.14452077","0.2657224069","0.146986137","0.3224611445","","","","","","","","","","","","","","74","J","1","","","57","main_expt",""
"","bandit","137","340660","0.0-99.0-0.0","59147995","wem/bandit_party_1","A1DBPM1UHEP4MU","either","4","25","","","","","","","0","1","0","","0.2361308133","0.6","0.2","0.8","0.4","0.1198415177","0.2361308133","0.1316135006","0.3378672788","","","","","","","","","","","","","","74","J","1","","","58","main_expt",""
"","bandit","138","342209","0.0-100.0-0.0","59147995","wem/bandit_party_1","A1DBPM1UHEP4MU","either","4","27","","","","","","","0","0","1","","0.2078360154","0.6","0.2","0.8","0.4","0.1674914914","0.2078360154","0.1776120447","0.3438075972","","","","","","","","","","","","","","74","J","1","","","59","main_expt",""
"","bandit","139","343889","0.0-101.0-0.0","59147995","wem/bandit_party_1","A1DBPM1UHEP4MU","either","4","158","","","","","","","0","0","1","0.2034864675","","0.6","0.2","0.8","0.4","","","","","0.147959707","0.2256957235","0.2034864675","0.2950987239","","","","","","","","","","75","K","2","","","60","main_expt",""
"","bandit","140","345798","0.0-102.0-0.0","59147995","wem/bandit_party_1","A1DBPM1UHEP4MU","either","4","385","","","","","","","1","0","0","0.1325668513","","0.6","0.2","0.8","0.4","","","","","0.1217284172","0.2713547376","0.1325668513","0.2939622289","","","","","","","","","","75","K","2","","","61","main_expt",""
"","bandit","141","347379","0.0-103.0-0.0","59147995","wem/bandit_party_1","A1DBPM1UHEP4MU","either","4","61","","","","","","","0","0","1","0.125492747","","0.6","0.2","0.8","0.4","","","","","0.1392905859","0.2800078023","0.125492747","0.2907096119","","","","","","","","","","75","K","2","","","62","main_expt",""
"","bandit","142","348915","0.0-104.0-0.0","59147995","wem/bandit_party_1","A1DBPM1UHEP4MU","either","4","12","","","","","","","0","0","1","","0.2696382907","0.6","0.2","0.8","0.4","0.1953314019","0.362183352","0.1081989139","0.2696382907","","","","","","","","","","","","","","76","L","3","","","63","main_expt",""
"","bandit","143","350509","0.0-105.0-0.0","59147995","wem/bandit_party_1","A1DBPM1UHEP4MU","either","4","71","","","","","","","0","0","1","0.2496415039","","0.6","0.2","0.8","0.4","","","","","0.2618523415","0.3354395381","0.09104284411","0.2496415039","","","","","","","","","","76","L","3","","","64","main_expt",""
"","bandit","144","352165","0.0-106.0-0.0","59147995","wem/bandit_party_1","A1DBPM1UHEP4MU","either","4","134","","","","","","","0","0","1","0.2364994079","","0.6","0.2","0.8","0.4","","","","","0.2686672798","0.2893845237","0.1264903162","0.2364994079","","","","","","","","","","76","L","3","","","65","main_expt",""
"","bandit","145","353840","0.0-107.0-0.0","59147995","wem/bandit_party_1","A1DBPM1UHEP4MU","either","4","152","","","","","","","0","0","1","","0.2355717356","0.6","0.2","0.8","0.4","0.2451656397","0.2355717356","0.1665937301","0.2541683514","","","","","","","","","","","","","","74","J","1","","","66","main_expt",""
"","bandit","146","355418","0.0-108.0-0.0","59147995","wem/bandit_party_1","A1DBPM1UHEP4MU","either","4","56","","","","","","","1","0","0","0.2848755716","","0.6","0.2","0.8","0.4","","","","","0.2445320338","0.2848755716","0.1740025863","0.2985471382","","","","","","","","","","74","J","1","","","67","main_expt",""
"","bandit","147","357145","0.0-109.0-0.0","59147995","wem/bandit_party_1","A1DBPM1UHEP4MU","either","4","207","","","","","","","0","1","0","","0.3341158043","0.6","0.2","0.8","0.4","0.2261158315","0.3341158043","0.2300011382","0.3391290389","","","","","","","","","","","","","","74","J","1","","","68","main_expt",""
"","bandit","148","358836","0.0-110.0-0.0","59147995","wem/bandit_party_1","A1DBPM1UHEP4MU","either","4","170","","","","","","","0","0","1","","0.3253412689","0.6","0.2","0.8","0.4","0.1627286519","0.3253412689","0.1768594062","0.3114764975","","","","","","","","","","","","","","74","J","1","","","69","main_expt",""
"","bandit","149","360458","0.0-111.0-0.0","59147995","wem/bandit_party_1","A1DBPM1UHEP4MU","either","4","99","","","","","","","0","0","1","","0.3280915152","0.6","0.2","0.8","0.4","0.1301009224","0.3280915152","0.1906145184","0.3056328376","","","","","","","","","","","","","","74","J","1","","","70","main_expt",""
"","bandit","150","362122","0.0-112.0-0.0","59147995","wem/bandit_party_1","A1DBPM1UHEP4MU","either","4","143","","","","","","","0","0","1","","0.3772643828","0.6","0.2","0.8","0.4","0.1356707761","0.3772643828","0.1451664327","0.3445325487","","","","","","","","","","","","","","74","J","1","","","71","main_expt",""
"","bandit","151","363647","0.0-113.0-0.0","59147995","wem/bandit_party_1","A1DBPM1UHEP4MU","either","4","2","","","","","","","0","0","1","0.1091447996","","0.6","0.2","0.8","0.4","","","","","0.1045412551","0.4074174212","0.1091447996","0.364612409","","","","","","","","","","75","K","2","","","72","main_expt",""
"","bandit","152","365311","0.0-114.0-0.0","59147995","wem/bandit_party_1","A1DBPM1UHEP4MU","either","4","144","","","","","","","1","0","0","0.1248737042","","0.6","0.2","0.8","0.4","","","","","0.0867882282","0.3736299767","0.1248737042","0.4454774056","","","","","","","","","","75","K","2","","","73","main_expt",""
"","bandit","153","366946","0.0-115.0-0.0","59147995","wem/bandit_party_1","A1DBPM1UHEP4MU","either","4","110","","","","","","","0","0","1","0.1073746888","","0.6","0.2","0.8","0.4","","","","","0.1018359722","0.383211712","0.1073746888","0.4492830973","","","","","","","","","","75","K","2","","","74","main_expt",""
"","bandit","154","368601","0.0-116.0-0.0","59147995","wem/bandit_party_1","A1DBPM1UHEP4MU","either","4","135","","","","","","","0","0","1","","0.1051395745","0.6","0.2","0.8","0.4","0.09443707336","0.3681962321","0.1051395745","0.449321966","","","","","","","","","","","","","","75","K","2","","","75","main_expt",""
"","bandit","155","370261","0.0-117.0-0.0","59147995","wem/bandit_party_1","A1DBPM1UHEP4MU","either","4","139","","","","","","","1","0","0","0.09171451076","","0.6","0.2","0.8","0.4","","","","","0.08768691443","0.3574328021","0.09171451076","0.4299726132","","","","","","","","","","75","K","2","","","76","main_expt",""
"","bandit","156","371803","0.0-118.0-0.0","59147995","wem/bandit_party_1","A1DBPM1UHEP4MU","either","4","19","","","","","","","1","0","0","0.1256070833","","0.6","0.2","0.8","0.4","","","","","0.07744448812","0.4041720962","0.1256070833","0.4349340462","","","","","","","","","","75","K","2","","","77","main_expt",""
"","bandit","157","373378","0.0-119.0-0.0","59147995","wem/bandit_party_1","A1DBPM1UHEP4MU","either","4","52","","","","","","","0","0","1","0.1398604905","","0.6","0.2","0.8","0.4","","","","","0.05712631425","0.4000946746","0.1398604905","0.4112950215","","","","","","","","","","75","K","2","","","78","main_expt",""
"","bandit","158","374922","0.0-120.0-0.0","59147995","wem/bandit_party_1","A1DBPM1UHEP4MU","either","4","21","","","","","","","0","0","1","0.1303191282","","0.6","0.2","0.8","0.4","","","","","0.03981704588","0.425248604","0.1303191282","0.4123046053","","","","","","","","","","75","K","2","","","79","main_expt",""
"","bandit","159","376482","0.0-121.0-0.0","59147995","wem/bandit_party_1","A1DBPM1UHEP4MU","either","4","37","","","","","","","0","0","1","0.1491340647","","0.6","0.2","0.8","0.4","","","","","0.02961196177","0.4263383456","0.1491340647","0.4345430878","","","","","","","","","","75","K","2","","","80","main_expt",""
"","bandit","160","378071","0.0-122.0-0.0","59147995","wem/bandit_party_1","A1DBPM1UHEP4MU","either","4","65","","","","","","","1","0","0","0.4255274095","","0.6","0.2","0.8","0.4","","","","","0.0408206899","0.4377411966","0.1484119081","0.4255274095","","","","","","","","","","76","L","3","","","81","main_expt",""
"","bandit","161","379642","0.0-123.0-0.0","59147995","wem/bandit_party_1","A1DBPM1UHEP4MU","either","4","46","","","","","","","0","0","1","0.4266934287","","0.6","0.2","0.8","0.4","","","","","0.03491361241","0.4263216968","0.135460029","0.4266934287","","","","","","","","","","76","L","3","","","82","main_expt",""
"","bandit","162","381315","0.0-124.0-0.0","59147995","wem/bandit_party_1","A1DBPM1UHEP4MU","either","4","150","","","","","","","1","0","0","0.4321646522","","0.6","0.2","0.8","0.4","","","","","0.01881925386","0.4536492548","0.09497461961","0.4321646522","","","","","","","","","","76","L","3","","","83","main_expt",""
"","bandit","163","382976","0.0-125.0-0.0","59147995","wem/bandit_party_1","A1DBPM1UHEP4MU","either","4","138","","","","","","","1","0","0","0.43129245","","0.6","0.2","0.8","0.4","","","","","0.03441768066","0.4344769981","0.0956585677","0.43129245","","","","","","","","","","76","L","3","","","84","main_expt",""
"","bandit","164","384502","0.0-126.0-0.0","59147995","wem/bandit_party_1","A1DBPM1UHEP4MU","either","4","2","","","","","","","0","1","0","","0.4307495417","0.6","0.2","0.8","0.4","0.04015732792","0.4167097255","0.08427930603","0.4307495417","","","","","","","","","","","","","","76","L","3","","","85","main_expt",""
"","bandit","165","386058","0.0-127.0-0.0","59147995","wem/bandit_party_1","A1DBPM1UHEP4MU","either","4","35","","","","","","","0","0","1","","0.4327415212","0.6","0.2","0.8","0.4","0.0462821445","0.4215971904","0.09540141202","0.4327415212","","","","","","","","","","","","","","76","L","3","","","86","main_expt",""
"","bandit","166","387651","0.0-128.0-0.0","59147995","wem/bandit_party_1","A1DBPM1UHEP4MU","either","4","71","","","","","","","0","0","1","0.4507305815","","0.6","0.2","0.8","0.4","","","","","0.07236867375","0.3962725568","0.06504543429","0.4507305815","","","","","","","","","","76","L","3","","","87","main_expt",""
"","bandit","167","389178","0.0-129.0-0.0","59147995","wem/bandit_party_1","A1DBPM1UHEP4MU","either","4","2","","","","","","","0","0","1","0.4571393315","","0.6","0.2","0.8","0.4","","","","","0.1132918069","0.4038430626","0.05894337134","0.4571393315","","","","","","","","","","76","L","3","","","88","main_expt",""
"","bandit","168","390800","0.0-130.0-0.0","59147995","wem/bandit_party_1","A1DBPM1UHEP4MU","either","4","95","","","","","","","0","1","0","","0.4247877058","0.6","0.2","0.8","0.4","0.1466354559","0.4247877058","0.06803635399","0.4639779763","","","","","","","","","","","","","","74","J","1","","","89","main_expt",""
"","bandit","169","392342","0.0-131.0-0.0","59147995","wem/bandit_party_1","A1DBPM1UHEP4MU","either","4","19","","","","","","","1","0","0","0.4196700557","","0.6","0.2","0.8","0.4","","","","","0.1746819083","0.4196700557","0.09657856289","0.4620017245","","","","","","","","","","74","J","1","","","90","main_expt",""
"","bandit","170","393917","0.0-132.0-0.0","59147995","wem/bandit_party_1","A1DBPM1UHEP4MU","either","4","48","","","","","","","0","0","1","","0.401758082","0.6","0.2","0.8","0.4","0.1864657318","0.401758082","0.08522031428","0.4492963398","","","","","","","","","","","","","","74","J","1","","","91","main_expt",""
"","bandit","171","395471","0.0-133.0-0.0","59147995","wem/bandit_party_1","A1DBPM1UHEP4MU","either","4","31","","","","","","","0","1","0","","0.3422099147","0.6","0.2","0.8","0.4","0.2124622091","0.3422099147","0.07078380504","0.462009279","","","","","","","","","","","","","","74","J","1","","","92","main_expt",""
"","bandit","172","397115","0.0-134.0-0.0","59147995","wem/bandit_party_1","A1DBPM1UHEP4MU","either","4","118","","","","","","","0","0","1","","0.3279059742","0.6","0.2","0.8","0.4","0.245786276","0.3279059742","0.0564278809","0.4363090379","","","","","","","","","","","","","","74","J","1","","","93","main_expt",""
"","bandit","173","398683","0.0-135.0-0.0","59147995","wem/bandit_party_1","A1DBPM1UHEP4MU","either","4","36","","","","","","","0","0","1","","0.3155724737","0.6","0.2","0.8","0.4","0.2316759231","0.3155724737","0.06067733924","0.4457519602","","","","","","","","","","","","","","74","J","1","","","94","main_expt",""
"","bandit","174","400206","0.0-136.0-0.0","59147995","wem/bandit_party_1","A1DBPM1UHEP4MU","either","4","0","","","","","","","1","0","0","0.3519625041","","0.6","0.2","0.8","0.4","","","","","0.2231756969","0.3519625041","0.08632751489","0.4231248902","","","","","","","","","","74","J","1","","","95","main_expt",""
"","bandit","175","401735","0.0-137.0-0.0","59147995","wem/bandit_party_1","A1DBPM1UHEP4MU","either","4","2","","","","","","","0","0","1","","0.3661455107","0.6","0.2","0.8","0.4","0.1957128212","0.3661455107","0.08481729553","0.4210676831","","","","","","","","","","","","","","74","J","1","","","96","main_expt",""
"","bandit","176","403435","0.0-138.0-0.0","59147995","wem/bandit_party_1","A1DBPM1UHEP4MU","either","4","176","","","","","","","0","0","1","","0.3558031673","0.6","0.2","0.8","0.4","0.1638116915","0.3558031673","0.08386440452","0.4022895305","","","","","","","","","","","","","","74","J","1","","","97","main_expt",""
"","bandit","177","405302","0.0-139.0-0.0","59147995","wem/bandit_party_1","A1DBPM1UHEP4MU","either","4","342","","","","","","","0","0","1","0.1405816365","","0.6","0.2","0.8","0.4","","","","","0.1405816365","0.3558230887","0.0940701929","0.4187351015","","","","","","","","","","72","H","0","img/none_selected.jpg","","98","main_expt",""
"","bandit","178","406854","0.0-140.0-0.0","59147995","wem/bandit_party_1","A1DBPM1UHEP4MU","either","4","28","","","","","","","0","0","1","","0.1435678602","0.6","0.2","0.8","0.4","0.1435678602","0.3064708089","0.1285058524","0.3981340028","","","","","","","","","","","","","","72","H","0","img/none_selected.jpg","","99","main_expt",""
"","bandit","179","408684","0.0-141.0-0.0","59147995","wem/bandit_party_1","A1DBPM1UHEP4MU","either","4","307","","","","","","","0","0","1","","0.1478754355","0.6","0.2","0.8","0.4","0.1478754355","0.352498313","0.065882019","0.3520446815","","","","","","","","","","","","","","72","H","0","img/none_selected.jpg","","100","main_expt",""
"","bandit","180","410218","0.0-142.0-0.0","59147995","wem/bandit_party_1","A1DBPM1UHEP4MU","either","4","5","","","","","","","0","0","1","","0.05692140794","0.6","0.2","0.8","0.4","0.1532559328","0.3511810171","0.05692140794","0.3715523215","","","","","","","","","","","","","","75","K","2","","","101","main_expt",""
"","bandit","181","411846","0.0-143.0-0.0","59147995","wem/bandit_party_1","A1DBPM1UHEP4MU","either","4","96","","","","","","","0","0","1","","0.04322280369","0.6","0.2","0.8","0.4","0.15857411","0.3246867477","0.04322280369","0.3966955113","","","","","","","","","","","","","","75","K","2","","","102","main_expt",""
"","bandit","182","413505","0.0-144.0-0.0","59147995","wem/bandit_party_1","A1DBPM1UHEP4MU","either","4","136","","","","","","","0","0","1","0.05121437093","","0.6","0.2","0.8","0.4","","","","","0.1552377357","0.2827689756","0.05121437093","0.3865714765","","","","","","","","","","75","K","2","","","103","main_expt",""
"","bandit","183","415094","0.0-145.0-0.0","59147995","wem/bandit_party_1","A1DBPM1UHEP4MU","either","4","64","","","","","","","0","0","1","","0.3440646931","0.6","0.2","0.8","0.4","0.1584193753","0.3307995119","0.06548077564","0.3440646931","","","","","","","","","","","","","","76","L","3","","","104","main_expt",""
"","bandit","184","416673","0.0-146.0-0.0","59147995","wem/bandit_party_1","A1DBPM1UHEP4MU","either","4","57","","","","","","","0","0","1","0.330981063","","0.6","0.2","0.8","0.4","","","","","0.192058402","0.3078297571","0.07577357845","0.330981063","","","","","","","","","","76","L","3","","","105","main_expt",""
"","bandit","185","418280","0.0-147.0-0.0","59147995","wem/bandit_party_1","A1DBPM1UHEP4MU","either","4","83","","","","","","","0","1","0","","0.3317280627","0.6","0.2","0.8","0.4","0.1562344916","0.3202685942","0.09041352565","0.3317280627","","","","","","","","","","","","","","76","L","3","","","106","main_expt",""
"","bandit","186","419806","0.0-148.0-0.0","59147995","wem/bandit_party_1","A1DBPM1UHEP4MU","either","4","2","","","","","","","0","0","1","","0.2760665195","0.6","0.2","0.8","0.4","0.1493116313","0.3163418234","0.1184921167","0.2760665195","","","","","","","","","","","","","","76","L","3","","","107","main_expt",""
"","bandit","187","421337","0.0-149.0-0.0","59147995","wem/bandit_party_1","A1DBPM1UHEP4MU","either","4","4","","","","","","","0","0","1","0.2826301941","","0.6","0.2","0.8","0.4","","","","","0.1357435498","0.3425943818","0.1057615429","0.2826301941","","","","","","","","","","76","L","3","","","108","main_expt",""
"","bandit","188","423024","0.0-150.0-0.0","59147995","wem/bandit_party_1","A1DBPM1UHEP4MU","either","4","164","","","","","","","0","0","1","","0.2852030557","0.6","0.2","0.8","0.4","0.1164074326","0.2852030557","0.1464484126","0.318117281","","","","","","","","","","","","","","74","J","1","","","109","main_expt",""
"","bandit","189","424658","0.0-151.0-0.0","59147995","wem/bandit_party_1","A1DBPM1UHEP4MU","either","4","113","","","","","","","0","0","1","0.3392406975","","0.6","0.2","0.8","0.4","","","","","0.1444451916","0.3392406975","0.1641354829","0.3358587519","","","","","","","","","","74","J","1","","","110","main_expt",""
"","bandit","190","426539","0.0-152.0-0.0","59147995","wem/bandit_party_1","A1DBPM1UHEP4MU","either","4","357","","","","","","","0","1","0","","0.3023411017","0.6","0.2","0.8","0.4","0.09905323685","0.3023411017","0.1386891192","0.3031660534","","","","","","","","","","","","","","74","J","1","","","111","main_expt",""
"","bandit","191","428663","0.0-153.0-0.0","59147995","wem/bandit_party_1","A1DBPM1UHEP4MU","either","4","599","","","","","","","0","0","1","","0.296849772","0.6","0.2","0.8","0.4","0.09652445584","0.296849772","0.1847512065","0.2773548355","","","","","","","","","","","","","","74","J","1","","","112","main_expt",""
"","bandit","192","430270","0.0-154.0-0.0","59147995","wem/bandit_party_1","A1DBPM1UHEP4MU","either","4","81","","","","","","","0","0","1","0.2673419259","","0.6","0.2","0.8","0.4","","","","","0.09961189632","0.2673419259","0.1304555333","0.2370758425","","","","","","","","","","74","J","1","","","113","main_expt",""
"","bandit","193","431929","0.0-155.0-0.0","59147995","wem/bandit_party_1","A1DBPM1UHEP4MU","either","4","136","","","","","","","0","0","1","","0.1036139638","0.6","0.2","0.8","0.4","0.1036139638","0.2670531803","0.1770102637","0.1821928837","","","","","","","","","","","","","","72","H","0","img/none_selected.jpg","","114","main_expt",""
"","bandit","194","433455","0.0-156.0-0.0","59147995","wem/bandit_party_1","A1DBPM1UHEP4MU","either","4","2","","","","","","","0","0","1","","0.0968506792","0.6","0.2","0.8","0.4","0.0968506792","0.2825009356","0.1564651975","0.1315453283","","","","","","","","","","","","","","72","H","0","img/none_selected.jpg","","115","main_expt",""
"","bandit","195","435128","0.0-157.0-0.0","59147995","wem/bandit_party_1","A1DBPM1UHEP4MU","either","4","149","","","","","","","0","0","1","","0.1665702367","0.6","0.2","0.8","0.4","0.08782875681","0.3237719372","0.1665702367","0.1102777544","","","","","","","","","","","","","","75","K","2","","","116","main_expt",""
"","bandit","196","436792","0.0-158.0-0.0","59147995","wem/bandit_party_1","A1DBPM1UHEP4MU","either","4","141","","","","","","","0","0","1","","0.1530687496","0.6","0.2","0.8","0.4","0.06031800864","0.3154846423","0.1530687496","0.1101610351","","","","","","","","","","","","","","75","K","2","","","117","main_expt",""
"","bandit","197","438450","0.0-159.0-0.0","59147995","wem/bandit_party_1","A1DBPM1UHEP4MU","either","4","132","","","","","","","0","0","1","","0.122460482","0.6","0.2","0.8","0.4","0.05633053331","0.2584508078","0.1674206906","0.122460482","","","","","","","","","","","","","","76","L","3","","","118","main_expt",""
"","bandit","198","440078","0.0-160.0-0.0","59147995","wem/bandit_party_1","A1DBPM1UHEP4MU","either","4","93","","","","","","","0","0","1","","0.1451868924","0.6","0.2","0.8","0.4","0.07530514027","0.2141905193","0.1990215448","0.1451868924","","","","","","","","","","","","","","76","L","3","","","119","main_expt",""
"","bandit","199","441983","0.0-161.0-0.0","59147995","wem/bandit_party_1","A1DBPM1UHEP4MU","either","4","380","","","","","","","1","0","0","0.2341954374","","0.6","0.2","0.8","0.4","","","","","0.09639595661","0.2341954374","0.2208640619","0.09092593383","","","","","","","","","","74","J","1","","","120","main_expt",""
"","bandit","200","443541","0.0-162.0-0.0","59147995","wem/bandit_party_1","A1DBPM1UHEP4MU","either","4","32","","","","","","","0","0","1","0.1886372651","","0.6","0.2","0.8","0.4","","","","","0.1421799471","0.1886372651","0.2602917539","0.1080456108","","","","","","","","","","74","J","1","","","121","main_expt",""
"","bandit","201","445237","0.0-163.0-0.0","59147995","wem/bandit_party_1","A1DBPM1UHEP4MU","either","4","170","","","","","","","0","0","1","","0.1597592322","0.6","0.2","0.8","0.4","0.1624760489","0.1597592322","0.2512498235","0.1169053248","","","","","","","","","","","","","","74","J","1","","","122","main_expt",""
"","bandit","202","446764","0.0-164.0-0.0","59147995","wem/bandit_party_1","A1DBPM1UHEP4MU","either","4","2","","","","","","","0","0","1","","0.1895266442","0.6","0.2","0.8","0.4","0.1640214383","0.1895266442","0.2266242761","0.1571594809","","","","","","","","","","","","","","74","J","1","","","123","main_expt",""
"","bandit","203","448376","0.0-165.0-0.0","59147995","wem/bandit_party_1","A1DBPM1UHEP4MU","either","4","87","","","","","","","0","0","1","0.2014340991","","0.6","0.2","0.8","0.4","","","","","0.2014340991","0.2042850732","0.2373824638","0.2231804049","","","","","","","","","","72","H","0","img/none_selected.jpg","","124","main_expt",""
"","bandit","204","450061","0.0-166.0-0.0","59147995","wem/bandit_party_1","A1DBPM1UHEP4MU","either","4","157","","","","","","","1","0","0","0.2229229076","","0.6","0.2","0.8","0.4","","","","","0.2229229076","0.1812515389","0.2538727107","0.2232794356","","","","","","","","","","72","H","0","img/none_selected.jpg","","125","main_expt",""
"","bandit","205","451976","0.0-167.0-0.0","59147995","wem/bandit_party_1","A1DBPM1UHEP4MU","either","4","382","","","","","","","1","0","0","0.2324712723","","0.6","0.2","0.8","0.4","","","","","0.2324712723","0.1694736183","0.290219491","0.2316903634","","","","","","","","","","72","H","0","img/none_selected.jpg","","126","main_expt",""
"","bandit","206","453841","0.0-168.0-0.0","59147995","wem/bandit_party_1","A1DBPM1UHEP4MU","either","4","338","","","","","","","0","0","1","","0.2628391623","0.6","0.2","0.8","0.4","0.2628391623","0.1624528765","0.2542505169","0.2337524142","","","","","","","","","","","","","","72","H","0","img/none_selected.jpg","","127","main_expt",""
"","bandit","207","455367","0.0-169.0-0.0","59147995","wem/bandit_party_1","A1DBPM1UHEP4MU","either","4","2","","","","","","","0","1","0","","0.2654356302","0.6","0.2","0.8","0.4","0.2654356302","0.1632982916","0.2582316027","0.2198210178","","","","","","","","","","","","","","72","H","0","img/none_selected.jpg","","128","main_expt",""
"","bandit","208","456987","0.0-170.0-0.0","59147995","wem/bandit_party_1","A1DBPM1UHEP4MU","either","4","94","","","","","","","0","0","1","0.2070569149","","0.6","0.2","0.8","0.4","","","","","0.2070569149","0.2264598068","0.3267566011","0.2280168395","","","","","","","","","","72","H","0","img/none_selected.jpg","","129","main_expt",""
"","bandit","209","458525","0.0-171.0-0.0","59147995","wem/bandit_party_1","A1DBPM1UHEP4MU","either","4","2","","","","","","","0","0","1","","0.2579182239","0.6","0.2","0.8","0.4","0.2579182239","0.202760285","0.3323271388","0.243895296","","","","","","","","","","","","","","72","H","0","img/none_selected.jpg","","130","main_expt",""
"","bandit","210","460065","0.0-172.0-0.0","59147995","wem/bandit_party_1","A1DBPM1UHEP4MU","either","4","13","","","","","","","0","0","1","0.2329110821","","0.6","0.2","0.8","0.4","","","","","0.2329110821","0.1585094705","0.2666668646","0.2164454501","","","","","","","","","","72","H","0","img/none_selected.jpg","","131","main_expt",""
"","bandit","211","461590","0.0-173.0-0.0","59147995","wem/bandit_party_1","A1DBPM1UHEP4MU","either","4","2","","","","","","","0","0","1","0.2400232435","","0.6","0.2","0.8","0.4","","","","","0.2400232435","0.1304261544","0.2359119393","0.200468731","","","","","","","","","","72","H","0","img/none_selected.jpg","","132","main_expt",""
"","bandit","212","463215","0.0-174.0-0.0","59147995","wem/bandit_party_1","A1DBPM1UHEP4MU","either","4","99","","","","","","","0","0","1","0.2540740643","","0.6","0.2","0.8","0.4","","","","","0.2084798617","0.09339990826","0.2540740643","0.2038597077","","","","","","","","","","75","K","2","","","133","main_expt",""
"","bandit","213","464855","0.0-175.0-0.0","59147995","wem/bandit_party_1","A1DBPM1UHEP4MU","either","4","116","","","","","","","1","0","0","0.2414927735","","0.6","0.2","0.8","0.4","","","","","0.2034544","0.08524612959","0.2414927735","0.2263269307","","","","","","","","","","75","K","2","","","134","main_expt",""
"","bandit","214","466391","0.0-176.0-0.0","59147995","wem/bandit_party_1","A1DBPM1UHEP4MU","either","4","9","","","","","","","0","0","1","0.2632369982","","0.6","0.2","0.8","0.4","","","","","0.2088958693","0.0622033461","0.2632369982","0.2686469146","","","","","","","","","","75","K","2","","","135","main_expt",""
"","bandit","215","468376","0.0-177.0-0.0","59147995","wem/bandit_party_1","A1DBPM1UHEP4MU","either","4","460","","","","","","","1","0","0","0.3032623762","","0.6","0.2","0.8","0.4","","","","","0.2573758916","0.05632890875","0.3032623762","0.3170393738","","","","","","","","","","75","K","2","","","136","main_expt",""
"","bandit","216","470258","0.0-178.0-0.0","59147995","wem/bandit_party_1","A1DBPM1UHEP4MU","either","4","352","","","","","","","0","0","1","0.338962466","","0.6","0.2","0.8","0.4","","","","","0.2467438462","0.06052980877","0.2984046037","0.338962466","","","","","","","","","","76","L","3","","","137","main_expt",""
"","bandit","217","471783","0.0-179.0-0.0","59147995","wem/bandit_party_1","A1DBPM1UHEP4MU","either","4","1","","","","","","","0","0","1","","0.3586643031","0.6","0.2","0.8","0.4","0.2221944767","0.1038497792","0.3110629865","0.3586643031","","","","","","","","","","","","","","76","L","3","","","138","main_expt",""
"","bandit","218","473316","0.0-180.0-0.0","59147995","wem/bandit_party_1","A1DBPM1UHEP4MU","either","4","2","","","","","","","0","0","1","0.3048373826","","0.6","0.2","0.8","0.4","","","","","0.2750517365","0.08561062373","0.3048373826","0.3430902759","","","","","","","","","","75","K","2","","","139","main_expt",""
"","bandit","219","474877","0.0-181.0-0.0","59147995","wem/bandit_party_1","A1DBPM1UHEP4MU","either","4","38","","","","","","","0","0","1","0.3163642845","","0.6","0.2","0.8","0.4","","","","","0.277474309","0.08025295029","0.3163642845","0.3777112835","","","","","","","","","","75","K","2","","","140","main_expt",""
"","bandit","220","476486","0.0-182.0-0.0","59147995","wem/bandit_party_1","A1DBPM1UHEP4MU","either","4","84","","","","","","","0","0","1","","0.2213861514","0.6","0.2","0.8","0.4","0.2932007391","0.09309891757","0.2213861514","0.4276051364","","","","","","","","","","","","","","75","K","2","","","141","main_expt",""
"","bandit","221","478014","0.0-183.0-0.0","59147995","wem/bandit_party_1","A1DBPM1UHEP4MU","either","4","2","","","","","","","0","0","1","","0.1107976638","0.6","0.2","0.8","0.4","0.3001807938","0.1107976638","0.2492613222","0.4312347149","","","","","","","","","","","","","","74","J","1","","","142","main_expt",""
"","bandit","222","479549","0.0-184.0-0.0","59147995","wem/bandit_party_1","A1DBPM1UHEP4MU","either","4","6","","","","","","","0","0","1","","0.09575525052","0.6","0.2","0.8","0.4","0.3640878437","0.09575525052","0.2645663874","0.386657586","","","","","","","","","","","","","","74","J","1","","","143","main_expt",""
"","bandit","223","481131","0.0-185.0-0.0","59147995","wem/bandit_party_1","A1DBPM1UHEP4MU","either","4","55","","","","","","","0","1","0","","0.07222794989","0.6","0.2","0.8","0.4","0.2706796495","0.07222794989","0.2928215939","0.3409851627","","","","","","","","","","","","","","74","J","1","","","144","main_expt",""
"","bandit","224","482685","0.0-186.0-0.0","59147995","wem/bandit_party_1","A1DBPM1UHEP4MU","either","4","29","","","","","","","0","1","0","","0.03203798906","0.6","0.2","0.8","0.4","0.2359726437","0.03203798906","0.3178979655","0.3538709708","","","","","","","","","","","","","","74","J","1","","","145","main_expt",""
"","bandit","225","484479","0.0-187.0-0.0","59147995","wem/bandit_party_1","A1DBPM1UHEP4MU","either","4","271","","","","","","","0","0","1","","0.03073079809","0.6","0.2","0.8","0.4","0.2200332621","0.03073079809","0.2850957273","0.2745956728","","","","","","","","","","","","","","74","J","1","","","146","main_expt",""
"","bandit","226","486321","0.0-188.0-0.0","59147995","wem/bandit_party_1","A1DBPM1UHEP4MU","either","4","315","","","","","","","0","0","1","","0.1957794229","0.6","0.2","0.8","0.4","0.1957794229","0.05105424151","0.2483519338","0.2375793476","","","","","","","","","","","","","","72","H","0","img/none_selected.jpg","","147","main_expt",""
"","bandit","227","488040","0.0-189.0-0.0","59147995","wem/bandit_party_1","A1DBPM1UHEP4MU","either","4","192","","","","","","","0","0","1","","0.04045355104","0.6","0.2","0.8","0.4","0.1790722045","0.04045355104","0.2309770791","0.2954602587","","","","","","","","","","","","","","74","J","1","","","148","main_expt",""
"","bandit","228","489799","0.0-190.0-0.0","59147995","wem/bandit_party_1","A1DBPM1UHEP4MU","either","4","231","","","","","","","0","0","1","","0.06416506337","0.6","0.2","0.8","0.4","0.2189150546","0.06416506337","0.1759049641","0.3435099865","","","","","","","","","","","","","","74","J","1","","","149","main_expt",""
"","bandit","229","491716","0.0-191.0-0.0","59147995","wem/bandit_party_1","A1DBPM1UHEP4MU","either","4","391","","","","","","","0","0","1","","0.268900415","0.6","0.2","0.8","0.4","0.2119229637","0.07819388902","0.1910702346","0.268900415","","","","","","","","","","","","","","76","L","3","","","150","main_expt",""
"","bandit","230","493455","0.0-192.0-0.0","59147995","wem/bandit_party_1","A1DBPM1UHEP4MU","either","4","213","","","","","","","0","0","1","0.2326488896","","0.6","0.2","0.8","0.4","","","","","0.2472398003","0.1186979887","0.1799178466","0.2326488896","","","","","","","","","","76","L","3","","","151","main_expt",""
"","bandit","231","495215","0.0-193.0-0.0","59147995","wem/bandit_party_1","A1DBPM1UHEP4MU","either","4","233","","","","","","","0","0","1","","0.2768057641","0.6","0.2","0.8","0.4","0.2148428051","0.1084773402","0.1826140084","0.2768057641","","","","","","","","","","","","","","76","L","3","","","152","main_expt",""
"","bandit","232","496851","0.0-194.0-0.0","59147995","wem/bandit_party_1","A1DBPM1UHEP4MU","either","4","110","","","","","","","0","0","1","0.147924298","","0.6","0.2","0.8","0.4","","","","","0.1598057249","0.1314289417","0.147924298","0.2997660112","","","","","","","","","","75","K","2","","","153","main_expt",""
"","bandit","233","498764","0.0-195.0-0.0","59147995","wem/bandit_party_1","A1DBPM1UHEP4MU","either","4","387","","","","","","","0","0","1","","0.1388357139","0.6","0.2","0.8","0.4","0.1489099923","0.1354051011","0.1388357139","0.3196464983","","","","","","","","","","","","","","75","K","2","","","154","main_expt",""
"","bandit","234","500377","0.0-196.0-0.0","59147995","wem/bandit_party_1","A1DBPM1UHEP4MU","either","4","86","","","","","","","0","0","1","0.1658398244","","0.6","0.2","0.8","0.4","","","","","0.1502541116","0.1085215933","0.1658398244","0.3141654429","","","","","","","","","","75","K","2","","","155","main_expt",""
"","bandit","235","502041","0.0-197.0-0.0","59147995","wem/bandit_party_1","A1DBPM1UHEP4MU","either","4","129","","","","","","","0","0","1","0.1605084188","","0.6","0.2","0.8","0.4","","","","","0.1605084188","0.1383379057","0.1104921729","0.2667217688","","","","","","","","","","72","H","0","img/none_selected.jpg","","156","main_expt",""
"","bandit","236","503575","0.0-198.0-0.0","59147995","wem/bandit_party_1","A1DBPM1UHEP4MU","either","4","7","","","","","","","0","0","1","","0.1684101418","0.6","0.2","0.8","0.4","0.1684101418","0.1428990181","0.09530810267","0.2867075714","","","","","","","","","","","","","","72","H","0","img/none_selected.jpg","","157","main_expt",""
"","bandit","237","505139","0.0-199.0-0.0","59147995","wem/bandit_party_1","A1DBPM1UHEP4MU","either","4","37","","","","","","","0","0","1","0.1807688322","","0.6","0.2","0.8","0.4","","","","","0.1807688322","0.07455979893","0.1211627972","0.2788639118","","","","","","","","","","72","H","0","img/none_selected.jpg","","158","main_expt",""
"","bandit","238","506937","0.0-200.0-0.0","59147995","wem/bandit_party_1","A1DBPM1UHEP4MU","either","4","270","","","","","","","0","0","1","","0.1009372764","0.6","0.2","0.8","0.4","0.1516426412","0.1009372764","0.1012897464","0.3020710819","","","","","","","","","","","","","","74","J","1","","","159","main_expt",""
"","bandit","239","508856","0.0-201.0-0.0","59147995","wem/bandit_party_1","A1DBPM1UHEP4MU","either","4","396","","","","","","","0","0","1","","0.05118862797","0.6","0.2","0.8","0.4","0.1638698877","0.05118862797","0.1188035868","0.3404227007","","","","","","","","","","","","","","74","J","1","","","160","main_expt",""
"","bandit","240","510523","0.0-202.0-0.0","59147995","wem/bandit_party_1","A1DBPM1UHEP4MU","either","4","139","","","","","","","0","0","1","","0.05265847637","0.6","0.2","0.8","0.4","0.1645359983","0.05265847637","0.1606836622","0.2876249865","","","","","","","","","","","","","","74","J","1","","","161","main_expt",""
"","bandit","241","512113","0.0-203.0-0.0","59147995","wem/bandit_party_1","A1DBPM1UHEP4MU","either","4","66","","","","","","","1","0","0","0.1859884171","","0.6","0.2","0.8","0.4","","","","","0.2509918509","0.07938684611","0.1859884171","0.2401308511","","","","","","","","","","75","K","2","","","162","main_expt",""
"","bandit","242","513719","0.0-204.0-0.0","59147995","wem/bandit_party_1","A1DBPM1UHEP4MU","either","4","79","","","","","","","0","0","1","0.2528258464","","0.6","0.2","0.8","0.4","","","","","0.1883685458","0.0970900163","0.2528258464","0.2486605046","","","","","","","","","","75","K","2","","","163","main_expt",""
"","bandit","243","515627","0.0-205.0-0.0","59147995","wem/bandit_party_1","A1DBPM1UHEP4MU","either","4","384","","","","","","","0","0","1","0.22675384","","0.6","0.2","0.8","0.4","","","","","0.2179532334","0.07401968201","0.2515292425","0.22675384","","","","","","","","","","76","L","3","","","164","main_expt",""
"","bandit","244","517203","0.0-206.0-0.0","59147995","wem/bandit_party_1","A1DBPM1UHEP4MU","either","4","50","","","","","","","0","0","1","","0.2143704678","0.6","0.2","0.8","0.4","0.2143704678","0.06633104104","0.2068970429","0.2841151948","","","","","","","","","","","","","","72","H","0","img/none_selected.jpg","","165","main_expt",""
"","bandit","245","518747","0.0-207.0-0.0","59147995","wem/bandit_party_1","A1DBPM1UHEP4MU","either","4","18","","","","","","","0","0","1","","0.05309652092","0.6","0.2","0.8","0.4","0.2175899085","0.05309652092","0.1413778631","0.2842980464","","","","","","","","","","","","","","74","J","1","","","166","main_expt",""
"","bandit","246","520613","0.0-208.0-0.0","59147995","wem/bandit_party_1","A1DBPM1UHEP4MU","either","4","339","","","","","","","0","1","0","","0.1999497975","0.6","0.2","0.8","0.4","0.2137120923","0.07357446968","0.1999497975","0.3007590714","","","","","","","","","","","","","","75","K","2","","","167","main_expt",""
"","bandit","247","522233","0.0-209.0-0.0","59147995","wem/bandit_party_1","A1DBPM1UHEP4MU","either","4","92","","","","","","","0","0","1","0.1696145944","","0.6","0.2","0.8","0.4","","","","","0.2331560811","0.1054325378","0.1696145944","0.2884936601","","","","","","","","","","75","K","2","","","168","main_expt",""
"","bandit","248","523772","0.0-210.0-0.0","59147995","wem/bandit_party_1","A1DBPM1UHEP4MU","either","4","10","","","","","","","0","0","1","0.1338518967","","0.6","0.2","0.8","0.4","","","","","0.2367963754","0.08536867429","0.1338518967","0.2803439438","","","","","","","","","","75","K","2","","","169","main_expt",""
"","bandit","249","525412","0.0-211.0-0.0","59147995","wem/bandit_party_1","A1DBPM1UHEP4MU","either","4","114","","","","","","","0","0","1","0.1307598277","","0.6","0.2","0.8","0.4","","","","","0.2378050175","0.1083432756","0.1307598277","0.3010437192","","","","","","","","","","75","K","2","","","170","main_expt",""
"","bandit","250","527013","0.0-212.0-0.0","59147995","wem/bandit_party_1","A1DBPM1UHEP4MU","either","4","75","","","","","","","1","0","0","0.1200375331","","0.6","0.2","0.8","0.4","","","","","0.2253696972","0.09185370626","0.1200375331","0.3243802095","","","","","","","","","","75","K","2","","","171","main_expt",""
"","bandit","251","528651","0.0-213.0-0.0","59147995","wem/bandit_party_1","A1DBPM1UHEP4MU","either","4","112","","","","","","","0","0","1","0.07514546963","","0.6","0.2","0.8","0.4","","","","","0.2903394368","0.09458096772","0.07514546963","0.3140094691","","","","","","","","","","75","K","2","","","172","main_expt",""
"","bandit","252","530560","0.0-214.0-0.0","59147995","wem/bandit_party_1","A1DBPM1UHEP4MU","either","4","372","","","","","","","0","0","1","","0.07704486673","0.6","0.2","0.8","0.4","0.2384828248","0.1016296913","0.07704486673","0.2433770114","","","","","","","","","","","","","","75","K","2","","","173","main_expt",""
"","bandit","253","532169","0.0-215.0-0.0","59147995","wem/bandit_party_1","A1DBPM1UHEP4MU","either","4","80","","","","","","","0","0","1","","0.04061738922","0.6","0.2","0.8","0.4","0.2823111034","0.117107939","0.04061738922","0.2080779891","","","","","","","","","","","","","","75","K","2","","","174","main_expt",""
"","bandit","254","533732","0.0-216.0-0.0","59147995","wem/bandit_party_1","A1DBPM1UHEP4MU","either","4","35","","","","","","","1","0","0","0.2211365803","","0.6","0.2","0.8","0.4","","","","","0.292147578","0.1254773658","0.02968316822","0.2211365803","","","","","","","","","","76","L","3","","","175","main_expt",""
"","bandit","255","535372","0.0-217.0-0.0","59147995","wem/bandit_party_1","A1DBPM1UHEP4MU","either","4","112","","","","","","","0","0","1","","0.231280906","0.6","0.2","0.8","0.4","0.2928295457","0.1518856622","0.04419366322","0.231280906","","","","","","","","","","","","","","76","L","3","","","176","main_expt",""
"","bandit","256","537116","0.0-218.0-0.0","59147995","wem/bandit_party_1","A1DBPM1UHEP4MU","either","4","216","","","","","","","0","0","1","0.1689881391","","0.6","0.2","0.8","0.4","","","","","0.297241693","0.1502483312","0.04140429262","0.1689881391","","","","","","","","","","76","L","3","","","177","main_expt",""
"","bandit","257","538878","0.0-219.0-0.0","59147995","wem/bandit_party_1","A1DBPM1UHEP4MU","either","4","230","","","","","","","0","0","1","","0.1699404395","0.6","0.2","0.8","0.4","0.276241128","0.2073149786","0.06103489621","0.1699404395","","","","","","","","","","","","","","76","L","3","","","178","main_expt",""
"","bandit","258","540603","0.0-220.0-0.0","59147995","wem/bandit_party_1","A1DBPM1UHEP4MU","either","4","198","","","","","","","1","0","0","0.2405339857","","0.6","0.2","0.8","0.4","","","","","0.2405339857","0.1928578162","0.053608248","0.1571972967","","","","","","","","","","72","H","0","img/none_selected.jpg","","179","main_expt",""
"","bandit","259","542254","0.0-221.0-0.0","59147995","wem/bandit_party_1","A1DBPM1UHEP4MU","either","4","121","","","","","","","0","0","1","0.233428307","","0.6","0.2","0.8","0.4","","","","","0.233428307","0.1412953234","0.06289379635","0.1567782565","","","","","","","","","","72","H","0","img/none_selected.jpg","","180","main_expt",""
"","bandit","260","543996","0.0-222.0-0.0","59147995","wem/bandit_party_1","A1DBPM1UHEP4MU","either","4","214","","","","","","","0","1","0","","0.1459310114","0.6","0.2","0.8","0.4","0.1459310114","0.1258774719","0.07748386732","0.1492691696","","","","","","","","","","","","","","72","H","0","img/none_selected.jpg","","181","main_expt",""
"","bandit","261","545719","0.0-223.0-0.0","59147995","wem/bandit_party_1","A1DBPM1UHEP4MU","either","4","195","","","","","","","0","0","1","0.1796360657","","0.6","0.2","0.8","0.4","","","","","0.1796360657","0.1121960069","0.096714051","0.1609613705","","","","","","","","","","72","H","0","img/none_selected.jpg","","182","main_expt",""
"","bandit","262","547514","0.0-224.0-0.0","59147995","wem/bandit_party_1","A1DBPM1UHEP4MU","either","4","264","","","","","","","0","0","1","0.1907874973","","0.6","0.2","0.8","0.4","","","","","0.1907874973","0.08335286121","0.05351369794","0.1982891881","","","","","","","","","","72","H","0","img/none_selected.jpg","","183","main_expt",""
"","bandit","263","549046","0.0-225.0-0.0","59147995","wem/bandit_party_1","A1DBPM1UHEP4MU","either","4","1","","","","","","","0","0","1","0.1451627339","","0.6","0.2","0.8","0.4","","","","","0.1451627339","0.1085923678","0.08854511538","0.1703318442","","","","","","","","","","72","H","0","img/none_selected.jpg","","184","main_expt",""
"","bandit","264","550700","0.0-226.0-0.0","59147995","wem/bandit_party_1","A1DBPM1UHEP4MU","either","4","125","","","","","","","0","0","1","","0.1113654269","0.6","0.2","0.8","0.4","0.1692531577","0.1113654269","0.136385666","0.09566746086","","","","","","","","","","","","","","74","J","1","","","185","main_expt",""
"","bandit","265","552466","0.0-227.0-0.0","59147995","wem/bandit_party_1","A1DBPM1UHEP4MU","either","4","237","","","","","","","1","0","0","0.1848043888","","0.6","0.2","0.8","0.4","","","","","0.1885113298","0.1383531569","0.1848043888","0.1254261761","","","","","","","","","","75","K","2","","","186","main_expt",""
"","bandit","266","554041","0.0-228.0-0.0","59147995","wem/bandit_party_1","A1DBPM1UHEP4MU","either","4","46","","","","","","","0","0","1","0.1640989128","","0.6","0.2","0.8","0.4","","","","","0.2088125345","0.1739713275","0.1640989128","0.1081798115","","","","","","","","","","75","K","2","","","187","main_expt",""
"","bandit","267","555645","0.0-229.0-0.0","59147995","wem/bandit_party_1","A1DBPM1UHEP4MU","either","4","74","","","","","","","0","0","1","0.1301402021","","0.6","0.2","0.8","0.4","","","","","0.2228369986","0.1926366302","0.1301402021","0.08529062399","","","","","","","","","","75","K","2","","","188","main_expt",""
"","bandit","268","557178","0.0-230.0-0.0","59147995","wem/bandit_party_1","A1DBPM1UHEP4MU","either","4","1","","","","","","","0","1","0","","0.1980942663","0.6","0.2","0.8","0.4","0.2567428292","0.2499935398","0.1980942663","0.07250281893","","","","","","","","","","","","","","75","K","2","","","189","main_expt",""
"","bandit","269","558732","0.0-231.0-0.0","59147995","wem/bandit_party_1","A1DBPM1UHEP4MU","either","4","22","","","","","","","0","0","1","0.1842725295","","0.6","0.2","0.8","0.4","","","","","0.3177850294","0.2367317824","0.1842725295","0.07895395147","","","","","","","","","","75","K","2","","","190","main_expt",""
"","bandit","270","560358","0.0-232.0-0.0","59147995","wem/bandit_party_1","A1DBPM1UHEP4MU","either","4","99","","","","","","","0","0","1","0.2087081259","","0.6","0.2","0.8","0.4","","","","","0.2876912335","0.2515026666","0.2087081259","0.06204701637","","","","","","","","","","75","K","2","","","191","main_expt",""
"","bandit","271","562016","0.0-233.0-0.0","59147995","wem/bandit_party_1","A1DBPM1UHEP4MU","either","4","131","","","","","","","0","0","1","0.1800110976","","0.6","0.2","0.8","0.4","","","","","0.2383873749","0.2451916405","0.1800110976","0.064067899","","","","","","","","","","75","K","2","","","192","main_expt",""
"","bandit","272","563548","0.0-234.0-0.0","59147995","wem/bandit_party_1","A1DBPM1UHEP4MU","either","4","2","","","","","","","0","0","1","","0.1286650472","0.6","0.2","0.8","0.4","0.24690957","0.2353451433","0.1519186298","0.1286650472","","","","","","","","","","","","","","76","L","3","","","193","main_expt",""
"","bandit","273","565148","0.0-235.0-0.0","59147995","wem/bandit_party_1","A1DBPM1UHEP4MU","either","4","70","","","","","","","0","1","0","","0.2728455101","0.6","0.2","0.8","0.4","0.2728455101","0.307075739","0.1431656489","0.1746490116","","","","","","","","","","","","","","72","H","0","img/none_selected.jpg","","194","main_expt",""
"","bandit","274","566744","0.0-236.0-0.0","59147995","wem/bandit_party_1","A1DBPM1UHEP4MU","either","4","63","","","","","","","0","0","1","0.2421292151","","0.6","0.2","0.8","0.4","","","","","0.2421292151","0.3011001907","0.1868251083","0.129035247","","","","","","","","","","72","H","0","img/none_selected.jpg","","195","main_expt",""
"","bandit","275","568297","0.0-237.0-0.0","59147995","wem/bandit_party_1","A1DBPM1UHEP4MU","either","4","18","","","","","","","0","1","0","","0.2598052724","0.6","0.2","0.8","0.4","0.2598052724","0.2861216794","0.176624335","0.09052040682","","","","","","","","","","","","","","72","H","0","img/none_selected.jpg","","196","main_expt",""
"","bandit","276","569979","0.0-238.0-0.0","59147995","wem/bandit_party_1","A1DBPM1UHEP4MU","either","4","149","","","","","","","0","0","1","","0.2540930088","0.6","0.2","0.8","0.4","0.2540930088","0.2121549007","0.2383323772","0.08675464884","","","","","","","","","","","","","","72","H","0","img/none_selected.jpg","","197","main_expt",""
"","bandit","277","571529","0.0-239.0-0.0","59147995","wem/bandit_party_1","A1DBPM1UHEP4MU","either","4","20","","","","","","","0","0","1","0.2460150375","","0.6","0.2","0.8","0.4","","","","","0.2460150375","0.260340052","0.260618614","0.09429549835","","","","","","","","","","72","H","0","img/none_selected.jpg","","198","main_expt",""
"","bandit","278","573344","0.0-240.0-0.0","59147995","wem/bandit_party_1","A1DBPM1UHEP4MU","either","4","284","","","","","","","0","0","1","0.2217343644","","0.6","0.2","0.8","0.4","","","","","0.2217343644","0.3009562829","0.2935067364","0.09303778716","","","","","","","","","","72","H","0","img/none_selected.jpg","","199","main_expt",""
"","bandit","279","574962","0.0-241.0-0.0","59147995","wem/bandit_party_1","A1DBPM1UHEP4MU","either","4","88","","","","","","","0","0","1","","0.3430896668","0.6","0.2","0.8","0.4","0.2830302048","0.3430896668","0.362920627","0.07354084322","","","","","","","","","","","","","","74","J","1","","","200","main_expt",""
"","bandit","280","577036","0.0-242.0-0.0","59147995","wem/bandit_party_1","A1DBPM1UHEP4MU","either","4","545","","","","","","","0","0","1","","0.3119044903","0.6","0.2","0.8","0.4","0.3175621279","0.2973668079","0.3119044903","0.08115367452","","","","","","","","","","","","","","75","K","2","","","201","main_expt",""
"","bandit","281","578619","0.0-243.0-0.0","59147995","wem/bandit_party_1","A1DBPM1UHEP4MU","either","4","50","","","","","","","0","0","1","","0.0774842685","0.6","0.2","0.8","0.4","0.3049471546","0.3219337599","0.3095695708","0.0774842685","","","","","","","","","","","","","","76","L","3","","","202","main_expt",""
"","bandit","282","580773","0.0-244.0-0.0","59147995","wem/bandit_party_1","A1DBPM1UHEP4MU","either","4","622","","","","","","","0","0","1","","0.2975042969","0.6","0.2","0.8","0.4","0.2975042969","0.3229991028","0.3005459379","0.09704724367","","","","","","","","","","","","","","72","H","0","img/none_selected.jpg","","203","main_expt",""
"","bandit","283","582374","0.0-245.0-0.0","59147995","wem/bandit_party_1","A1DBPM1UHEP4MU","either","4","71","","","","","","","0","0","1","","0.3077995671","0.6","0.2","0.8","0.4","0.2268457719","0.3077995671","0.3116824409","0.1224111047","","","","","","","","","","","","","","74","J","1","","","204","main_expt",""
"","bandit","284","583909","0.0-246.0-0.0","59147995","wem/bandit_party_1","A1DBPM1UHEP4MU","either","4","5","","","","","","","0","0","1","0.3291635812","","0.6","0.2","0.8","0.4","","","","","0.2582085449","0.3070199156","0.3291635812","0.1627664319","","","","","","","","","","75","K","2","","","205","main_expt",""
"","bandit","285","585793","0.0-247.0-0.0","59147995","wem/bandit_party_1","A1DBPM1UHEP4MU","either","4","354","","","","","","","0","0","1","0.1604236747","","0.6","0.2","0.8","0.4","","","","","0.2841247045","0.3109683939","0.4008790519","0.1604236747","","","","","","","","","","76","L","3","","","206","main_expt",""
"","bandit","286","587684","0.0-248.0-0.0","59147995","wem/bandit_party_1","A1DBPM1UHEP4MU","either","4","361","","","","","","","0","0","1","0.3333225396","","0.6","0.2","0.8","0.4","","","","","0.3333225396","0.2845075958","0.4202180382","0.126388554","","","","","","","","","","72","H","0","img/none_selected.jpg","","207","main_expt",""
"","bandit","287","589299","0.0-249.0-0.0","59147995","wem/bandit_party_1","A1DBPM1UHEP4MU","either","4","83","","","","","","","0","0","1","","0.2419557814","0.6","0.2","0.8","0.4","0.290219871","0.2419557814","0.4168586074","0.1602309633","","","","","","","","","","","","","","74","J","1","","","208","main_expt",""
"","bandit","288","590847","0.0-250.0-0.0","59147995","wem/bandit_party_1","A1DBPM1UHEP4MU","either","4","11","","","","","","","0","0","1","0.3949328033","","0.6","0.2","0.8","0.4","","","","","0.3426384504","0.2449545816","0.3949328033","0.2009997365","","","","","","","","","","75","K","2","","","209","main_expt",""
"","bandit","289","592424","0.0-251.0-0.0","59147995","wem/bandit_party_1","A1DBPM1UHEP4MU","either","4","48","","","","","","","0","1","0","","0.1997114924","0.6","0.2","0.8","0.4","0.2932754766","0.2176860071","0.41782505","0.1997114924","","","","","","","","","","","","","","76","L","3","","","210","main_expt",""
"","bandit","290","594048","0.0-252.0-0.0","59147995","wem/bandit_party_1","A1DBPM1UHEP4MU","either","4","93","","","","","","","0","0","1","0.2631807131","","0.6","0.2","0.8","0.4","","","","","0.2522206247","0.2460847292","0.4377941382","0.2631807131","","","","","","","","","","76","L","3","","","211","main_expt",""
"","bandit","291","595635","0.0-253.0-0.0","59147995","wem/bandit_party_1","A1DBPM1UHEP4MU","either","4","55","","","","","","","0","0","1","0.2008991105","","0.6","0.2","0.8","0.4","","","","","0.2323705111","0.2017704833","0.4619006446","0.2008991105","","","","","","","","","","76","L","3","","","212","main_expt",""
"","bandit","292","597197","0.0-254.0-0.0","59147995","wem/bandit_party_1","A1DBPM1UHEP4MU","either","4","33","","","","","","","0","0","1","","0.1656487101","0.6","0.2","0.8","0.4","0.2815580385","0.1891715169","0.4508737721","0.1656487101","","","","","","","","","","","","","","76","L","3","","","213","main_expt",""
"","bandit","293","598771","0.0-255.0-0.0","59147995","wem/bandit_party_1","A1DBPM1UHEP4MU","either","4","42","","","","","","","0","0","1","0.2955812139","","0.6","0.2","0.8","0.4","","","","","0.2955812139","0.1819308411","0.4639731149","0.213788386","","","","","","","","","","72","H","0","img/none_selected.jpg","","214","main_expt",""
"","bandit","294","600642","0.0-256.0-0.0","59147995","wem/bandit_party_1","A1DBPM1UHEP4MU","either","4","340","","","","","","","0","0","1","","0.2988647484","0.6","0.2","0.8","0.4","0.2988647484","0.1406935411","0.4690757113","0.2206736926","","","","","","","","","","","","","","72","H","0","img/none_selected.jpg","","215","main_expt",""
"","bandit","295","602177","0.0-257.0-0.0","59147995","wem/bandit_party_1","A1DBPM1UHEP4MU","either","4","2","","","","","","","0","0","1","","0.206739756","0.6","0.2","0.8","0.4","0.3361974059","0.206739756","0.4685680314","0.2270120675","","","","","","","","","","","","","","74","J","1","","","216","main_expt",""
"","bandit","296","603734","0.0-258.0-0.0","59147995","wem/bandit_party_1","A1DBPM1UHEP4MU","either","4","26","","","","","","","0","1","0","","0.178624692","0.6","0.2","0.8","0.4","0.2764506131","0.178624692","0.4873952874","0.2561581829","","","","","","","","","","","","","","74","J","1","","","217","main_expt",""
"","bandit","297","605415","0.0-259.0-0.0","59147995","wem/bandit_party_1","A1DBPM1UHEP4MU","either","4","148","","","","","","","0","0","1","0.2021641755","","0.6","0.2","0.8","0.4","","","","","0.299893698","0.2021641755","0.4790671899","0.2785758431","","","","","","","","","","74","J","1","","","218","main_expt",""
"","bandit","298","606952","0.0-260.0-0.0","59147995","wem/bandit_party_1","A1DBPM1UHEP4MU","either","4","8","","","","","","","0","0","1","","0.2076996705","0.6","0.2","0.8","0.4","0.3213687962","0.2076996705","0.4769795117","0.2707863597","","","","","","","","","","","","","","74","J","1","","","219","main_expt",""
"","bandit","299","608501","0.0-261.0-0.0","59147995","wem/bandit_party_1","A1DBPM1UHEP4MU","either","4","5","","","","","","","0","0","1","","0.2479045362","0.6","0.2","0.8","0.4","0.3782095139","0.2479045362","0.4746148145","0.2262269101","","","","","","","","","","","","","","74","J","1","","","220","main_expt",""
"","bandit","300","610036","0.0-262.0-0.0","59147995","wem/bandit_party_1","A1DBPM1UHEP4MU","either","4","2","","","","","","","0","0","1","0.4789253058","","0.6","0.2","0.8","0.4","","","","","0.3572699546","0.251163546","0.4789253058","0.2522421151","","","","","","","","","","75","K","2","","","221","main_expt",""
"","bandit","301","611622","0.0-263.0-0.0","59147995","wem/bandit_party_1","A1DBPM1UHEP4MU","either","4","50","","","","","","","1","0","0","0.4765400837","","0.6","0.2","0.8","0.4","","","","","0.332217079","0.2653622565","0.4765400837","0.2323100388","","","","","","","","","","75","K","2","","","222","main_expt",""
"","bandit","302","613207","0.0-264.0-0.0","59147995","wem/bandit_party_1","A1DBPM1UHEP4MU","either","4","54","","","","","","","0","0","1","","0.4872993944","0.6","0.2","0.8","0.4","0.3327789551","0.2034578964","0.4872993944","0.2013525365","","","","","","","","","","","","","","75","K","2","","","223","main_expt",""
"","bandit","303","614742","0.0-265.0-0.0","59147995","wem/bandit_party_1","A1DBPM1UHEP4MU","either","4","2","","","","","","","0","0","1","0.4864577786","","0.6","0.2","0.8","0.4","","","","","0.3720138676","0.1176985371","0.4864577786","0.2017363432","","","","","","","","","","75","K","2","","","224","main_expt",""
"","bandit","304","616352","0.0-266.0-0.0","59147995","wem/bandit_party_1","A1DBPM1UHEP4MU","either","4","79","","","","","","","0","0","1","0.4815865163","","0.6","0.2","0.8","0.4","","","","","0.4035982493","0.08531446518","0.4815865163","0.1608447522","","","","","","","","","","75","K","2","","","225","main_expt",""
"","bandit","305","617889","0.0-267.0-0.0","59147995","wem/bandit_party_1","A1DBPM1UHEP4MU","either","4","2","","","","","","","0","0","1","","0.2023183299","0.6","0.2","0.8","0.4","0.3538577565","0.0901010045","0.4781941344","0.2023183299","","","","","","","","","","","","","","76","L","3","","","226","main_expt",""
"","bandit","306","619794","0.0-268.0-0.0","59147995","wem/bandit_party_1","A1DBPM1UHEP4MU","either","4","365","","","","","","","0","0","1","","0.1555458008","0.6","0.2","0.8","0.4","0.4205879778","0.06499555022","0.4742279627","0.1555458008","","","","","","","","","","","","","","76","L","3","","","227","main_expt",""
"","bandit","307","621393","0.0-269.0-0.0","59147995","wem/bandit_party_1","A1DBPM1UHEP4MU","either","4","68","","","","","","","0","0","1","","0.4082381823","0.6","0.2","0.8","0.4","0.4082381823","0.06967502077","0.4597327255","0.1210896773","","","","","","","","","","","","","","72","H","0","img/none_selected.jpg","","228","main_expt",""
"","bandit","308","623017","0.0-270.0-0.0","59147995","wem/bandit_party_1","A1DBPM1UHEP4MU","either","4","94","","","","","","","0","1","0","","0.4274963613","0.6","0.2","0.8","0.4","0.4274963613","0.07642173418","0.4733003713","0.1206830913","","","","","","","","","","","","","","72","H","0","img/none_selected.jpg","","229","main_expt",""
"","bandit","309","624615","0.0-271.0-0.0","59147995","wem/bandit_party_1","A1DBPM1UHEP4MU","either","4","67","","","","","","","0","0","1","","0.4362488765","0.6","0.2","0.8","0.4","0.4362488765","0.04973788902","0.4832022084","0.1334008039","","","","","","","","","","","","","","72","H","0","img/none_selected.jpg","","230","main_expt",""
"","bandit","310","626165","0.0-272.0-0.0","59147995","wem/bandit_party_1","A1DBPM1UHEP4MU","either","4","16","","","","","","","0","0","1","0.4420629534","","0.6","0.2","0.8","0.4","","","","","0.4420629534","0.07419495466","0.4802630573","0.1048467088","","","","","","","","","","72","H","0","img/none_selected.jpg","","231","main_expt",""
"","bandit","311","628024","0.0-273.0-0.0","59147995","wem/bandit_party_1","A1DBPM1UHEP4MU","either","4","327","","","","","","","0","0","1","0.4287414635","","0.6","0.2","0.8","0.4","","","","","0.4287414635","0.08125260149","0.4739318499","0.1184002818","","","","","","","","","","72","H","0","img/none_selected.jpg","","232","main_expt",""
"","bandit","312","629677","0.0-274.0-0.0","59147995","wem/bandit_party_1","A1DBPM1UHEP4MU","either","4","119","","","","","","","0","1","0","","0.06057073796","0.6","0.2","0.8","0.4","0.4395511981","0.06057073796","0.4709765286","0.08533064469","","","","","","","","","","","","","","74","J","1","","","233","main_expt",""
"","bandit","313","631210","0.0-275.0-0.0","59147995","wem/bandit_party_1","A1DBPM1UHEP4MU","either","4","2","","","","","","","0","0","1","","0.1037411708","0.6","0.2","0.8","0.4","0.4479240545","0.1037411708","0.4658145356","0.1190123434","","","","","","","","","","","","","","74","J","1","","","234","main_expt",""
"","bandit","314","632905","0.0-276.0-0.0","59147995","wem/bandit_party_1","A1DBPM1UHEP4MU","either","4","164","","","","","","","0","0","1","","0.1267441937","0.6","0.2","0.8","0.4","0.4476644646","0.1267441937","0.4312508187","0.1392024459","","","","","","","","","","","","","","74","J","1","","","235","main_expt",""
"","bandit","315","634456","0.0-277.0-0.0","59147995","wem/bandit_party_1","A1DBPM1UHEP4MU","either","4","21","","","","","","","0","0","1","","0.1002206095","0.6","0.2","0.8","0.4","0.457106966","0.1002206095","0.4323277229","0.1076242464","","","","","","","","","","","","","","74","J","1","","","236","main_expt",""
"","bandit","316","636088","0.0-278.0-0.0","59147995","wem/bandit_party_1","A1DBPM1UHEP4MU","either","4","100","","","","","","","1","0","0","0.4517679415","","0.6","0.2","0.8","0.4","","","","","0.4097288684","0.08353940566","0.4517679415","0.1539911713","","","","","","","","","","75","K","2","","","237","main_expt",""
"","bandit","317","637676","0.0-279.0-0.0","59147995","wem/bandit_party_1","A1DBPM1UHEP4MU","either","4","55","","","","","","","1","0","0","0.4476427196","","0.6","0.2","0.8","0.4","","","","","0.4530646831","0.07847158511","0.4476427196","0.1833253983","","","","","","","","","","75","K","2","","","238","main_expt",""
"","bandit","318","639286","0.0-280.0-0.0","59147995","wem/bandit_party_1","A1DBPM1UHEP4MU","either","4","77","","","","","","","0","0","1","0.4421551546","","0.6","0.2","0.8","0.4","","","","","0.4532148127","0.1132310855","0.4421551546","0.185515968","","","","","","","","","","75","K","2","","","239","main_expt",""
