"consent","trial_type","trial_index","time_elapsed","internal_node_id","subjID","study","MID","cond","drift","rt","responses","button_pressed","key_press","like","value","connected","gems","bombs","no_reward","GemPrChosen","BombPrChosen","GainOverPainPr_0","GainOverPainPr_1","GainOverPainPr_2","GainOverPainPr_3","LosePr_0","LosePr_1","LosePr_2","LosePr_3","WinPr_0","WinPr_1","WinPr_2","WinPr_3","Q0","Q1","Q2","gender","age","ethnicity","label","expt_phase","target","respCharCode","respKey","respChoiceNum","respChoice","practice","trial_counter","trial_label","Q0_index"
"GDM/GDM_behavioral_consent_30min_online.html","consent","0","21564","0.0-0.0","59315605","wem/bandit_party_1","A3C0LPVN749UF3","either","8","","","","","","","","","","","","","","","","","","","","","","","","","","","","","","","","","","","","","","","","",""
"","survey-text","1","24065","0.0-1.0","59315605","wem/bandit_party_1","A3C0LPVN749UF3","either","8","1492","{""Q0"":""A3C0LPVN749UF3""}","","","","","","","","","","","","","","","","","","","","","","","","","","","","","","","","","","","","","","",""
"","button-response","2","26417","0.0-2.0","59315605","wem/bandit_party_1","A3C0LPVN749UF3","either","8","1343","","1","","","","","","","","","","","","","","","","","","","","","","","","","","","","","","","","","","","","","",""
"","text-replacement","3","35880","0.0-3.0","59315605","wem/bandit_party_1","A3C0LPVN749UF3","either","8","8455","","","32","","","","","","","","","","","","","","","","","","","","","","","","","","","","","","","","","","","","",""
"","text-replacement","4","40451","0.0-4.0","59315605","wem/bandit_party_1","A3C0LPVN749UF3","either","8","4567","","","32","","","","","","","","","","","","","","","","","","","","","","","","","","","","","","","","","","","","",""
"","identification","5","47007","0.0-6.0-0.0","59315605","wem/bandit_party_1","A3C0LPVN749UF3","either","8","6544","","","","3","3","1","","","","","","","","","","","","","","","","","","","","","","","","pre","identification_pre","the Republican party","","","","","","","",""
"","identification","6","51504","0.0-6.0-1.0","59315605","wem/bandit_party_1","A3C0LPVN749UF3","either","8","3460","","","","3","3","3","","","","","","","","","","","","","","","","","","","","","","","","pre","identification_pre","the Democratic Party","","","","","","","",""
"","text-replacement","7","57920","0.0-7.0","59315605","wem/bandit_party_1","A3C0LPVN749UF3","either","8","5413","","","32","","","","","","","","","","","","","","","","","","","","","","","","","","","","","","","","","","","","",""
"","text-replacement","8","63902","0.0-8.0","59315605","wem/bandit_party_1","A3C0LPVN749UF3","either","8","5977","","","32","","","","","","","","","","","","","","","","","","","","","","","","","","","","","","","","","","","","",""
"","text-replacement","9","79886","0.0-9.0","59315605","wem/bandit_party_1","A3C0LPVN749UF3","either","8","15979","","","32","","","","","","","","","","","","","","","","","","","","","","","","","","","","","","","","","","","","",""
"","text-replacement","10","82630","0.0-10.0","59315605","wem/bandit_party_1","A3C0LPVN749UF3","either","8","2741","","","32","","","","","","","","","","","","","","","","","","","","","","","","","","","","","","","","","","","","",""
"","text-replacement","11","87110","0.0-11.0","59315605","wem/bandit_party_1","A3C0LPVN749UF3","either","8","4470","","","32","","","","","","","","","","","","","","","","","","","","","","","","","","","","","","","","","","","","",""
"","bandit","12","89562","0.0-12.0-0.0","59315605","wem/bandit_party_1","A3C0LPVN749UF3","either","8","932","","","","","","","0","0","1","0","0","","","","","0","","","","0","","","","","","","","","","","","","74","J","0","img/none_selected_demo.jpg","true","0","",""
"","bandit","13","91628","0.0-13.0-0.0","59315605","wem/bandit_party_1","A3C0LPVN749UF3","either","8","555","","","","","","","0","0","1","0","0","","","","","0","","","","0","","","","","","","","","","","","","75","K","0","img/none_selected_demo.jpg","true","0","",""
"","text-replacement","14","98259","0.0-14.0","59315605","wem/bandit_party_1","A3C0LPVN749UF3","either","8","6626","","","32","","","","","","","","","","","","","","","","","","","","","","","","","","","","","","","","","","","","",""
"","text-replacement","15","105518","0.0-15.0","59315605","wem/bandit_party_1","A3C0LPVN749UF3","either","8","7254","","","32","","","","","","","","","","","","","","","","","","","","","","","","","","","","","","","","","","","","",""
"","text-replacement","16","108826","0.0-16.0","59315605","wem/bandit_party_1","A3C0LPVN749UF3","either","8","3304","","","32","","","","","","","","","","","","","","","","","","","","","","","","","","","","","","","","","","","","",""
"","text-replacement","17","110082","0.0-17.0","59315605","wem/bandit_party_1","A3C0LPVN749UF3","either","8","1251","","","32","","","","","","","","","","","","","","","","","","","","","","","","","","","","","","","","","","","","",""
"","bandit","18","112371","0.0-18.0-0.0","59315605","wem/bandit_party_1","A3C0LPVN749UF3","either","8","776","","","","","","","1","0","0","0.8","","0.5","0.5","","","","","","","0.8","0.2","","","","","","","","","","","","74","J","0","img/none_selected_demo.jpg","true","0","80_20_practice",""
"","bandit","19","114265","0.0-18.0-1.0","59315605","wem/bandit_party_1","A3C0LPVN749UF3","either","8","380","","","","","","","0","1","0","","0.8","0.5","0.5","","","0.8","0.2","","","","","","","","","","","","","","","","74","J","0","img/none_selected_demo.jpg","true","0","80_20_practice",""
"","bandit","20","116225","0.0-18.0-2.0","59315605","wem/bandit_party_1","A3C0LPVN749UF3","either","8","452","","","","","","","0","1","0","","0.8","0.5","0.5","","","0.8","0.2","","","","","","","","","","","","","","","","74","J","0","img/none_selected_demo.jpg","true","0","80_20_practice",""
"","bandit","21","118638","0.0-18.0-3.0","59315605","wem/bandit_party_1","A3C0LPVN749UF3","either","8","899","","","","","","","0","0","1","0.2","","0.5","0.5","","","","","","","0.8","0.2","","","","","","","","","","","","75","K","1","","true","0","80_20_practice",""
"","bandit","22","120673","0.0-18.0-4.0","59315605","wem/bandit_party_1","A3C0LPVN749UF3","either","8","519","","","","","","","0","0","1","0.2","","0.5","0.5","","","","","","","0.8","0.2","","","","","","","","","","","","75","K","1","","true","0","80_20_practice",""
"","bandit","23","122532","0.0-18.0-5.0","59315605","wem/bandit_party_1","A3C0LPVN749UF3","either","8","342","","","","","","","0","1","0","","0.8","0.5","0.5","","","0.8","0.2","","","","","","","","","","","","","","","","74","J","0","img/none_selected_demo.jpg","true","0","80_20_practice",""
"","bandit","24","124427","0.0-18.0-6.0","59315605","wem/bandit_party_1","A3C0LPVN749UF3","either","8","381","","","","","","","1","0","0","0.8","","0.5","0.5","","","","","","","0.8","0.2","","","","","","","","","","","","74","J","0","img/none_selected_demo.jpg","true","0","80_20_practice",""
"","bandit","25","126120","0.0-18.0-7.0","59315605","wem/bandit_party_1","A3C0LPVN749UF3","either","8","180","","","","","","","1","0","0","0.8","","0.5","0.5","","","","","","","0.8","0.2","","","","","","","","","","","","74","J","0","img/none_selected_demo.jpg","true","0","80_20_practice",""
"","bandit","26","130494","0.0-18.0-8.0","59315605","wem/bandit_party_1","A3C0LPVN749UF3","either","8","2862","","","","","","","1","0","0","0.8","","0.5","0.5","","","","","","","0.8","0.2","","","","","","","","","","","","74","J","0","img/none_selected_demo.jpg","true","0","80_20_practice",""
"","bandit","27","132695","0.0-18.0-9.0","59315605","wem/bandit_party_1","A3C0LPVN749UF3","either","8","686","","","","","","","0","1","0","","0.8","0.5","0.5","","","0.8","0.2","","","","","","","","","","","","","","","","74","J","0","img/none_selected_demo.jpg","true","0","80_20_practice",""
"","bandit","28","145399","0.0-18.0-10.0","59315605","wem/bandit_party_1","A3C0LPVN749UF3","either","8","11192","","","","","","","0","0","1","0.8","","0.5","0.5","","","","","","","0.8","0.2","","","","","","","","","","","","74","J","0","img/none_selected_demo.jpg","true","0","80_20_practice",""
"","bandit","29","147425","0.0-18.0-11.0","59315605","wem/bandit_party_1","A3C0LPVN749UF3","either","8","520","","","","","","","0","1","0","","0.8","0.5","0.5","","","0.8","0.2","","","","","","","","","","","","","","","","74","J","0","img/none_selected_demo.jpg","true","0","80_20_practice",""
"","bandit","30","150088","0.0-18.0-12.0","59315605","wem/bandit_party_1","A3C0LPVN749UF3","either","8","1157","","","","","","","1","0","0","0.8","","0.5","0.5","","","","","","","0.8","0.2","","","","","","","","","","","","74","J","0","img/none_selected_demo.jpg","true","0","80_20_practice",""
"","bandit","31","152189","0.0-18.0-13.0","59315605","wem/bandit_party_1","A3C0LPVN749UF3","either","8","584","","","","","","","0","0","1","","0.2","0.5","0.5","","","0.8","0.2","","","","","","","","","","","","","","","","75","K","1","","true","0","80_20_practice",""
"","bandit","32","153836","0.0-18.0-14.0","59315605","wem/bandit_party_1","A3C0LPVN749UF3","either","8","132","","","","","","","0","0","1","0.8","","0.5","0.5","","","","","","","0.8","0.2","","","","","","","","","","","","74","J","0","img/none_selected_demo.jpg","true","0","80_20_practice",""
"","bandit","33","169143","0.0-18.0-15.0","59315605","wem/bandit_party_1","A3C0LPVN749UF3","either","8","13798","","","","","","","1","0","0","0.8","","0.5","0.5","","","","","","","0.8","0.2","","","","","","","","","","","","74","J","0","img/none_selected_demo.jpg","true","0","80_20_practice",""
"","bandit","34","177937","0.0-18.0-16.0","59315605","wem/bandit_party_1","A3C0LPVN749UF3","either","8","7281","","","","","","","1","0","0","0.8","","0.5","0.5","","","","","","","0.8","0.2","","","","","","","","","","","","74","J","0","img/none_selected_demo.jpg","true","0","80_20_practice",""
"","bandit","35","179742","0.0-18.0-17.0","59315605","wem/bandit_party_1","A3C0LPVN749UF3","either","8","286","","","","","","","0","1","0","","0.8","0.5","0.5","","","0.8","0.2","","","","","","","","","","","","","","","","74","J","0","img/none_selected_demo.jpg","true","0","80_20_practice",""
"","bandit","36","189811","0.0-18.0-18.0","59315605","wem/bandit_party_1","A3C0LPVN749UF3","either","8","8554","","","","","","","1","0","0","0.8","","0.5","0.5","","","","","","","0.8","0.2","","","","","","","","","","","","74","J","0","img/none_selected_demo.jpg","true","0","80_20_practice",""
"","bandit","37","192405","0.0-18.0-19.0","59315605","wem/bandit_party_1","A3C0LPVN749UF3","either","8","1079","","","","","","","0","1","0","","0.8","0.5","0.5","","","0.8","0.2","","","","","","","","","","","","","","","","74","J","0","img/none_selected_demo.jpg","true","0","80_20_practice",""
"","text-replacement","38","203007","0.0-19.0","59315605","wem/bandit_party_1","A3C0LPVN749UF3","either","8","10596","","","32","","","","","","","","","","","","","","","","","","","","","","","","","","","","","","","","","","","","",""
"","bandit","39","205205","0.0-20.0-0.0","59315605","wem/bandit_party_1","A3C0LPVN749UF3","either","8","684","","","","","","","1","0","0","1","0","","","","","0","1","","","1","0","","","","","","","","","","","","74","J","0","img/none_selected_demo.jpg","true","0","",""
"","text-replacement","40","211529","0.0-21.0","59315605","wem/bandit_party_1","A3C0LPVN749UF3","either","8","6321","","","32","","","","","","","","","","","","","","","","","","","","","","","","","","","","","","","","","","","","",""
"","text-replacement","41","214105","0.0-22.0","59315605","wem/bandit_party_1","A3C0LPVN749UF3","either","8","2570","","","32","","","","","","","","","","","","","","","","","","","","","","","","","","","","","","","","","","","","",""
"","text-replacement","42","218442","0.0-23.0","59315605","wem/bandit_party_1","A3C0LPVN749UF3","either","8","4331","","","32","","","","","","","","","","","","","","","","","","","","","","","","","","","","","","","","","","","","",""
"","text-replacement","43","223924","0.0-24.0","59315605","wem/bandit_party_1","A3C0LPVN749UF3","either","8","5475","","","32","","","","","","","","","","","","","","","","","","","","","","","","","","","","","","","","","","","","",""
"","text-replacement","44","233253","0.0-25.0","59315605","wem/bandit_party_1","A3C0LPVN749UF3","either","8","9323","","","32","","","","","","","","","","","","","","","","","","","","","","","","","","","","","","","","","","","","",""
"","text-replacement","45","237601","0.0-26.0","59315605","wem/bandit_party_1","A3C0LPVN749UF3","either","8","4345","","","32","","","","","","","","","","","","","","","","","","","","","","","","","","","","","","","","","","","","",""
"","text-replacement","46","244773","0.0-27.0","59315605","wem/bandit_party_1","A3C0LPVN749UF3","either","8","7166","","","32","","","","","","","","","","","","","","","","","","","","","","","","","","","","","","","","","","","","",""
"","text-replacement","47","248536","0.0-28.0","59315605","wem/bandit_party_1","A3C0LPVN749UF3","either","8","3757","","","32","","","","","","","","","","","","","","","","","","","","","","","","","","","","","","","","","","","","",""
"","text-replacement","48","254147","0.0-29.0","59315605","wem/bandit_party_1","A3C0LPVN749UF3","either","8","5604","","","32","","","","","","","","","","","","","","","","","","","","","","","","","","","","","","","","","","","","",""
"","text-replacement","49","256627","0.0-30.0","59315605","wem/bandit_party_1","A3C0LPVN749UF3","either","8","2473","","","32","","","","","","","","","","","","","","","","","","","","","","","","","","","","","","","","","","","","",""
"","text-replacement","50","260794","0.0-31.0","59315605","wem/bandit_party_1","A3C0LPVN749UF3","either","8","4159","","","32","","","","","","","","","","","","","","","","","","","","","","","","","","","","","","","","","","","","",""
"","bandit","51","262909","0.0-32.0-0.0","59315605","wem/bandit_party_1","A3C0LPVN749UF3","either","8","599","","","","","","","1","0","0","0.8","","0.5","0.5","0.5","0.5","","","","","0.8","0.2","0.6","0.2","","","","","","","","","","72","H","0","img/none_selected.jpg","true","0","full_practice",""
"","bandit","52","264868","0.0-32.0-1.0","59315605","wem/bandit_party_1","A3C0LPVN749UF3","either","8","442","","","","","","","1","0","0","0.2","","0.5","0.5","0.5","0.5","","","","","0.8","0.2","0.6","0.2","","","","","","","","","","74","J","1","","true","0","full_practice",""
"","bandit","53","266754","0.0-32.0-2.0","59315605","wem/bandit_party_1","A3C0LPVN749UF3","either","8","371","","","","","","","1","0","0","0.6","","0.5","0.5","0.5","0.5","","","","","0.8","0.2","0.6","0.2","","","","","","","","","","75","K","2","","true","0","full_practice",""
"","bandit","54","268940","0.0-32.0-3.0","59315605","wem/bandit_party_1","A3C0LPVN749UF3","either","8","671","","","","","","","0","0","1","0.2","","0.5","0.5","0.5","0.5","","","","","0.8","0.2","0.6","0.2","","","","","","","","","","76","L","3","","true","0","full_practice",""
"","bandit","55","270511","0.0-32.0-4.0","59315605","wem/bandit_party_1","A3C0LPVN749UF3","either","8","57","","","","","","","1","0","0","0.8","","0.5","0.5","0.5","0.5","","","","","0.8","0.2","0.6","0.2","","","","","","","","","","72","H","0","img/none_selected.jpg","true","0","full_practice",""
"","bandit","56","272236","0.0-32.0-5.0","59315605","wem/bandit_party_1","A3C0LPVN749UF3","either","8","211","","","","","","","0","1","0","","0.8","0.5","0.5","0.5","0.5","0.8","0.2","0.6","0.2","","","","","","","","","","","","","","72","H","0","img/none_selected.jpg","true","0","full_practice",""
"","bandit","57","274216","0.0-32.0-6.0","59315605","wem/bandit_party_1","A3C0LPVN749UF3","either","8","466","","","","","","","0","1","0","","0.8","0.5","0.5","0.5","0.5","0.8","0.2","0.6","0.2","","","","","","","","","","","","","","72","H","0","img/none_selected.jpg","true","0","full_practice",""
"","bandit","58","276019","0.0-32.0-7.0","59315605","wem/bandit_party_1","A3C0LPVN749UF3","either","8","293","","","","","","","0","0","1","0.2","","0.5","0.5","0.5","0.5","","","","","0.8","0.2","0.6","0.2","","","","","","","","","","74","J","1","","true","0","full_practice",""
"","bandit","59","277581","0.0-32.0-8.0","59315605","wem/bandit_party_1","A3C0LPVN749UF3","either","8","40","","","","","","","0","0","1","0.6","","0.5","0.5","0.5","0.5","","","","","0.8","0.2","0.6","0.2","","","","","","","","","","75","K","2","","true","0","full_practice",""
"","bandit","60","279558","0.0-32.0-9.0","59315605","wem/bandit_party_1","A3C0LPVN749UF3","either","8","463","","","","","","","1","0","0","0.2","","0.5","0.5","0.5","0.5","","","","","0.8","0.2","0.6","0.2","","","","","","","","","","76","L","3","","true","0","full_practice",""
"","bandit","61","281328","0.0-32.0-10.0","59315605","wem/bandit_party_1","A3C0LPVN749UF3","either","8","256","","","","","","","0","1","0","","0.2","0.5","0.5","0.5","0.5","0.8","0.2","0.6","0.2","","","","","","","","","","","","","","76","L","3","","true","0","full_practice",""
"","bandit","62","283279","0.0-32.0-11.0","59315605","wem/bandit_party_1","A3C0LPVN749UF3","either","8","437","","","","","","","0","0","1","","0.2","0.5","0.5","0.5","0.5","0.8","0.2","0.6","0.2","","","","","","","","","","","","","","76","L","3","","true","0","full_practice",""
"","bandit","63","284819","0.0-32.0-12.0","59315605","wem/bandit_party_1","A3C0LPVN749UF3","either","8","32","","","","","","","0","1","0","","0.8","0.5","0.5","0.5","0.5","0.8","0.2","0.6","0.2","","","","","","","","","","","","","","72","H","0","img/none_selected.jpg","true","0","full_practice",""
"","bandit","64","286672","0.0-32.0-13.0","59315605","wem/bandit_party_1","A3C0LPVN749UF3","either","8","341","","","","","","","0","1","0","","0.8","0.5","0.5","0.5","0.5","0.8","0.2","0.6","0.2","","","","","","","","","","","","","","72","H","0","img/none_selected.jpg","true","0","full_practice",""
"","bandit","65","288756","0.0-32.0-14.0","59315605","wem/bandit_party_1","A3C0LPVN749UF3","either","8","577","","","","","","","0","1","0","","0.8","0.5","0.5","0.5","0.5","0.8","0.2","0.6","0.2","","","","","","","","","","","","","","72","H","0","img/none_selected.jpg","true","0","full_practice",""
"","bandit","66","290354","0.0-32.0-15.0","59315605","wem/bandit_party_1","A3C0LPVN749UF3","either","8","93","","","","","","","1","0","0","0.8","","0.5","0.5","0.5","0.5","","","","","0.8","0.2","0.6","0.2","","","","","","","","","","72","H","0","img/none_selected.jpg","true","0","full_practice",""
"","bandit","67","292770","0.0-32.0-16.0","59315605","wem/bandit_party_1","A3C0LPVN749UF3","either","8","908","","","","","","","1","0","0","0.8","","0.5","0.5","0.5","0.5","","","","","0.8","0.2","0.6","0.2","","","","","","","","","","72","H","0","img/none_selected.jpg","true","0","full_practice",""
"","bandit","68","295247","0.0-32.0-17.0","59315605","wem/bandit_party_1","A3C0LPVN749UF3","either","8","961","","","","","","","0","0","1","0.8","","0.5","0.5","0.5","0.5","","","","","0.8","0.2","0.6","0.2","","","","","","","","","","72","H","0","img/none_selected.jpg","true","0","full_practice",""
"","bandit","69","298212","0.0-32.0-18.0","59315605","wem/bandit_party_1","A3C0LPVN749UF3","either","8","1452","","","","","","","1","0","0","0.8","","0.5","0.5","0.5","0.5","","","","","0.8","0.2","0.6","0.2","","","","","","","","","","72","H","0","img/none_selected.jpg","true","0","full_practice",""
"","bandit","70","349499","0.0-32.0-19.0","59315605","wem/bandit_party_1","A3C0LPVN749UF3","either","8","49775","","","","","","","0","0","1","0.8","","0.5","0.5","0.5","0.5","","","","","0.8","0.2","0.6","0.2","","","","","","","","","","72","H","0","img/none_selected.jpg","true","0","full_practice",""
"","text","71","360844","0.0-33.0","59315605","wem/bandit_party_1","A3C0LPVN749UF3","either","8","11321","","","32","","","","","","","","","","","","","","","","","","","","","","","","","","","","","","","","","","","","",""
"","text-replacement","72","377837","0.0-34.0","59315605","wem/bandit_party_1","A3C0LPVN749UF3","either","8","15985","","","32","","","","","","","","","","","","","","","","","","","","","","","","","","","","","","","","","","","","",""
"","text-replacement","73","390258","0.0-35.0","59315605","wem/bandit_party_1","A3C0LPVN749UF3","either","8","12413","","","32","","","","","","","","","","","","","","","","","","","","","","","","","","","","","","","","","","","","",""
"","text-replacement","74","398941","0.0-36.0","59315605","wem/bandit_party_1","A3C0LPVN749UF3","either","8","8674","","","32","","","","","","","","","","","","","","","","","","","","","","","","","","","","","","","","","","","","",""
"","text-replacement","75","405544","0.0-37.0","59315605","wem/bandit_party_1","A3C0LPVN749UF3","either","8","6596","","","32","","","","","","","","","","","","","","","","","","","","","","","","","","","","","","","","","","","","",""
"","text-replacement","76","418662","0.0-38.0","59315605","wem/bandit_party_1","A3C0LPVN749UF3","either","8","13114","","","32","","","","","","","","","","","","","","","","","","","","","","","","","","","","","","","","","","","","",""
"","survey-multi-choice-replacement","77","424275","0.0-39.0-0.0","59315605","wem/bandit_party_1","A3C0LPVN749UF3","either","8","5593","","","","","","","","","","","","","","","","","","","","","","","","Money will be added to the pool for <span style='color:blue;'>DEMOCRATS</span>","","","","","","","attn_check","","","","","","","","","0"
"","survey-multi-choice-replacement","78","427363","0.0-40.0-0.0","59315605","wem/bandit_party_1","A3C0LPVN749UF3","either","8","2078","","","","","","","","","","","","","","","","","","","","","","","","Equal amounts of money will be added to the pool for <span style='color:blue;'>DEMOCRATS</span> and subtracted from the pool for <span style='color:red;'>REPUBLICANS</span>","","","","","","","attn_check","","","","","","","","","2"
"","survey-multi-choice-replacement","79","430450","0.0-41.0-0.0","59315605","wem/bandit_party_1","A3C0LPVN749UF3","either","8","2063","","","","","","","","","","","","","","","","","","","","","","","","No money will be added to either pool","","","","","","","attn_check","","","","","","","","","3"
"","bandit","80","434733","0.0-42.0-0.0","59315605","wem/bandit_party_1","A3C0LPVN749UF3","either","8","1763","","","","","","","0","0","1","0.3540548627","","0.8","0.6","0.2","0.4","","","","","0.3540548627","0.2637293772","0.1351790469","0.2928194041","","","","","","","","","","72","H","0","img/none_selected.jpg","","1","main_expt",""
"","bandit","81","436287","0.0-43.0-0.0","59315605","wem/bandit_party_1","A3C0LPVN749UF3","either","8","38","","","","","","","0","0","1","","0.2760013096","0.8","0.6","0.2","0.4","0.3812516843","0.2760013096","0.125602744","0.3040419902","","","","","","","","","","","","","","74","J","1","","","2","main_expt",""
"","bandit","82","437970","0.0-44.0-0.0","59315605","wem/bandit_party_1","A3C0LPVN749UF3","either","8","171","","","","","","","1","0","0","0.3240499928","","0.8","0.6","0.2","0.4","","","","","0.3901316494","0.3240499928","0.09574082279","0.2875251023","","","","","","","","","","74","J","1","","","3","main_expt",""
"","bandit","83","439807","0.0-45.0-0.0","59315605","wem/bandit_party_1","A3C0LPVN749UF3","either","8","314","","","","","","","0","0","1","","0.0913382225","0.8","0.6","0.2","0.4","0.3945399471","0.3510822359","0.0913382225","0.2965567903","","","","","","","","","","","","","","75","K","2","","","4","main_expt",""
"","bandit","84","441676","0.0-46.0-0.0","59315605","wem/bandit_party_1","A3C0LPVN749UF3","either","8","354","","","","","","","0","0","1","","0.2681113314","0.8","0.6","0.2","0.4","0.3997977613","0.3522827721","0.106177601","0.2681113314","","","","","","","","","","","","","","76","L","3","","","5","main_expt",""
"","bandit","85","443368","0.0-47.0-0.0","59315605","wem/bandit_party_1","A3C0LPVN749UF3","either","8","174","","","","","","","0","0","1","","0.382674005","0.8","0.6","0.2","0.4","0.390783501","0.382674005","0.08998955495","0.2330443498","","","","","","","","","","","","","","74","J","1","","","6","main_expt",""
"","bandit","86","445431","0.0-48.0-0.0","59315605","wem/bandit_party_1","A3C0LPVN749UF3","either","8","547","","","","","","","1","0","0","0.3305693427","","0.8","0.6","0.2","0.4","","","","","0.3305693427","0.3998463606","0.1077526668","0.1630509172","","","","","","","","","","72","H","0","img/none_selected.jpg","","7","main_expt",""
"","bandit","87","447192","0.0-49.0-0.0","59315605","wem/bandit_party_1","A3C0LPVN749UF3","either","8","240","","","","","","","0","0","1","0.3056545716","","0.8","0.6","0.2","0.4","","","","","0.3056545716","0.3832029687","0.1243697388","0.2002468685","","","","","","","","","","72","H","0","img/none_selected.jpg","","8","main_expt",""
"","bandit","88","449597","0.0-50.0-0.0","59315605","wem/bandit_party_1","A3C0LPVN749UF3","either","8","891","","","","","","","0","0","1","","0.1698108096","0.8","0.6","0.2","0.4","0.3278889804","0.3796681134","0.1698108096","0.1835034381","","","","","","","","","","","","","","75","K","2","","","9","main_expt",""
"","bandit","89","451399","0.0-51.0-0.0","59315605","wem/bandit_party_1","A3C0LPVN749UF3","either","8","270","","","","","","","0","0","1","","0.1939723001","0.8","0.6","0.2","0.4","0.3137855556","0.3614311416","0.221757114","0.1939723001","","","","","","","","","","","","","","76","L","3","","","10","main_expt",""
"","bandit","90","453220","0.0-52.0-0.0","59315605","wem/bandit_party_1","A3C0LPVN749UF3","either","8","305","","","","","","","0","0","1","0.3253079181","","0.8","0.6","0.2","0.4","","","","","0.3253079181","0.3938737051","0.1961062924","0.1949806013","","","","","","","","","","72","H","0","img/none_selected.jpg","","11","main_expt",""
"","bandit","91","455176","0.0-53.0-0.0","59315605","wem/bandit_party_1","A3C0LPVN749UF3","either","8","437","","","","","","","0","0","1","0.3298150516","","0.8","0.6","0.2","0.4","","","","","0.3298150516","0.3810544723","0.1907056259","0.2587943474","","","","","","","","","","72","H","0","img/none_selected.jpg","","12","main_expt",""
"","bandit","92","456895","0.0-54.0-0.0","59315605","wem/bandit_party_1","A3C0LPVN749UF3","either","8","201","","","","","","","0","0","1","","0.2162865666","0.8","0.6","0.2","0.4","0.3673307406","0.3707046684","0.2162865666","0.3085985727","","","","","","","","","","","","","","75","K","2","","","13","main_expt",""
"","bandit","93","458719","0.0-55.0-0.0","59315605","wem/bandit_party_1","A3C0LPVN749UF3","either","8","301","","","","","","","0","0","1","0.2464992766","","0.8","0.6","0.2","0.4","","","","","0.3679224674","0.3486531997","0.2399362825","0.2464992766","","","","","","","","","","76","L","3","","","14","main_expt",""
"","bandit","94","462302","0.0-56.0-0.0","59315605","wem/bandit_party_1","A3C0LPVN749UF3","either","8","2066","","","","","","","0","0","1","0.2474611475","","0.8","0.6","0.2","0.4","","","","","0.3062507314","0.3263578384","0.1986859052","0.2474611475","","","","","","","","","","76","L","3","","","15","main_expt",""
"","bandit","95","464239","0.0-57.0-0.0","59315605","wem/bandit_party_1","A3C0LPVN749UF3","either","8","417","","","","","","","0","0","1","","0.1865641621","0.8","0.6","0.2","0.4","0.2892976033","0.3514189979","0.1865641621","0.2835538477","","","","","","","","","","","","","","75","K","2","","","16","main_expt",""
"","bandit","96","465968","0.0-58.0-0.0","59315605","wem/bandit_party_1","A3C0LPVN749UF3","either","8","206","","","","","","","1","0","0","0.3532592314","","0.8","0.6","0.2","0.4","","","","","0.2861796528","0.3532592314","0.2035525071","0.3256112075","","","","","","","","","","74","J","1","","","17","main_expt",""
"","bandit","97","467497","0.0-59.0-0.0","59315605","wem/bandit_party_1","A3C0LPVN749UF3","either","8","16","","","","","","","0","0","1","0.3858608091","","0.8","0.6","0.2","0.4","","","","","0.2958570682","0.3858608091","0.2039336531","0.3802227677","","","","","","","","","","74","J","1","","","18","main_expt",""
"","bandit","98","469050","0.0-60.0-0.0","59315605","wem/bandit_party_1","A3C0LPVN749UF3","either","8","38","","","","","","","0","0","1","0.3837638756","","0.8","0.6","0.2","0.4","","","","","0.3353028819","0.3837638756","0.1598579642","0.360566968","","","","","","","","","","74","J","1","","","19","main_expt",""
"","bandit","99","472128","0.0-61.0-0.0","59315605","wem/bandit_party_1","A3C0LPVN749UF3","either","8","1555","","","","","","","0","0","1","0.3139704528","","0.8","0.6","0.2","0.4","","","","","0.3139704528","0.2872100501","0.1437622327","0.3696799013","","","","","","","","","","72","H","0","img/none_selected.jpg","","20","main_expt",""
"","bandit","100","473770","0.0-62.0-0.0","59315605","wem/bandit_party_1","A3C0LPVN749UF3","either","8","116","","","","","","","0","1","0","","0.2975414498","0.8","0.6","0.2","0.4","0.2524707143","0.2975414498","0.07974703335","0.4006907501","","","","","","","","","","","","","","74","J","1","","","21","main_expt",""
"","bandit","101","476236","0.0-63.0-0.0","59315605","wem/bandit_party_1","A3C0LPVN749UF3","either","8","945","","","","","","","0","0","1","","0.2741965999","0.8","0.6","0.2","0.4","0.248326021","0.2741965999","0.1361132429","0.4081217326","","","","","","","","","","","","","","74","J","1","","","22","main_expt",""
"","bandit","102","478410","0.0-64.0-0.0","59315605","wem/bandit_party_1","A3C0LPVN749UF3","either","8","663","","","","","","","0","0","1","","0.2379064449","0.8","0.6","0.2","0.4","0.2937153481","0.2379064449","0.1705973249","0.3740207531","","","","","","","","","","","","","","74","J","1","","","23","main_expt",""
"","bandit","103","481398","0.0-65.0-0.0","59315605","wem/bandit_party_1","A3C0LPVN749UF3","either","8","1464","","","","","","","0","0","1","","0.2078598572","0.8","0.6","0.2","0.4","0.2625315469","0.2078598572","0.1392759225","0.3913756451","","","","","","","","","","","","","","74","J","1","","","24","main_expt",""
"","bandit","104","482921","0.0-66.0-0.0","59315605","wem/bandit_party_1","A3C0LPVN749UF3","either","8","13","","","","","","","0","0","1","","0.1800538527","0.8","0.6","0.2","0.4","0.2405651368","0.2764850733","0.1800538527","0.4100905738","","","","","","","","","","","","","","75","K","2","","","25","main_expt",""
"","bandit","105","484489","0.0-67.0-0.0","59315605","wem/bandit_party_1","A3C0LPVN749UF3","either","8","51","","","","","","","0","0","1","0.2146400533","","0.8","0.6","0.2","0.4","","","","","0.2503350336","0.3080191348","0.2146400533","0.3600668969","","","","","","","","","","75","K","2","","","26","main_expt",""
"","bandit","106","486265","0.0-68.0-0.0","59315605","wem/bandit_party_1","A3C0LPVN749UF3","either","8","259","","","","","","","0","0","1","0.354091838","","0.8","0.6","0.2","0.4","","","","","0.354091838","0.3606197488","0.1948367851","0.3703096079","","","","","","","","","","72","H","0","img/none_selected.jpg","","27","main_expt",""
"","bandit","107","488128","0.0-69.0-0.0","59315605","wem/bandit_party_1","A3C0LPVN749UF3","either","8","352","","","","","","","0","0","1","0.3527269899","","0.8","0.6","0.2","0.4","","","","","0.3419366675","0.3696097963","0.2282666016","0.3527269899","","","","","","","","","","76","L","3","","","28","main_expt",""
"","bandit","108","501220","0.0-70.0-0.0","59315605","wem/bandit_party_1","A3C0LPVN749UF3","either","8","11573","","","","","","","0","0","1","0.361896517","","0.8","0.6","0.2","0.4","","","","","0.361896517","0.3434444954","0.1842618798","0.2854860911","","","","","","","","","","72","H","0","img/none_selected.jpg","","29","main_expt",""
"","bandit","109","503535","0.0-71.0-0.0","59315605","wem/bandit_party_1","A3C0LPVN749UF3","either","8","776","","","","","","","0","0","1","","0.3528183973","0.8","0.6","0.2","0.4","0.3701160785","0.3528183973","0.1930267653","0.2971434158","","","","","","","","","","","","","","74","J","1","","","30","main_expt",""
"","bandit","110","505455","0.0-72.0-0.0","59315605","wem/bandit_party_1","A3C0LPVN749UF3","either","8","401","","","","","","","1","0","0","0.2279264959","","0.8","0.6","0.2","0.4","","","","","0.3602312343","0.3436926249","0.2279264959","0.3192935598","","","","","","","","","","75","K","2","","","31","main_expt",""
"","bandit","111","507196","0.0-73.0-0.0","59315605","wem/bandit_party_1","A3C0LPVN749UF3","either","8","223","","","","","","","0","0","1","","0.1922668126","0.8","0.6","0.2","0.4","0.3550043818","0.3392376576","0.1922668126","0.2910845839","","","","","","","","","","","","","","75","K","2","","","32","main_expt",""
"","bandit","112","509380","0.0-74.0-0.0","59315605","wem/bandit_party_1","A3C0LPVN749UF3","either","8","666","","","","","","","0","1","0","","0.2956883229","0.8","0.6","0.2","0.4","0.3927862597","0.2524106513","0.1503247695","0.2956883229","","","","","","","","","","","","","","76","L","3","","","33","main_expt",""
"","bandit","113","511288","0.0-75.0-0.0","59315605","wem/bandit_party_1","A3C0LPVN749UF3","either","8","390","","","","","","","0","0","1","","0.2918182698","0.8","0.6","0.2","0.4","0.4185963197","0.2378308988","0.1875072744","0.2918182698","","","","","","","","","","","","","","76","L","3","","","34","main_expt",""
"","bandit","114","513136","0.0-76.0-0.0","59315605","wem/bandit_party_1","A3C0LPVN749UF3","either","8","319","","","","","","","0","1","0","","0.2135507624","0.8","0.6","0.2","0.4","0.441983755","0.2683654211","0.2135507624","0.3063909307","","","","","","","","","","","","","","75","K","2","","","35","main_expt",""
"","bandit","115","515093","0.0-77.0-0.0","59315605","wem/bandit_party_1","A3C0LPVN749UF3","either","8","437","","","","","","","0","0","1","","0.2042402853","0.8","0.6","0.2","0.4","0.4352827683","0.2645223933","0.2042402853","0.2820805085","","","","","","","","","","","","","","75","K","2","","","36","main_expt",""
"","bandit","116","518167","0.0-78.0-0.0","59315605","wem/bandit_party_1","A3C0LPVN749UF3","either","8","1551","","","","","","","0","0","1","0.2024605481","","0.8","0.6","0.2","0.4","","","","","0.450520142","0.2360561858","0.2024605481","0.2610370824","","","","","","","","","","75","K","2","","","37","main_expt",""
"","bandit","117","520235","0.0-79.0-0.0","59315605","wem/bandit_party_1","A3C0LPVN749UF3","either","8","542","","","","","","","0","0","1","0.2001865083","","0.8","0.6","0.2","0.4","","","","","0.4681224698","0.2001865083","0.1677713785","0.1896233007","","","","","","","","","","74","J","1","","","38","main_expt",""
"","bandit","118","522795","0.0-80.0-0.0","59315605","wem/bandit_party_1","A3C0LPVN749UF3","either","8","1040","","","","","","","0","0","1","","0.1687915361","0.8","0.6","0.2","0.4","0.4711022053","0.1687915361","0.221779122","0.168851025","","","","","","","","","","","","","","74","J","1","","","39","main_expt",""
"","bandit","119","526596","0.0-81.0-0.0","59315605","wem/bandit_party_1","A3C0LPVN749UF3","either","8","2281","","","","","","","0","0","1","0.1503151413","","0.8","0.6","0.2","0.4","","","","","0.4559447699","0.1503151413","0.2722397218","0.1615787635","","","","","","","","","","74","J","1","","","40","main_expt",""
"","bandit","120","528121","0.0-82.0-0.0","59315605","wem/bandit_party_1","A3C0LPVN749UF3","either","8","2","","","","","","","0","0","1","0.4412687596","","0.8","0.6","0.2","0.4","","","","","0.4412687596","0.08168262283","0.3298230943","0.1472326003","","","","","","","","","","72","H","0","img/none_selected.jpg","","41","main_expt",""
"","bandit","121","530761","0.0-83.0-0.0","59315605","wem/bandit_party_1","A3C0LPVN749UF3","either","8","1122","","","","","","","1","0","0","0.07668629145","","0.8","0.6","0.2","0.4","","","","","0.4457751761","0.07668629145","0.3104885444","0.1533480506","","","","","","","","","","74","J","1","","","42","main_expt",""
"","bandit","122","533360","0.0-84.0-0.0","59315605","wem/bandit_party_1","A3C0LPVN749UF3","either","8","1088","","","","","","","0","0","1","0.07394587158","","0.8","0.6","0.2","0.4","","","","","0.4298378352","0.07394587158","0.3005355489","0.1414351437","","","","","","","","","","74","J","1","","","43","main_expt",""
"","bandit","123","535383","0.0-85.0-0.0","59315605","wem/bandit_party_1","A3C0LPVN749UF3","either","8","505","","","","","","","0","0","1","","0.1192337685","0.8","0.6","0.2","0.4","0.4416915379","0.1192337685","0.2456242138","0.1067646429","","","","","","","","","","","","","","74","J","1","","","44","main_expt",""
"","bandit","124","538828","0.0-86.0-0.0","59315605","wem/bandit_party_1","A3C0LPVN749UF3","either","8","1932","","","","","","","0","0","1","","0.2839901561","0.8","0.6","0.2","0.4","0.3915522423","0.1285724119","0.2839901561","0.1250796286","","","","","","","","","","","","","","75","K","2","","","45","main_expt",""
"","bandit","125","540424","0.0-87.0-0.0","59315605","wem/bandit_party_1","A3C0LPVN749UF3","either","8","78","","","","","","","1","0","0","0.4318427431","","0.8","0.6","0.2","0.4","","","","","0.4318427431","0.1112684106","0.2353621531","0.1927264636","","","","","","","","","","72","H","0","img/none_selected.jpg","","46","main_expt",""
"","bandit","126","542004","0.0-88.0-0.0","59315605","wem/bandit_party_1","A3C0LPVN749UF3","either","8","73","","","","","","","0","0","1","0.4395998441","","0.8","0.6","0.2","0.4","","","","","0.4395998441","0.1207340475","0.2405257196","0.1804488412","","","","","","","","","","72","H","0","img/none_selected.jpg","","47","main_expt",""
"","bandit","127","543862","0.0-89.0-0.0","59315605","wem/bandit_party_1","A3C0LPVN749UF3","either","8","350","","","","","","","0","0","1","0.4630443269","","0.8","0.6","0.2","0.4","","","","","0.4630443269","0.1182533935","0.2629408555","0.168268176","","","","","","","","","","72","H","0","img/none_selected.jpg","","48","main_expt",""
"","bandit","128","546118","0.0-90.0-0.0","59315605","wem/bandit_party_1","A3C0LPVN749UF3","either","8","729","","","","","","","0","0","1","0.4794982466","","0.8","0.6","0.2","0.4","","","","","0.4794982466","0.1460801474","0.2902453213","0.1466838001","","","","","","","","","","72","H","0","img/none_selected.jpg","","49","main_expt",""
"","bandit","129","549049","0.0-91.0-0.0","59315605","wem/bandit_party_1","A3C0LPVN749UF3","either","8","1413","","","","","","","1","0","0","0.4562783041","","0.8","0.6","0.2","0.4","","","","","0.4562783041","0.1765155983","0.3033715012","0.1336340117","","","","","","","","","","72","H","0","img/none_selected.jpg","","50","main_expt",""
"","bandit","130","552054","0.0-92.0-0.0","59315605","wem/bandit_party_1","A3C0LPVN749UF3","either","8","1482","","","","","","","1","0","0","0.4515646323","","0.8","0.6","0.2","0.4","","","","","0.4515646323","0.1614266163","0.3536831403","0.1067821754","","","","","","","","","","72","H","0","img/none_selected.jpg","","51","main_expt",""
"","bandit","131","559186","0.0-93.0-0.0","59315605","wem/bandit_party_1","A3C0LPVN749UF3","either","8","5622","","","","","","","1","0","0","0.4344137529","","0.8","0.6","0.2","0.4","","","","","0.4344137529","0.1938643747","0.3058792917","0.07294577227","","","","","","","","","","72","H","0","img/none_selected.jpg","","52","main_expt",""
"","bandit","132","562094","0.0-94.0-0.0","59315605","wem/bandit_party_1","A3C0LPVN749UF3","either","8","1387","","","","","","","0","0","1","0.4421766306","","0.8","0.6","0.2","0.4","","","","","0.4421766306","0.1721886996","0.3466820038","0.07676454597","","","","","","","","","","72","H","0","img/none_selected.jpg","","53","main_expt",""
"","bandit","133","563829","0.0-95.0-0.0","59315605","wem/bandit_party_1","A3C0LPVN749UF3","either","8","214","","","","","","","0","0","1","0.1542880765","","0.8","0.6","0.2","0.4","","","","","0.4591875032","0.1542880765","0.3159173384","0.07707135067","","","","","","","","","","74","J","1","","","54","main_expt",""
"","bandit","134","565414","0.0-96.0-0.0","59315605","wem/bandit_party_1","A3C0LPVN749UF3","either","8","69","","","","","","","0","0","1","","0.3205246683","0.8","0.6","0.2","0.4","0.4455250987","0.2155598061","0.3205246683","0.08227932488","","","","","","","","","","","","","","75","K","2","","","55","main_expt",""
"","bandit","135","567323","0.0-97.0-0.0","59315605","wem/bandit_party_1","A3C0LPVN749UF3","either","8","390","","","","","","","0","0","1","0.4200701886","","0.8","0.6","0.2","0.4","","","","","0.4200701886","0.199350645","0.3067659888","0.09013031375","","","","","","","","","","72","H","0","img/none_selected.jpg","","56","main_expt",""
"","bandit","136","569217","0.0-98.0-0.0","59315605","wem/bandit_party_1","A3C0LPVN749UF3","either","8","372","","","","","","","1","0","0","0.1991981904","","0.8","0.6","0.2","0.4","","","","","0.3635567377","0.1991981904","0.3786279545","0.106866739","","","","","","","","","","74","J","1","","","57","main_expt",""
"","bandit","137","571001","0.0-99.0-0.0","59315605","wem/bandit_party_1","A3C0LPVN749UF3","either","8","272","","","","","","","0","0","1","0.1307276253","","0.8","0.6","0.2","0.4","","","","","0.3647217687","0.1307276253","0.3796022377","0.0915584437","","","","","","","","","","74","J","1","","","58","main_expt",""
"","bandit","138","573515","0.0-100.0-0.0","59315605","wem/bandit_party_1","A3C0LPVN749UF3","either","8","1002","","","","","","","0","0","1","0.1540949786","","0.8","0.6","0.2","0.4","","","","","0.3975499765","0.1540949786","0.3570845549","0.1036540812","","","","","","","","","","74","J","1","","","59","main_expt",""
"","bandit","139","576233","0.0-101.0-0.0","59315605","wem/bandit_party_1","A3C0LPVN749UF3","either","8","1207","","","","","","","0","0","1","0.376383165","","0.8","0.6","0.2","0.4","","","","","0.376383165","0.1187181044","0.398525789","0.07948280662","","","","","","","","","","72","H","0","img/none_selected.jpg","","60","main_expt",""
"","bandit","140","578200","0.0-102.0-0.0","59315605","wem/bandit_party_1","A3C0LPVN749UF3","either","8","450","","","","","","","0","0","1","0.3384437455","","0.8","0.6","0.2","0.4","","","","","0.3384437455","0.1734870435","0.380986593","0.0685056185","","","","","","","","","","72","H","0","img/none_selected.jpg","","61","main_expt",""
"","bandit","141","580210","0.0-103.0-0.0","59315605","wem/bandit_party_1","A3C0LPVN749UF3","either","8","495","","","","","","","0","0","1","0.3086389155","","0.8","0.6","0.2","0.4","","","","","0.3086389155","0.2056999461","0.3928002855","0.04196312691","","","","","","","","","","72","H","0","img/none_selected.jpg","","62","main_expt",""
"","bandit","142","582122","0.0-104.0-0.0","59315605","wem/bandit_party_1","A3C0LPVN749UF3","either","8","399","","","","","","","0","1","0","","0.4097838671","0.8","0.6","0.2","0.4","0.3098998428","0.2421495796","0.4097838671","0.06524357318","","","","","","","","","","","","","","75","K","2","","","63","main_expt",""
"","bandit","143","583743","0.0-105.0-0.0","59315605","wem/bandit_party_1","A3C0LPVN749UF3","either","8","102","","","","","","","0","1","0","","0.3942475769","0.8","0.6","0.2","0.4","0.2859800092","0.2678986655","0.3942475769","0.04599317762","","","","","","","","","","","","","","75","K","2","","","64","main_expt",""
"","bandit","144","586116","0.0-106.0-0.0","59315605","wem/bandit_party_1","A3C0LPVN749UF3","either","8","850","","","","","","","0","0","1","0.3756823908","","0.8","0.6","0.2","0.4","","","","","0.2780623804","0.2780805564","0.3756823908","0.04738713632","","","","","","","","","","75","K","2","","","65","main_expt",""
"","bandit","145","587889","0.0-107.0-0.0","59315605","wem/bandit_party_1","A3C0LPVN749UF3","either","8","251","","","","","","","0","0","1","","0.3780323226","0.8","0.6","0.2","0.4","0.2740889186","0.2923516192","0.3780323226","0.02873144913","","","","","","","","","","","","","","75","K","2","","","66","main_expt",""
"","bandit","146","590083","0.0-108.0-0.0","59315605","wem/bandit_party_1","A3C0LPVN749UF3","either","8","669","","","","","","","0","0","1","0.0355516853","","0.8","0.6","0.2","0.4","","","","","0.3122756929","0.3481747094","0.382091886","0.0355516853","","","","","","","","","","76","L","3","","","67","main_expt",""
"","bandit","147","592637","0.0-109.0-0.0","59315605","wem/bandit_party_1","A3C0LPVN749UF3","either","8","1030","","","","","","","0","0","1","","0.04483006882","0.8","0.6","0.2","0.4","0.3004294993","0.3540590834","0.4080562953","0.04483006882","","","","","","","","","","","","","","76","L","3","","","68","main_expt",""
"","bandit","148","594220","0.0-110.0-0.0","59315605","wem/bandit_party_1","A3C0LPVN749UF3","either","8","65","","","","","","","0","1","0","","0.3312842332","0.8","0.6","0.2","0.4","0.3312842332","0.3348318208","0.419826639","0.04300650393","","","","","","","","","","","","","","72","H","0","img/none_selected.jpg","","69","main_expt",""
"","bandit","149","596473","0.0-111.0-0.0","59315605","wem/bandit_party_1","A3C0LPVN749UF3","either","8","741","","","","","","","0","0","1","0.2362018798","","0.8","0.6","0.2","0.4","","","","","0.2362018798","0.3844983113","0.3889643965","0.03960880855","","","","","","","","","","72","H","0","img/none_selected.jpg","","70","main_expt",""
"","bandit","150","598416","0.0-112.0-0.0","59315605","wem/bandit_party_1","A3C0LPVN749UF3","either","8","422","","","","","","","0","0","1","0.3753843975","","0.8","0.6","0.2","0.4","","","","","0.1838323472","0.3753843975","0.3492343966","0.02401392238","","","","","","","","","","74","J","1","","","71","main_expt",""
"","bandit","151","600414","0.0-113.0-0.0","59315605","wem/bandit_party_1","A3C0LPVN749UF3","either","8","478","","","","","","","0","0","1","0.1749810972","","0.8","0.6","0.2","0.4","","","","","0.1749810972","0.3861429343","0.3502155883","0.008756159955","","","","","","","","","","72","H","0","img/none_selected.jpg","","72","main_expt",""
"","bandit","152","602276","0.0-114.0-0.0","59315605","wem/bandit_party_1","A3C0LPVN749UF3","either","8","344","","","","","","","0","0","1","","0.3568691787","0.8","0.6","0.2","0.4","0.1664097112","0.3978436086","0.3568691787","0.006257651783","","","","","","","","","","","","","","75","K","2","","","73","main_expt",""
"","bandit","153","604249","0.0-115.0-0.0","59315605","wem/bandit_party_1","A3C0LPVN749UF3","either","8","461","","","","","","","0","0","1","0.2001176207","","0.8","0.6","0.2","0.4","","","","","0.2001176207","0.3847979518","0.3303653739","0.004732084297","","","","","","","","","","72","H","0","img/none_selected.jpg","","74","main_expt",""
"","bandit","154","605862","0.0-116.0-0.0","59315605","wem/bandit_party_1","A3C0LPVN749UF3","either","8","90","","","","","","","0","0","1","","0.1848717924","0.8","0.6","0.2","0.4","0.1848717924","0.3974319157","0.3353283381","0.006967558871","","","","","","","","","","","","","","72","H","0","img/none_selected.jpg","","75","main_expt",""
"","bandit","155","607743","0.0-117.0-0.0","59315605","wem/bandit_party_1","A3C0LPVN749UF3","either","8","358","","","","","","","0","0","1","0.3987985884","","0.8","0.6","0.2","0.4","","","","","0.1510178238","0.3987985884","0.3009524994","0.004525860487","","","","","","","","","","74","J","1","","","76","main_expt",""
"","bandit","156","609332","0.0-118.0-0.0","59315605","wem/bandit_party_1","A3C0LPVN749UF3","either","8","66","","","","","","","0","1","0","","0.4127312768","0.8","0.6","0.2","0.4","0.2089633591","0.4127312768","0.3316028908","0.007245535115","","","","","","","","","","","","","","74","J","1","","","77","main_expt",""
"","bandit","157","611739","0.0-119.0-0.0","59315605","wem/bandit_party_1","A3C0LPVN749UF3","either","8","886","","","","","","","0","1","0","","0.4257675477","0.8","0.6","0.2","0.4","0.2285147345","0.4257675477","0.3571024926","0.00483057751","","","","","","","","","","","","","","74","J","1","","","78","main_expt",""
"","bandit","158","613404","0.0-120.0-0.0","59315605","wem/bandit_party_1","A3C0LPVN749UF3","either","8","143","","","","","","","1","0","0","0.4331167668","","0.8","0.6","0.2","0.4","","","","","0.2246975601","0.4331167668","0.3542776451","0.005956317848","","","","","","","","","","74","J","1","","","79","main_expt",""
"","bandit","159","615010","0.0-121.0-0.0","59315605","wem/bandit_party_1","A3C0LPVN749UF3","either","8","87","","","","","","","1","0","0","0.4294395537","","0.8","0.6","0.2","0.4","","","","","0.1878766281","0.4294395537","0.3201174307","0.0076590047","","","","","","","","","","74","J","1","","","80","main_expt",""
"","bandit","160","616677","0.0-122.0-0.0","59315605","wem/bandit_party_1","A3C0LPVN749UF3","either","8","155","","","","","","","0","1","0","","0.4234249918","0.8","0.6","0.2","0.4","0.2436254364","0.4234249918","0.3503003334","0.009115568074","","","","","","","","","","","","","","74","J","1","","","81","main_expt",""
"","bandit","161","618241","0.0-123.0-0.0","59315605","wem/bandit_party_1","A3C0LPVN749UF3","either","8","43","","","","","","","1","0","0","0.3956977209","","0.8","0.6","0.2","0.4","","","","","0.2627531714","0.3956977209","0.3509066846","0.01382977225","","","","","","","","","","74","J","1","","","82","main_expt",""
"","bandit","162","619819","0.0-124.0-0.0","59315605","wem/bandit_party_1","A3C0LPVN749UF3","either","8","67","","","","","","","0","1","0","","0.4248650233","0.8","0.6","0.2","0.4","0.2672212524","0.4248650233","0.3951868033","0.01500629599","","","","","","","","","","","","","","74","J","1","","","83","main_expt",""
"","bandit","163","621354","0.0-125.0-0.0","59315605","wem/bandit_party_1","A3C0LPVN749UF3","either","8","14","","","","","","","1","0","0","0.4196907627","","0.8","0.6","0.2","0.4","","","","","0.2817484998","0.4196907627","0.4131477378","0.02310127573","","","","","","","","","","74","J","1","","","84","main_expt",""
"","bandit","164","623019","0.0-126.0-0.0","59315605","wem/bandit_party_1","A3C0LPVN749UF3","either","8","141","","","","","","","0","1","0","","0.435633498","0.8","0.6","0.2","0.4","0.3074775227","0.435633498","0.3889697292","0.02639065846","","","","","","","","","","","","","","74","J","1","","","85","main_expt",""
"","bandit","165","624598","0.0-127.0-0.0","59315605","wem/bandit_party_1","A3C0LPVN749UF3","either","8","53","","","","","","","0","0","1","","0.4322222521","0.8","0.6","0.2","0.4","0.2717847629","0.4322222521","0.3885636443","0.01746441632","","","","","","","","","","","","","","74","J","1","","","86","main_expt",""
"","bandit","166","626188","0.0-128.0-0.0","59315605","wem/bandit_party_1","A3C0LPVN749UF3","either","8","67","","","","","","","0","0","1","","0.4476119451","0.8","0.6","0.2","0.4","0.2183858348","0.4476119451","0.4028282504","0.01256144444","","","","","","","","","","","","","","74","J","1","","","87","main_expt",""
"","bandit","167","627802","0.0-129.0-0.0","59315605","wem/bandit_party_1","A3C0LPVN749UF3","either","8","90","","","","","","","1","0","0","0.4073123198","","0.8","0.6","0.2","0.4","","","","","0.2054961256","0.4073123198","0.4306890759","0.01178158386","","","","","","","","","","74","J","1","","","88","main_expt",""
"","bandit","168","645432","0.0-130.0-0.0","59315605","wem/bandit_party_1","A3C0LPVN749UF3","either","8","16107","","","","","","","0","0","1","0.3862301724","","0.8","0.6","0.2","0.4","","","","","0.1452714398","0.3862301724","0.4103738654","0.008722555822","","","","","","","","","","74","J","1","","","89","main_expt",""
"","bandit","169","647151","0.0-131.0-0.0","59315605","wem/bandit_party_1","A3C0LPVN749UF3","either","8","205","","","","","","","1","0","0","0.3596745144","","0.8","0.6","0.2","0.4","","","","","0.1077779513","0.3596745144","0.3980827974","0.008232471735","","","","","","","","","","74","J","1","","","90","main_expt",""
"","bandit","170","649626","0.0-132.0-0.0","59315605","wem/bandit_party_1","A3C0LPVN749UF3","either","8","942","","","","","","","0","0","1","0.3082854458","","0.8","0.6","0.2","0.4","","","","","0.1308407065","0.3082854458","0.4040531024","0.01249180717","","","","","","","","","","74","J","1","","","91","main_expt",""
"","bandit","171","657883","0.0-133.0-0.0","59315605","wem/bandit_party_1","A3C0LPVN749UF3","either","8","6748","","","","","","","0","0","1","","0.312225492","0.8","0.6","0.2","0.4","0.1652322036","0.312225492","0.3462944796","0.01470986316","","","","","","","","","","","","","","74","J","1","","","92","main_expt",""
"","bandit","172","660186","0.0-134.0-0.0","59315605","wem/bandit_party_1","A3C0LPVN749UF3","either","8","787","","","","","","","0","0","1","","0.3671658277","0.8","0.6","0.2","0.4","0.1344678182","0.3671658277","0.3411451966","0.02655281846","","","","","","","","","","","","","","74","J","1","","","93","main_expt",""
"","bandit","173","663623","0.0-135.0-0.0","59315605","wem/bandit_party_1","A3C0LPVN749UF3","either","8","1914","","","","","","","0","0","1","0.3401731108","","0.8","0.6","0.2","0.4","","","","","0.1301314301","0.3401731108","0.3384154489","0.02575246025","","","","","","","","","","74","J","1","","","94","main_expt",""
"","bandit","174","666639","0.0-136.0-0.0","59315605","wem/bandit_party_1","A3C0LPVN749UF3","either","8","1491","","","","","","","0","0","1","","0.3413923724","0.8","0.6","0.2","0.4","0.1746055711","0.3413923724","0.3126988266","0.02262355665","","","","","","","","","","","","","","74","J","1","","","95","main_expt",""
"","bandit","175","668574","0.0-137.0-0.0","59315605","wem/bandit_party_1","A3C0LPVN749UF3","either","8","412","","","","","","","0","0","1","0.1994244555","","0.8","0.6","0.2","0.4","","","","","0.1994244555","0.3570420485","0.3800019137","0.02047181149","","","","","","","","","","72","H","0","img/none_selected.jpg","","96","main_expt",""
"","bandit","176","670418","0.0-138.0-0.0","59315605","wem/bandit_party_1","A3C0LPVN749UF3","either","8","332","","","","","","","0","0","1","0.1834602947","","0.8","0.6","0.2","0.4","","","","","0.1834602947","0.3435474977","0.3328121005","0.0207754381","","","","","","","","","","72","H","0","img/none_selected.jpg","","97","main_expt",""
"","bandit","177","672560","0.0-139.0-0.0","59315605","wem/bandit_party_1","A3C0LPVN749UF3","either","8","614","","","","","","","0","0","1","0.332228596","","0.8","0.6","0.2","0.4","","","","","0.1719221531","0.3614714926","0.332228596","0.02955834597","","","","","","","","","","75","K","2","","","98","main_expt",""
"","bandit","178","674464","0.0-140.0-0.0","59315605","wem/bandit_party_1","A3C0LPVN749UF3","either","8","375","","","","","","","0","1","0","","0.2843854285","0.8","0.6","0.2","0.4","0.1183399241","0.3176405447","0.2843854285","0.0383131093","","","","","","","","","","","","","","75","K","2","","","99","main_expt",""
"","bandit","179","676724","0.0-141.0-0.0","59315605","wem/bandit_party_1","A3C0LPVN749UF3","either","8","739","","","","","","","0","0","1","","0.309751149","0.8","0.6","0.2","0.4","0.1558635017","0.3586553183","0.309751149","0.03580757471","","","","","","","","","","","","","","75","K","2","","","100","main_expt",""
"","bandit","180","678439","0.0-142.0-0.0","59315605","wem/bandit_party_1","A3C0LPVN749UF3","either","8","192","","","","","","","0","1","0","","0.2993195944","0.8","0.6","0.2","0.4","0.1389665978","0.2951503345","0.2993195944","0.04899620691","","","","","","","","","","","","","","75","K","2","","","101","main_expt",""
"","bandit","181","680547","0.0-143.0-0.0","59315605","wem/bandit_party_1","A3C0LPVN749UF3","either","8","585","","","","","","","0","0","1","","0.3551890872","0.8","0.6","0.2","0.4","0.1377203561","0.2998391809","0.3551890872","0.08055650644","","","","","","","","","","","","","","75","K","2","","","102","main_expt",""
"","bandit","182","685058","0.0-144.0-0.0","59315605","wem/bandit_party_1","A3C0LPVN749UF3","either","8","2986","","","","","","","0","0","1","","0.3148404956","0.8","0.6","0.2","0.4","0.1285548106","0.2791823827","0.3148404956","0.1040447627","","","","","","","","","","","","","","75","K","2","","","103","main_expt",""
"","bandit","183","688942","0.0-145.0-0.0","59315605","wem/bandit_party_1","A3C0LPVN749UF3","either","8","2361","","","","","","","0","0","1","0.3286912191","","0.8","0.6","0.2","0.4","","","","","0.1555523735","0.3382769334","0.3286912191","0.1143547335","","","","","","","","","","75","K","2","","","104","main_expt",""
"","bandit","184","690777","0.0-146.0-0.0","59315605","wem/bandit_party_1","A3C0LPVN749UF3","either","8","311","","","","","","","0","0","1","","0.298340497","0.8","0.6","0.2","0.4","0.1775592141","0.3339697125","0.298340497","0.1487676438","","","","","","","","","","","","","","75","K","2","","","105","main_expt",""
"","bandit","185","692752","0.0-147.0-0.0","59315605","wem/bandit_party_1","A3C0LPVN749UF3","either","8","451","","","","","","","0","0","1","","0.152088545","0.8","0.6","0.2","0.4","0.2263451353","0.3124129253","0.3504464386","0.152088545","","","","","","","","","","","","","","76","L","3","","","106","main_expt",""
"","bandit","186","694706","0.0-148.0-0.0","59315605","wem/bandit_party_1","A3C0LPVN749UF3","either","8","428","","","","","","","0","1","0","","0.2406734145","0.8","0.6","0.2","0.4","0.1679769802","0.3400683723","0.3510410077","0.2406734145","","","","","","","","","","","","","","76","L","3","","","107","main_expt",""
"","bandit","187","696673","0.0-149.0-0.0","59315605","wem/bandit_party_1","A3C0LPVN749UF3","either","8","443","","","","","","","0","0","1","0.3048040024","","0.8","0.6","0.2","0.4","","","","","0.1999870147","0.3557340834","0.3282766846","0.3048040024","","","","","","","","","","76","L","3","","","108","main_expt",""
"","bandit","188","698352","0.0-150.0-0.0","59315605","wem/bandit_party_1","A3C0LPVN749UF3","either","8","156","","","","","","","0","1","0","","0.3418503096","0.8","0.6","0.2","0.4","0.208992856","0.3846418901","0.3561186451","0.3418503096","","","","","","","","","","","","","","76","L","3","","","109","main_expt",""
"","bandit","189","700040","0.0-151.0-0.0","59315605","wem/bandit_party_1","A3C0LPVN749UF3","either","8","165","","","","","","","0","0","1","","0.3198501315","0.8","0.6","0.2","0.4","0.1716040471","0.4057962062","0.3576445865","0.3198501315","","","","","","","","","","","","","","76","L","3","","","110","main_expt",""
"","bandit","190","701874","0.0-152.0-0.0","59315605","wem/bandit_party_1","A3C0LPVN749UF3","either","8","321","","","","","","","0","0","1","","0.3681534847","0.8","0.6","0.2","0.4","0.08984071331","0.3692451483","0.3377543854","0.3681534847","","","","","","","","","","","","","","76","L","3","","","111","main_expt",""
"","bandit","191","704378","0.0-153.0-0.0","59315605","wem/bandit_party_1","A3C0LPVN749UF3","either","8","973","","","","","","","0","0","1","","0.3757830796","0.8","0.6","0.2","0.4","0.1243463141","0.3577317973","0.286234052","0.3757830796","","","","","","","","","","","","","","76","L","3","","","112","main_expt",""
"","bandit","192","706299","0.0-154.0-0.0","59315605","wem/bandit_party_1","A3C0LPVN749UF3","either","8","393","","","","","","","0","1","0","","0.1932674395","0.8","0.6","0.2","0.4","0.1433440675","0.3328808086","0.1932674395","0.3838999828","","","","","","","","","","","","","","75","K","2","","","113","main_expt",""
"","bandit","193","708559","0.0-155.0-0.0","59315605","wem/bandit_party_1","A3C0LPVN749UF3","either","8","736","","","","","","","0","0","1","","0.2403040534","0.8","0.6","0.2","0.4","0.1510662198","0.3416979579","0.2403040534","0.4157938717","","","","","","","","","","","","","","75","K","2","","","114","main_expt",""
"","bandit","194","712493","0.0-156.0-0.0","59315605","wem/bandit_party_1","A3C0LPVN749UF3","either","8","2407","","","","","","","0","0","1","","0.254937398","0.8","0.6","0.2","0.4","0.09845245139","0.3377137281","0.254937398","0.4055870595","","","","","","","","","","","","","","75","K","2","","","115","main_expt",""
"","bandit","195","718070","0.0-157.0-0.0","59315605","wem/bandit_party_1","A3C0LPVN749UF3","either","8","4051","","","","","","","0","1","0","","0.2605063941","0.8","0.6","0.2","0.4","0.107393795","0.3039448029","0.2605063941","0.4161015278","","","","","","","","","","","","","","75","K","2","","","116","main_expt",""
"","bandit","196","722452","0.0-158.0-0.0","59315605","wem/bandit_party_1","A3C0LPVN749UF3","either","8","2855","","","","","","","0","0","1","","0.2161328783","0.8","0.6","0.2","0.4","0.07879800556","0.2974336912","0.2161328783","0.414877819","","","","","","","","","","","","","","75","K","2","","","117","main_expt",""
"","bandit","197","726638","0.0-159.0-0.0","59315605","wem/bandit_party_1","A3C0LPVN749UF3","either","8","2660","","","","","","","0","0","1","","0.1931197841","0.8","0.6","0.2","0.4","0.08383735875","0.2651867246","0.1931197841","0.3968259953","","","","","","","","","","","","","","75","K","2","","","118","main_expt",""
"","bandit","198","728175","0.0-160.0-0.0","59315605","wem/bandit_party_1","A3C0LPVN749UF3","either","8","8","","","","","","","0","0","1","","0.3131666206","0.8","0.6","0.2","0.4","0.1392474383","0.3131666206","0.1638183597","0.4198241006","","","","","","","","","","","","","","74","J","1","","","119","main_expt",""
"","bandit","199","734830","0.0-161.0-0.0","59315605","wem/bandit_party_1","A3C0LPVN749UF3","either","8","5126","","","","","","","0","0","1","0.1893282748","","0.8","0.6","0.2","0.4","","","","","0.1649404926","0.358829095","0.1893282748","0.4286088018","","","","","","","","","","75","K","2","","","120","main_expt",""
"","bandit","200","740845","0.0-162.0-0.0","59315605","wem/bandit_party_1","A3C0LPVN749UF3","either","8","4490","","","","","","","0","0","1","0.2290368179","","0.8","0.6","0.2","0.4","","","","","0.1764152442","0.3189860171","0.2290368179","0.4253829576","","","","","","","","","","75","K","2","","","121","main_expt",""
"","bandit","201","757224","0.0-163.0-0.0","59315605","wem/bandit_party_1","A3C0LPVN749UF3","either","8","14857","","","","","","","0","0","1","0.2445441383","","0.8","0.6","0.2","0.4","","","","","0.2092397698","0.3011672979","0.2445441383","0.4235175979","","","","","","","","","","75","K","2","","","122","main_expt",""
"","bandit","202","759280","0.0-164.0-0.0","59315605","wem/bandit_party_1","A3C0LPVN749UF3","either","8","529","","","","","","","0","0","1","0.2091075756","","0.8","0.6","0.2","0.4","","","","","0.1884058447","0.3037948063","0.2091075756","0.4182090072","","","","","","","","","","75","K","2","","","123","main_expt",""
"","bandit","203","760888","0.0-165.0-0.0","59315605","wem/bandit_party_1","A3C0LPVN749UF3","either","8","82","","","","","","","0","0","1","0.2216111921","","0.8","0.6","0.2","0.4","","","","","0.1876417206","0.2446200253","0.2216111921","0.4356016004","","","","","","","","","","75","K","2","","","124","main_expt",""
"","bandit","204","762711","0.0-166.0-0.0","59315605","wem/bandit_party_1","A3C0LPVN749UF3","either","8","297","","","","","","","0","0","1","","0.1622020501","0.8","0.6","0.2","0.4","0.1890564589","0.2464628806","0.1622020501","0.403953628","","","","","","","","","","","","","","75","K","2","","","125","main_expt",""
"","bandit","205","765030","0.0-167.0-0.0","59315605","wem/bandit_party_1","A3C0LPVN749UF3","either","8","794","","","","","","","0","0","1","0.173533554","","0.8","0.6","0.2","0.4","","","","","0.1659850756","0.281169445","0.173533554","0.4020675328","","","","","","","","","","75","K","2","","","126","main_expt",""
"","bandit","206","766717","0.0-168.0-0.0","59315605","wem/bandit_party_1","A3C0LPVN749UF3","either","8","172","","","","","","","1","0","0","0.290080064","","0.8","0.6","0.2","0.4","","","","","0.2006343121","0.290080064","0.189829559","0.338443572","","","","","","","","","","74","J","1","","","127","main_expt",""
"","bandit","207","768660","0.0-169.0-0.0","59315605","wem/bandit_party_1","A3C0LPVN749UF3","either","8","420","","","","","","","0","0","1","0.3280989756","","0.8","0.6","0.2","0.4","","","","","0.2637444583","0.3280989756","0.1764696366","0.323123489","","","","","","","","","","74","J","1","","","128","main_expt",""
"","bandit","208","770277","0.0-170.0-0.0","59315605","wem/bandit_party_1","A3C0LPVN749UF3","either","8","99","","","","","","","0","0","1","0.2783394686","","0.8","0.6","0.2","0.4","","","","","0.2783394686","0.3052704822","0.172709194","0.3615310162","","","","","","","","","","72","H","0","img/none_selected.jpg","","129","main_expt",""
"","bandit","209","771940","0.0-171.0-0.0","59315605","wem/bandit_party_1","A3C0LPVN749UF3","either","8","134","","","","","","","1","0","0","0.314718742","","0.8","0.6","0.2","0.4","","","","","0.2674474002","0.314718742","0.1407460215","0.3667448715","","","","","","","","","","74","J","1","","","130","main_expt",""
"","bandit","210","775420","0.0-172.0-0.0","59315605","wem/bandit_party_1","A3C0LPVN749UF3","either","8","1963","","","","","","","0","0","1","0.2492347367","","0.8","0.6","0.2","0.4","","","","","0.2122920843","0.2492347367","0.143826562","0.341745941","","","","","","","","","","74","J","1","","","131","main_expt",""
"","bandit","211","778078","0.0-173.0-0.0","59315605","wem/bandit_party_1","A3C0LPVN749UF3","either","8","1128","","","","","","","0","1","0","","0.2495736985","0.8","0.6","0.2","0.4","0.1969346152","0.2495736985","0.1862992663","0.2615325727","","","","","","","","","","","","","","74","J","1","","","132","main_expt",""
"","bandit","212","781531","0.0-174.0-0.0","59315605","wem/bandit_party_1","A3C0LPVN749UF3","either","8","1927","","","","","","","0","0","1","","0.2487120015","0.8","0.6","0.2","0.4","0.1390835973","0.2487120015","0.185648564","0.27905624","","","","","","","","","","","","","","74","J","1","","","133","main_expt",""
"","bandit","213","784979","0.0-175.0-0.0","59315605","wem/bandit_party_1","A3C0LPVN749UF3","either","8","1906","","","","","","","0","0","1","","0.3239420422","0.8","0.6","0.2","0.4","0.1437640715","0.3239420422","0.2002276213","0.2751163123","","","","","","","","","","","","","","74","J","1","","","134","main_expt",""
"","bandit","214","786588","0.0-176.0-0.0","59315605","wem/bandit_party_1","A3C0LPVN749UF3","either","8","88","","","","","","","0","0","1","0.1175999949","","0.8","0.6","0.2","0.4","","","","","0.1175999949","0.3903525049","0.2474552851","0.2586507773","","","","","","","","","","72","H","0","img/none_selected.jpg","","135","main_expt",""
"","bandit","215","788465","0.0-177.0-0.0","59315605","wem/bandit_party_1","A3C0LPVN749UF3","either","8","348","","","","","","","0","0","1","0.2454982057","","0.8","0.6","0.2","0.4","","","","","0.1108499649","0.3703049055","0.2454982057","0.2385277364","","","","","","","","","","75","K","2","","","136","main_expt",""
"","bandit","216","790210","0.0-178.0-0.0","59315605","wem/bandit_party_1","A3C0LPVN749UF3","either","8","219","","","","","","","0","0","1","","0.1935782534","0.8","0.6","0.2","0.4","0.1208727618","0.3657944308","0.2708690816","0.1935782534","","","","","","","","","","","","","","76","L","3","","","137","main_expt",""
"","bandit","217","792274","0.0-179.0-0.0","59315605","wem/bandit_party_1","A3C0LPVN749UF3","either","8","546","","","","","","","0","0","1","","0.14087624","0.8","0.6","0.2","0.4","0.1098805161","0.3452946514","0.2219039101","0.14087624","","","","","","","","","","","","","","76","L","3","","","138","main_expt",""
"","bandit","218","794263","0.0-180.0-0.0","59315605","wem/bandit_party_1","A3C0LPVN749UF3","either","8","479","","","","","","","0","0","1","","0.2485571535","0.8","0.6","0.2","0.4","0.1359731218","0.3225052804","0.2485571535","0.1340930794","","","","","","","","","","","","","","75","K","2","","","139","main_expt",""
"","bandit","219","796137","0.0-181.0-0.0","59315605","wem/bandit_party_1","A3C0LPVN749UF3","either","8","363","","","","","","","0","0","1","","0.2997250911","0.8","0.6","0.2","0.4","0.1419248406","0.2997250911","0.2605640439","0.1170750994","","","","","","","","","","","","","","74","J","1","","","140","main_expt",""
"","bandit","220","798018","0.0-182.0-0.0","59315605","wem/bandit_party_1","A3C0LPVN749UF3","either","8","353","","","","","","","0","0","1","0.1269577117","","0.8","0.6","0.2","0.4","","","","","0.1269577117","0.311933389","0.2260680923","0.1316830279","","","","","","","","","","72","H","0","img/none_selected.jpg","","141","main_expt",""
"","bandit","221","799851","0.0-183.0-0.0","59315605","wem/bandit_party_1","A3C0LPVN749UF3","either","8","309","","","","","","","0","0","1","0.1073819056","","0.8","0.6","0.2","0.4","","","","","0.1073819056","0.3442568425","0.2354846983","0.09490366034","","","","","","","","","","72","H","0","img/none_selected.jpg","","142","main_expt",""
"","bandit","222","802034","0.0-184.0-0.0","59315605","wem/bandit_party_1","A3C0LPVN749UF3","either","8","646","","","","","","","0","0","1","0.1152767294","","0.8","0.6","0.2","0.4","","","","","0.1152767294","0.3117203045","0.2089358464","0.1246024154","","","","","","","","","","72","H","0","img/none_selected.jpg","","143","main_expt",""
"","bandit","223","804001","0.0-185.0-0.0","59315605","wem/bandit_party_1","A3C0LPVN749UF3","either","8","450","","","","","","","0","0","1","","0.1317444946","0.8","0.6","0.2","0.4","0.1317444946","0.3080771123","0.1844607625","0.1179874238","","","","","","","","","","","","","","72","H","0","img/none_selected.jpg","","144","main_expt",""
"","bandit","224","805631","0.0-186.0-0.0","59315605","wem/bandit_party_1","A3C0LPVN749UF3","either","8","115","","","","","","","0","0","1","0.3146876691","","0.8","0.6","0.2","0.4","","","","","0.1058600218","0.3146876691","0.1940384654","0.1211842963","","","","","","","","","","74","J","1","","","145","main_expt",""
"","bandit","225","807877","0.0-187.0-0.0","59315605","wem/bandit_party_1","A3C0LPVN749UF3","either","8","714","","","","","","","0","1","0","","0.3526806189","0.8","0.6","0.2","0.4","0.1862633901","0.3526806189","0.2532022814","0.06212451067","","","","","","","","","","","","","","74","J","1","","","146","main_expt",""
"","bandit","226","810554","0.0-188.0-0.0","59315605","wem/bandit_party_1","A3C0LPVN749UF3","either","8","1150","","","","","","","0","1","0","","0.3859334927","0.8","0.6","0.2","0.4","0.1944793183","0.3859334927","0.272856749","0.05826033827","","","","","","","","","","","","","","74","J","1","","","147","main_expt",""
"","bandit","227","813001","0.0-189.0-0.0","59315605","wem/bandit_party_1","A3C0LPVN749UF3","either","8","913","","","","","","","0","0","1","","0.4089873985","0.8","0.6","0.2","0.4","0.1572605535","0.4089873985","0.2441255329","0.04847575149","","","","","","","","","","","","","","74","J","1","","","148","main_expt",""
"","bandit","228","817717","0.0-190.0-0.0","59315605","wem/bandit_party_1","A3C0LPVN749UF3","either","8","3192","","","","","","","1","0","0","0.3317076441","","0.8","0.6","0.2","0.4","","","","","0.1632070519","0.3317076441","0.2304797635","0.07397138717","","","","","","","","","","74","J","1","","","149","main_expt",""
"","bandit","229","825930","0.0-191.0-0.0","59315605","wem/bandit_party_1","A3C0LPVN749UF3","either","8","6684","","","","","","","0","0","1","0.2514439341","","0.8","0.6","0.2","0.4","","","","","0.2162169298","0.2514439341","0.2645424191","0.1178437277","","","","","","","","","","74","J","1","","","150","main_expt",""
"","bandit","230","827880","0.0-192.0-0.0","59315605","wem/bandit_party_1","A3C0LPVN749UF3","either","8","414","","","","","","","0","0","1","","0.2806681102","0.8","0.6","0.2","0.4","0.2806681102","0.2209696772","0.2919476008","0.1116740648","","","","","","","","","","","","","","72","H","0","img/none_selected.jpg","","151","main_expt",""
"","bandit","231","829420","0.0-193.0-0.0","59315605","wem/bandit_party_1","A3C0LPVN749UF3","either","8","15","","","","","","","0","1","0","","0.3004198658","0.8","0.6","0.2","0.4","0.25223767","0.2004300668","0.3004198658","0.09681320826","","","","","","","","","","","","","","75","K","2","","","152","main_expt",""
"","bandit","232","831043","0.0-194.0-0.0","59315605","wem/bandit_party_1","A3C0LPVN749UF3","either","8","95","","","","","","","0","0","1","","0.2910243242","0.8","0.6","0.2","0.4","0.2259503681","0.1803159607","0.2910243242","0.1162344283","","","","","","","","","","","","","","75","K","2","","","153","main_expt",""
"","bandit","233","833039","0.0-195.0-0.0","59315605","wem/bandit_party_1","A3C0LPVN749UF3","either","8","481","","","","","","","0","0","1","","0.1441765144","0.8","0.6","0.2","0.4","0.2520515582","0.1793353988","0.2858680692","0.1441765144","","","","","","","","","","","","","","76","L","3","","","154","main_expt",""
"","bandit","234","834731","0.0-196.0-0.0","59315605","wem/bandit_party_1","A3C0LPVN749UF3","either","8","177","","","","","","","0","0","1","0.175125938","","0.8","0.6","0.2","0.4","","","","","0.246895917","0.175125938","0.276906037","0.1506434262","","","","","","","","","","74","J","1","","","155","main_expt",""
"","bandit","235","837533","0.0-197.0-0.0","59315605","wem/bandit_party_1","A3C0LPVN749UF3","either","8","1279","","","","","","","0","0","1","","0.19004546","0.8","0.6","0.2","0.4","0.2067462234","0.19004546","0.3087514371","0.1691825384","","","","","","","","","","","","","","74","J","1","","","156","main_expt",""
"","bandit","236","840283","0.0-198.0-0.0","59315605","wem/bandit_party_1","A3C0LPVN749UF3","either","8","1221","","","","","","","0","0","1","0.1538528063","","0.8","0.6","0.2","0.4","","","","","0.1736677602","0.1538528063","0.3400763937","0.1465267651","","","","","","","","","","74","J","1","","","157","main_expt",""
"","bandit","237","842086","0.0-199.0-0.0","59315605","wem/bandit_party_1","A3C0LPVN749UF3","either","8","274","","","","","","","0","0","1","","0.1624419901","0.8","0.6","0.2","0.4","0.2437422656","0.1624419901","0.3388441277","0.1517260174","","","","","","","","","","","","","","74","J","1","","","158","main_expt",""
"","bandit","238","843991","0.0-200.0-0.0","59315605","wem/bandit_party_1","A3C0LPVN749UF3","either","8","370","","","","","","","0","0","1","0.1749682205","","0.8","0.6","0.2","0.4","","","","","0.2627628197","0.1749682205","0.3496437485","0.143579764","","","","","","","","","","74","J","1","","","159","main_expt",""
"","bandit","239","846068","0.0-201.0-0.0","59315605","wem/bandit_party_1","A3C0LPVN749UF3","either","8","553","","","","","","","0","0","1","0.2227833177","","0.8","0.6","0.2","0.4","","","","","0.2532756584","0.2227833177","0.3347491532","0.1701049762","","","","","","","","","","74","J","1","","","160","main_expt",""
"","bandit","240","849513","0.0-202.0-0.0","59315605","wem/bandit_party_1","A3C0LPVN749UF3","either","8","1917","","","","","","","1","0","0","0.1616195486","","0.8","0.6","0.2","0.4","","","","","0.2846030245","0.1616195486","0.3036625801","0.1596038406","","","","","","","","","","74","J","1","","","161","main_expt",""
"","bandit","241","854825","0.0-203.0-0.0","59315605","wem/bandit_party_1","A3C0LPVN749UF3","either","8","3782","","","","","","","0","0","1","","0.1440802068","0.8","0.6","0.2","0.4","0.2480450928","0.1440802068","0.2735804545","0.1186271452","","","","","","","","","","","","","","74","J","1","","","162","main_expt",""
"","bandit","242","857199","0.0-204.0-0.0","59315605","wem/bandit_party_1","A3C0LPVN749UF3","either","8","845","","","","","","","0","0","1","0.3217860246","","0.8","0.6","0.2","0.4","","","","","0.3217860246","0.1349250059","0.2219233964","0.1460830151","","","","","","","","","","72","H","0","img/none_selected.jpg","","163","main_expt",""
"","bandit","243","860602","0.0-205.0-0.0","59315605","wem/bandit_party_1","A3C0LPVN749UF3","either","8","1873","","","","","","","0","0","1","0.3528623486","","0.8","0.6","0.2","0.4","","","","","0.3528623486","0.1482528248","0.2489701673","0.1924179555","","","","","","","","","","72","H","0","img/none_selected.jpg","","164","main_expt",""
"","bandit","244","863289","0.0-206.0-0.0","59315605","wem/bandit_party_1","A3C0LPVN749UF3","either","8","1155","","","","","","","0","0","1","","0.3113737792","0.8","0.6","0.2","0.4","0.3113737792","0.1444116863","0.2424219606","0.1909643941","","","","","","","","","","","","","","72","H","0","img/none_selected.jpg","","165","main_expt",""
"","bandit","245","864990","0.0-207.0-0.0","59315605","wem/bandit_party_1","A3C0LPVN749UF3","either","8","187","","","","","","","0","0","1","","0.1621449425","0.8","0.6","0.2","0.4","0.2820045276","0.1621449425","0.1899742571","0.1917506842","","","","","","","","","","","","","","74","J","1","","","166","main_expt",""
"","bandit","246","867070","0.0-208.0-0.0","59315605","wem/bandit_party_1","A3C0LPVN749UF3","either","8","555","","","","","","","0","1","0","","0.2298880826","0.8","0.6","0.2","0.4","0.2539690707","0.1695256229","0.2298880826","0.2238056512","","","","","","","","","","","","","","75","K","2","","","167","main_expt",""
"","bandit","247","869707","0.0-209.0-0.0","59315605","wem/bandit_party_1","A3C0LPVN749UF3","either","8","1108","","","","","","","0","0","1","","0.241220494","0.8","0.6","0.2","0.4","0.2177565821","0.1712445676","0.241220494","0.2132240521","","","","","","","","","","","","","","75","K","2","","","168","main_expt",""
"","bandit","248","885238","0.0-210.0-0.0","59315605","wem/bandit_party_1","A3C0LPVN749UF3","either","8","14009","","","","","","","1","0","0","0.2113351254","","0.8","0.6","0.2","0.4","","","","","0.183214586","0.191079104","0.2113351254","0.1363713625","","","","","","","","","","75","K","2","","","169","main_expt",""
"","bandit","249","889931","0.0-211.0-0.0","59315605","wem/bandit_party_1","A3C0LPVN749UF3","either","8","3166","","","","","","","0","0","1","","0.2224744884","0.8","0.6","0.2","0.4","0.1757282231","0.2227666825","0.2224744884","0.2007690262","","","","","","","","","","","","","","75","K","2","","","170","main_expt",""
"","bandit","250","893595","0.0-212.0-0.0","59315605","wem/bandit_party_1","A3C0LPVN749UF3","either","8","2136","","","","","","","0","1","0","","0.262177911","0.8","0.6","0.2","0.4","0.1679331046","0.2719914804","0.262177911","0.1238998316","","","","","","","","","","","","","","75","K","2","","","171","main_expt",""
"","bandit","251","896956","0.0-213.0-0.0","59315605","wem/bandit_party_1","A3C0LPVN749UF3","either","8","1826","","","","","","","0","0","1","","0.2822992514","0.8","0.6","0.2","0.4","0.14560319","0.2330128459","0.2822992514","0.09746419185","","","","","","","","","","","","","","75","K","2","","","172","main_expt",""
"","bandit","252","901701","0.0-214.0-0.0","59315605","wem/bandit_party_1","A3C0LPVN749UF3","either","8","3210","","","","","","","1","0","0","0.2840251313","","0.8","0.6","0.2","0.4","","","","","0.1341549344","0.2840251313","0.2545762091","0.1018164217","","","","","","","","","","74","J","1","","","173","main_expt",""
"","bandit","253","903631","0.0-215.0-0.0","59315605","wem/bandit_party_1","A3C0LPVN749UF3","either","8","403","","","","","","","0","1","0","","0.2739042306","0.8","0.6","0.2","0.4","0.1471305278","0.2739042306","0.2838184637","0.1401689619","","","","","","","","","","","","","","74","J","1","","","174","main_expt",""
"","bandit","254","910314","0.0-216.0-0.0","59315605","wem/bandit_party_1","A3C0LPVN749UF3","either","8","5154","","","","","","","0","0","1","","0.3444735506","0.8","0.6","0.2","0.4","0.173963405","0.3444735506","0.3002790513","0.1697524679","","","","","","","","","","","","","","74","J","1","","","175","main_expt",""
"","bandit","255","913007","0.0-217.0-0.0","59315605","wem/bandit_party_1","A3C0LPVN749UF3","either","8","1181","","","","","","","0","0","1","0.3223017316","","0.8","0.6","0.2","0.4","","","","","0.1821857965","0.3223017316","0.3771690292","0.1896898672","","","","","","","","","","74","J","1","","","176","main_expt",""
"","bandit","256","917474","0.0-218.0-0.0","59315605","wem/bandit_party_1","A3C0LPVN749UF3","either","8","2946","","","","","","","0","0","1","","0.2964924158","0.8","0.6","0.2","0.4","0.1444884472","0.2964924158","0.4047809956","0.2441254625","","","","","","","","","","","","","","74","J","1","","","177","main_expt",""
"","bandit","257","944833","0.0-219.0-0.0","59315605","wem/bandit_party_1","A3C0LPVN749UF3","either","8","25826","","","","","","","0","0","1","0.2780576925","","0.8","0.6","0.2","0.4","","","","","0.1207783293","0.2780576925","0.4344960837","0.2427722412","","","","","","","","","","74","J","1","","","178","main_expt",""
"","bandit","258","953634","0.0-220.0-0.0","59315605","wem/bandit_party_1","A3C0LPVN749UF3","either","8","7271","","","","","","","0","0","1","0.2859751729","","0.8","0.6","0.2","0.4","","","","","0.111585665","0.2859751729","0.4287912686","0.2284650367","","","","","","","","","","74","J","1","","","179","main_expt",""
"","bandit","259","959336","0.0-221.0-0.0","59315605","wem/bandit_party_1","A3C0LPVN749UF3","either","8","4172","","","","","","","0","1","0","","0.283533164","0.8","0.6","0.2","0.4","0.06891525065","0.283533164","0.4294180747","0.2694081366","","","","","","","","","","","","","","74","J","1","","","180","main_expt",""
"","bandit","260","1001491","0.0-222.0-0.0","59315605","wem/bandit_party_1","A3C0LPVN749UF3","either","8","40642","","","","","","","0","0","1","0.2430023428","","0.8","0.6","0.2","0.4","","","","","0.07407739619","0.2430023428","0.3887332701","0.2471628034","","","","","","","","","","74","J","1","","","181","main_expt",""
"","bandit","261","1003160","0.0-223.0-0.0","59315605","wem/bandit_party_1","A3C0LPVN749UF3","either","8","139","","","","","","","0","0","1","0.07501704201","","0.8","0.6","0.2","0.4","","","","","0.07501704201","0.223254837","0.3910635387","0.275372354","","","","","","","","","","72","H","0","img/none_selected.jpg","","182","main_expt",""
"","bandit","262","1009224","0.0-224.0-0.0","59315605","wem/bandit_party_1","A3C0LPVN749UF3","either","8","4534","","","","","","","0","0","1","","0.3957792538","0.8","0.6","0.2","0.4","0.09354103142","0.2274286797","0.3957792538","0.2378950907","","","","","","","","","","","","","","75","K","2","","","183","main_expt",""
"","bandit","263","1011122","0.0-225.0-0.0","59315605","wem/bandit_party_1","A3C0LPVN749UF3","either","8","368","","","","","","","0","0","1","0.2485964068","","0.8","0.6","0.2","0.4","","","","","0.06673830493","0.2485964068","0.3777829694","0.2611999536","","","","","","","","","","74","J","1","","","184","main_expt",""
"","bandit","264","1012697","0.0-226.0-0.0","59315605","wem/bandit_party_1","A3C0LPVN749UF3","either","8","41","","","","","","","0","0","1","0.2080173303","","0.8","0.6","0.2","0.4","","","","","0.08617836821","0.2080173303","0.4130939835","0.2799245071","","","","","","","","","","74","J","1","","","185","main_expt",""
"","bandit","265","1014658","0.0-227.0-0.0","59315605","wem/bandit_party_1","A3C0LPVN749UF3","either","8","427","","","","","","","0","1","0","","0.2538883687","0.8","0.6","0.2","0.4","0.05054014018","0.2538883687","0.376930599","0.2275386122","","","","","","","","","","","","","","74","J","1","","","186","main_expt",""
"","bandit","266","1016221","0.0-228.0-0.0","59315605","wem/bandit_party_1","A3C0LPVN749UF3","either","8","37","","","","","","","0","0","1","0.2267652077","","0.8","0.6","0.2","0.4","","","","","0.1101456656","0.2267652077","0.3934592684","0.2558518805","","","","","","","","","","74","J","1","","","187","main_expt",""
"","bandit","267","1019400","0.0-229.0-0.0","59315605","wem/bandit_party_1","A3C0LPVN749UF3","either","8","1662","","","","","","","1","0","0","0.2583789709","","0.8","0.6","0.2","0.4","","","","","0.1076418148","0.2583789709","0.4086060551","0.2757393749","","","","","","","","","","74","J","1","","","188","main_expt",""
"","bandit","268","1022874","0.0-230.0-0.0","59315605","wem/bandit_party_1","A3C0LPVN749UF3","either","8","1946","","","","","","","0","0","1","","0.1230456027","0.8","0.6","0.2","0.4","0.1230456027","0.2329768584","0.447145564","0.3326758055","","","","","","","","","","","","","","72","H","0","img/none_selected.jpg","","189","main_expt",""
"","bandit","269","1036480","0.0-231.0-0.0","59315605","wem/bandit_party_1","A3C0LPVN749UF3","either","8","12076","","","","","","","0","0","1","0.2002510669","","0.8","0.6","0.2","0.4","","","","","0.1872873117","0.2002510669","0.386091063","0.332927569","","","","","","","","","","74","J","1","","","190","main_expt",""
"","bandit","270","1039038","0.0-232.0-0.0","59315605","wem/bandit_party_1","A3C0LPVN749UF3","either","8","1024","","","","","","","0","0","1","0.1413073252","","0.8","0.6","0.2","0.4","","","","","0.1413073252","0.2182600554","0.4221145333","0.3859199101","","","","","","","","","","72","H","0","img/none_selected.jpg","","191","main_expt",""
"","bandit","271","1041395","0.0-233.0-0.0","59315605","wem/bandit_party_1","A3C0LPVN749UF3","either","8","827","","","","","","","0","0","1","0.1868627967","","0.8","0.6","0.2","0.4","","","","","0.1868627967","0.2681613901","0.3913199708","0.392668484","","","","","","","","","","72","H","0","img/none_selected.jpg","","192","main_expt",""
"","bandit","272","1043445","0.0-234.0-0.0","59315605","wem/bandit_party_1","A3C0LPVN749UF3","either","8","518","","","","","","","0","0","1","","0.4013624592","0.8","0.6","0.2","0.4","0.2312719224","0.3035027483","0.4013624592","0.3789843676","","","","","","","","","","","","","","75","K","2","","","193","main_expt",""
"","bandit","273","1046744","0.0-235.0-0.0","59315605","wem/bandit_party_1","A3C0LPVN749UF3","either","8","1767","","","","","","","0","0","1","0.275531754","","0.8","0.6","0.2","0.4","","","","","0.2585201677","0.275531754","0.3668237699","0.3689216281","","","","","","","","","","74","J","1","","","194","main_expt",""
"","bandit","274","1048280","0.0-236.0-0.0","59315605","wem/bandit_party_1","A3C0LPVN749UF3","either","8","6","","","","","","","0","1","0","","0.2716401532","0.8","0.6","0.2","0.4","0.2786104129","0.2716401532","0.3856266791","0.4136905162","","","","","","","","","","","","","","74","J","1","","","195","main_expt",""
"","bandit","275","1056369","0.0-237.0-0.0","59315605","wem/bandit_party_1","A3C0LPVN749UF3","either","8","6575","","","","","","","0","0","1","0.4258575101","","0.8","0.6","0.2","0.4","","","","","0.2407834285","0.2814611543","0.3702439493","0.4258575101","","","","","","","","","","76","L","3","","","196","main_expt",""
"","bandit","276","1057961","0.0-238.0-0.0","59315605","wem/bandit_party_1","A3C0LPVN749UF3","either","8","62","","","","","","","0","0","1","","0.3665926528","0.8","0.6","0.2","0.4","0.2550568011","0.2588010394","0.3665926528","0.3976178043","","","","","","","","","","","","","","75","K","2","","","197","main_expt",""
"","bandit","277","1059724","0.0-239.0-0.0","59315605","wem/bandit_party_1","A3C0LPVN749UF3","either","8","228","","","","","","","0","0","1","0.3094863904","","0.8","0.6","0.2","0.4","","","","","0.3094863904","0.3094610495","0.3432124584","0.3802378075","","","","","","","","","","72","H","0","img/none_selected.jpg","","198","main_expt",""
"","bandit","278","1061666","0.0-240.0-0.0","59315605","wem/bandit_party_1","A3C0LPVN749UF3","either","8","409","","","","","","","0","0","1","0.3012985694","","0.8","0.6","0.2","0.4","","","","","0.3012985694","0.3139278769","0.4096574544","0.3926800246","","","","","","","","","","72","H","0","img/none_selected.jpg","","199","main_expt",""
"","bandit","279","1063214","0.0-241.0-0.0","59315605","wem/bandit_party_1","A3C0LPVN749UF3","either","8","21","","","","","","","0","0","1","0.3149132519","","0.8","0.6","0.2","0.4","","","","","0.3149132519","0.3459706187","0.3799023259","0.3814844917","","","","","","","","","","72","H","0","img/none_selected.jpg","","200","main_expt",""
"","bandit","280","1064889","0.0-242.0-0.0","59315605","wem/bandit_party_1","A3C0LPVN749UF3","either","8","160","","","","","","","0","0","1","0.3038365479","","0.8","0.6","0.2","0.4","","","","","0.3236307962","0.3038365479","0.3513783521","0.3831630738","","","","","","","","","","74","J","1","","","201","main_expt",""
"","bandit","281","1066713","0.0-243.0-0.0","59315605","wem/bandit_party_1","A3C0LPVN749UF3","either","8","290","","","","","","","1","0","0","0.3163717903","","0.8","0.6","0.2","0.4","","","","","0.3163717903","0.2964599608","0.3439351057","0.3957430938","","","","","","","","","","72","H","0","img/none_selected.jpg","","202","main_expt",""
"","bandit","282","1068624","0.0-244.0-0.0","59315605","wem/bandit_party_1","A3C0LPVN749UF3","either","8","395","","","","","","","0","0","1","0.3165936227","","0.8","0.6","0.2","0.4","","","","","0.3165936227","0.280336616","0.2615327891","0.4175506619","","","","","","","","","","72","H","0","img/none_selected.jpg","","203","main_expt",""
"","bandit","283","1070489","0.0-245.0-0.0","59315605","wem/bandit_party_1","A3C0LPVN749UF3","either","8","345","","","","","","","0","0","1","","0.262900641","0.8","0.6","0.2","0.4","0.3166231072","0.262900641","0.2211517471","0.4356800279","","","","","","","","","","","","","","74","J","1","","","204","main_expt",""
"","bandit","284","1074295","0.0-246.0-0.0","59315605","wem/bandit_party_1","A3C0LPVN749UF3","either","8","2274","","","","","","","0","0","1","0.2983153058","","0.8","0.6","0.2","0.4","","","","","0.2983153058","0.3403150927","0.1955747294","0.4342993254","","","","","","","","","","72","H","0","img/none_selected.jpg","","205","main_expt",""
"","bandit","285","1075829","0.0-247.0-0.0","59315605","wem/bandit_party_1","A3C0LPVN749UF3","either","8","1","","","","","","","1","0","0","0.3407188883","","0.8","0.6","0.2","0.4","","","","","0.255573156","0.3407188883","0.3137251184","0.4515967499","","","","","","","","","","74","J","1","","","206","main_expt",""
"","bandit","286","1077855","0.0-248.0-0.0","59315605","wem/bandit_party_1","A3C0LPVN749UF3","either","8","484","","","","","","","0","0","1","","0.2982459604","0.8","0.6","0.2","0.4","0.2816724171","0.2955601217","0.2982459604","0.4559700358","","","","","","","","","","","","","","75","K","2","","","207","main_expt",""
"","bandit","287","1079493","0.0-249.0-0.0","59315605","wem/bandit_party_1","A3C0LPVN749UF3","either","8","106","","","","","","","0","0","1","0.2832193826","","0.8","0.6","0.2","0.4","","","","","0.2462622089","0.2832193826","0.2359404152","0.4711787588","","","","","","","","","","74","J","1","","","208","main_expt",""
"","bandit","288","1081363","0.0-250.0-0.0","59315605","wem/bandit_party_1","A3C0LPVN749UF3","either","8","340","","","","","","","0","1","0","","0.4859779177","0.8","0.6","0.2","0.4","0.2608633631","0.25637755","0.2396635106","0.4859779177","","","","","","","","","","","","","","76","L","3","","","209","main_expt",""
"","bandit","289","1083216","0.0-251.0-0.0","59315605","wem/bandit_party_1","A3C0LPVN749UF3","either","8","317","","","","","","","0","1","0","","0.4798195452","0.8","0.6","0.2","0.4","0.2649708152","0.2500912527","0.2320506775","0.4798195452","","","","","","","","","","","","","","76","L","3","","","210","main_expt",""
"","bandit","290","1087190","0.0-252.0-0.0","59315605","wem/bandit_party_1","A3C0LPVN749UF3","either","8","2439","","","","","","","0","0","1","0.4754072522","","0.8","0.6","0.2","0.4","","","","","0.2658594566","0.2481129288","0.1894847828","0.4754072522","","","","","","","","","","76","L","3","","","211","main_expt",""
"","bandit","291","1088811","0.0-253.0-0.0","59315605","wem/bandit_party_1","A3C0LPVN749UF3","either","8","85","","","","","","","0","0","1","","0.3192168596","0.8","0.6","0.2","0.4","0.2648449814","0.3192168596","0.2330804604","0.4780703898","","","","","","","","","","","","","","74","J","1","","","212","main_expt",""
"","bandit","292","1090757","0.0-254.0-0.0","59315605","wem/bandit_party_1","A3C0LPVN749UF3","either","8","413","","","","","","","1","0","0","0.286492297","","0.8","0.6","0.2","0.4","","","","","0.286492297","0.2361953268","0.2484053244","0.4883488692","","","","","","","","","","72","H","0","img/none_selected.jpg","","213","main_expt",""
"","bandit","293","1092880","0.0-255.0-0.0","59315605","wem/bandit_party_1","A3C0LPVN749UF3","either","8","586","","","","","","","0","0","1","0.2540339129","","0.8","0.6","0.2","0.4","","","","","0.2540339129","0.2308921763","0.2182548364","0.4872562331","","","","","","","","","","72","H","0","img/none_selected.jpg","","214","main_expt",""
"","bandit","294","1096014","0.0-256.0-0.0","59315605","wem/bandit_party_1","A3C0LPVN749UF3","either","8","1596","","","","","","","0","0","1","","0.254651127","0.8","0.6","0.2","0.4","0.254651127","0.2161033537","0.1824073789","0.4749609167","","","","","","","","","","","","","","72","H","0","img/none_selected.jpg","","215","main_expt",""
"","bandit","295","1097715","0.0-257.0-0.0","59315605","wem/bandit_party_1","A3C0LPVN749UF3","either","8","169","","","","","","","0","0","1","0.3140517816","","0.8","0.6","0.2","0.4","","","","","0.3140517816","0.1896756427","0.1923730387","0.4798413464","","","","","","","","","","72","H","0","img/none_selected.jpg","","216","main_expt",""
"","bandit","296","1101040","0.0-258.0-0.0","59315605","wem/bandit_party_1","A3C0LPVN749UF3","either","8","1803","","","","","","","0","0","1","0.1724286307","","0.8","0.6","0.2","0.4","","","","","0.3338676317","0.1724286307","0.2266612446","0.4865144435","","","","","","","","","","74","J","1","","","217","main_expt",""
"","bandit","297","1104633","0.0-259.0-0.0","59315605","wem/bandit_party_1","A3C0LPVN749UF3","either","8","2065","","","","","","","0","1","0","","0.1702705737","0.8","0.6","0.2","0.4","0.3397001125","0.161168334","0.1702705737","0.4789145001","","","","","","","","","","","","","","75","K","2","","","218","main_expt",""
"","bandit","298","1106337","0.0-260.0-0.0","59315605","wem/bandit_party_1","A3C0LPVN749UF3","either","8","169","","","","","","","0","0","1","","0.1159766116","0.8","0.6","0.2","0.4","0.2982528089","0.2021763003","0.1159766116","0.4834748692","","","","","","","","","","","","","","75","K","2","","","219","main_expt",""
"","bandit","299","1110819","0.0-261.0-0.0","59315605","wem/bandit_party_1","A3C0LPVN749UF3","either","8","2948","","","","","","","0","0","1","","0.09529473055","0.8","0.6","0.2","0.4","0.2770934022","0.2142164272","0.09529473055","0.4722371777","","","","","","","","","","","","","","75","K","2","","","220","main_expt",""
"","bandit","300","1115031","0.0-262.0-0.0","59315605","wem/bandit_party_1","A3C0LPVN749UF3","either","8","2677","","","","","","","0","0","1","","0.189068297","0.8","0.6","0.2","0.4","0.2696770889","0.189068297","0.09060922323","0.4654689219","","","","","","","","","","","","","","74","J","1","","","221","main_expt",""
"","bandit","301","1116874","0.0-263.0-0.0","59315605","wem/bandit_party_1","A3C0LPVN749UF3","either","8","310","","","","","","","0","0","1","","0.2120997892","0.8","0.6","0.2","0.4","0.3103502417","0.2120997892","0.1250772464","0.4533789701","","","","","","","","","","","","","","74","J","1","","","222","main_expt",""
"","bandit","302","1120393","0.0-264.0-0.0","59315605","wem/bandit_party_1","A3C0LPVN749UF3","either","8","1984","","","","","","","0","0","1","","0.1937664477","0.8","0.6","0.2","0.4","0.3477728299","0.1937664477","0.1177235221","0.4473019993","","","","","","","","","","","","","","74","J","1","","","223","main_expt",""
"","bandit","303","1124541","0.0-265.0-0.0","59315605","wem/bandit_party_1","A3C0LPVN749UF3","either","8","2609","","","","","","","0","0","1","0.3230244909","","0.8","0.6","0.2","0.4","","","","","0.3230244909","0.2195846313","0.1589673504","0.4651086175","","","","","","","","","","72","H","0","img/none_selected.jpg","","224","main_expt",""
"","bandit","304","1128640","0.0-266.0-0.0","59315605","wem/bandit_party_1","A3C0LPVN749UF3","either","8","2563","","","","","","","1","0","0","0.3641913847","","0.8","0.6","0.2","0.4","","","","","0.3641913847","0.1973587738","0.1582937281","0.4704934375","","","","","","","","","","72","H","0","img/none_selected.jpg","","225","main_expt",""
"","bandit","305","1130669","0.0-267.0-0.0","59315605","wem/bandit_party_1","A3C0LPVN749UF3","either","8","495","","","","","","","0","0","1","0.2029059012","","0.8","0.6","0.2","0.4","","","","","0.3211822138","0.2029059012","0.1585786296","0.4545632724","","","","","","","","","","74","J","1","","","226","main_expt",""
"","bandit","306","1132209","0.0-268.0-0.0","59315605","wem/bandit_party_1","A3C0LPVN749UF3","either","8","27","","","","","","","0","0","1","","0.1614007709","0.8","0.6","0.2","0.4","0.3318596792","0.1677618241","0.1614007709","0.4313330006","","","","","","","","","","","","","","75","K","2","","","227","main_expt",""
"","bandit","307","1135741","0.0-269.0-0.0","59315605","wem/bandit_party_1","A3C0LPVN749UF3","either","8","2003","","","","","","","0","0","1","","0.1160982884","0.8","0.6","0.2","0.4","0.3715738924","0.2079318551","0.1160982884","0.4253897179","","","","","","","","","","","","","","75","K","2","","","228","main_expt",""
"","bandit","308","1138023","0.0-270.0-0.0","59315605","wem/bandit_party_1","A3C0LPVN749UF3","either","8","751","","","","","","","0","0","1","","0.4416009531","0.8","0.6","0.2","0.4","0.3571583743","0.1860779256","0.1327168588","0.4416009531","","","","","","","","","","","","","","76","L","3","","","229","main_expt",""
"","bandit","309","1141348","0.0-271.0-0.0","59315605","wem/bandit_party_1","A3C0LPVN749UF3","either","8","1807","","","","","","","0","0","1","0.4612445757","","0.8","0.6","0.2","0.4","","","","","0.3455313741","0.1294985144","0.1751239199","0.4612445757","","","","","","","","","","76","L","3","","","230","main_expt",""
"","bandit","310","1143037","0.0-272.0-0.0","59315605","wem/bandit_party_1","A3C0LPVN749UF3","either","8","158","","","","","","","1","0","0","0.3114256563","","0.8","0.6","0.2","0.4","","","","","0.3114256563","0.1424139305","0.2080149414","0.4455927364","","","","","","","","","","72","H","0","img/none_selected.jpg","","231","main_expt",""
"","bandit","311","1145037","0.0-273.0-0.0","59315605","wem/bandit_party_1","A3C0LPVN749UF3","either","8","463","","","","","","","0","0","1","0.3127001645","","0.8","0.6","0.2","0.4","","","","","0.3127001645","0.1777617008","0.2305008548","0.4449483857","","","","","","","","","","72","H","0","img/none_selected.jpg","","232","main_expt",""
"","bandit","312","1146567","0.0-274.0-0.0","59315605","wem/bandit_party_1","A3C0LPVN749UF3","either","8","0","","","","","","","0","0","1","0.2953609795","","0.8","0.6","0.2","0.4","","","","","0.2953609795","0.1408291819","0.2331895239","0.4570404202","","","","","","","","","","72","H","0","img/none_selected.jpg","","233","main_expt",""
"","bandit","313","1148476","0.0-275.0-0.0","59315605","wem/bandit_party_1","A3C0LPVN749UF3","either","8","379","","","","","","","0","0","1","","0.09563300426","0.8","0.6","0.2","0.4","0.2743769666","0.09563300426","0.2007149185","0.4785018613","","","","","","","","","","","","","","74","J","1","","","234","main_expt",""
"","bandit","314","1150941","0.0-276.0-0.0","59315605","wem/bandit_party_1","A3C0LPVN749UF3","either","8","928","","","","","","","0","0","1","","0.1428876463","0.8","0.6","0.2","0.4","0.2842570603","0.06508254785","0.1428876463","0.4708517218","","","","","","","","","","","","","","75","K","2","","","235","main_expt",""
"","bandit","315","1152544","0.0-277.0-0.0","59315605","wem/bandit_party_1","A3C0LPVN749UF3","either","8","72","","","","","","","0","0","1","0.1327756685","","0.8","0.6","0.2","0.4","","","","","0.3536106974","0.05272484418","0.1327756685","0.4721911582","","","","","","","","","","75","K","2","","","236","main_expt",""
