"consent","trial_type","trial_index","time_elapsed","internal_node_id","subjID","study","MID","cond","drift","rt","responses","button_pressed","key_press","like","value","connected","gems","bombs","no_reward","GemPrChosen","BombPrChosen","GainOverPainPr_0","GainOverPainPr_1","GainOverPainPr_2","GainOverPainPr_3","LosePr_0","LosePr_1","LosePr_2","LosePr_3","WinPr_0","WinPr_1","WinPr_2","WinPr_3","Q0","Q1","Q2","gender","age","ethnicity","label","expt_phase","target","respCharCode","respKey","respChoiceNum","respChoice","practice","trial_counter","trial_label","Q0_index","view_history"
"GDM/GDM_behavioral_consent_30min_online.html","consent","0","22133","0.0-0.0","60953882","wem/bandit_party_1","A3J8Y94SGZ3R0E","either","3","","","","","","","","","","","","","","","","","","","","","","","","","","","","","","","","","","","","","","","","","",""
"","survey-text","1","62446","0.0-1.0","60953882","wem/bandit_party_1","A3J8Y94SGZ3R0E","either","3","39283","{""Q0"":""A3J8Y94SGZ3R0E""}","","","","","","","","","","","","","","","","","","","","","","","","","","","","","","","","","","","","","","","",""
"","button-response","2","65627","0.0-2.0","60953882","wem/bandit_party_1","A3J8Y94SGZ3R0E","either","3","2161","","1","","","","","","","","","","","","","","","","","","","","","","","","","","","","","","","","","","","","","","",""
"","text-replacement","3","80609","0.0-3.0","60953882","wem/bandit_party_1","A3J8Y94SGZ3R0E","either","3","13971","","","32","","","","","","","","","","","","","","","","","","","","","","","","","","","","","","","","","","","","","",""
"","text-replacement","4","121296","0.0-4.0","60953882","wem/bandit_party_1","A3J8Y94SGZ3R0E","either","3","40680","","","32","","","","","","","","","","","","","","","","","","","","","","","","","","","","","","","","","","","","","",""
"","identification","5","131162","0.0-6.0-0.0","60953882","wem/bandit_party_1","A3J8Y94SGZ3R0E","either","3","9805","","","","1","1","1","","","","","","","","","","","","","","","","","","","","","","","","pre","identification_pre","the Republican party","","","","","","","","",""
"","identification","6","148507","0.0-6.0-1.0","60953882","wem/bandit_party_1","A3J8Y94SGZ3R0E","either","3","16288","","","","5","6","6","","","","","","","","","","","","","","","","","","","","","","","","pre","identification_pre","the Democratic Party","","","","","","","","",""
"","text-replacement","7","187791","0.0-7.0","60953882","wem/bandit_party_1","A3J8Y94SGZ3R0E","either","3","38278","","","32","","","","","","","","","","","","","","","","","","","","","","","","","","","","","","","","","","","","","",""
"","text-replacement","8","193752","0.0-8.0","60953882","wem/bandit_party_1","A3J8Y94SGZ3R0E","either","3","5955","","","32","","","","","","","","","","","","","","","","","","","","","","","","","","","","","","","","","","","","","",""
"","text-replacement","9","195811","0.0-9.0","60953882","wem/bandit_party_1","A3J8Y94SGZ3R0E","either","3","2051","","","32","","","","","","","","","","","","","","","","","","","","","","","","","","","","","","","","","","","","","",""
"","text-replacement","10","201082","0.0-10.0","60953882","wem/bandit_party_1","A3J8Y94SGZ3R0E","either","3","5263","","","32","","","","","","","","","","","","","","","","","","","","","","","","","","","","","","","","","","","","","",""
"","text-replacement","11","265502","0.0-11.0","60953882","wem/bandit_party_1","A3J8Y94SGZ3R0E","either","3","64413","","","32","","","","","","","","","","","","","","","","","","","","","","","","","","","","","","","","","","","","","",""
"","bandit","12","272410","0.0-12.0-0.0","60953882","wem/bandit_party_1","A3J8Y94SGZ3R0E","either","3","5380","","","","","","","0","0","1","0","0","","","","","0","","","","0","","","","","","","","","","","","","74","J","0","img/none_selected_demo.jpg","true","0","","",""
"","bandit","13","280849","0.0-13.0-0.0","60953882","wem/bandit_party_1","A3J8Y94SGZ3R0E","either","3","6920","","","","","","","0","0","1","0","0","","","","","0","","","","0","","","","","","","","","","","","","75","K","0","img/none_selected_demo.jpg","true","0","","",""
"","text-replacement","14","282793","0.0-14.0","60953882","wem/bandit_party_1","A3J8Y94SGZ3R0E","either","3","1936","","","32","","","","","","","","","","","","","","","","","","","","","","","","","","","","","","","","","","","","","",""
"","text-replacement","15","326638","0.0-15.0","60953882","wem/bandit_party_1","A3J8Y94SGZ3R0E","either","3","43839","","","32","","","","","","","","","","","","","","","","","","","","","","","","","","","","","","","","","","","","","",""
"","text-replacement","16","328464","0.0-16.0","60953882","wem/bandit_party_1","A3J8Y94SGZ3R0E","either","3","1820","","","32","","","","","","","","","","","","","","","","","","","","","","","","","","","","","","","","","","","","","",""
"","text-replacement","17","551551","0.0-17.0","60953882","wem/bandit_party_1","A3J8Y94SGZ3R0E","either","3","223080","","","32","","","","","","","","","","","","","","","","","","","","","","","","","","","","","","","","","","","","","",""
"","bandit","18","555107","0.0-18.0-0.0","60953882","wem/bandit_party_1","A3J8Y94SGZ3R0E","either","3","2039","","","","","","","0","1","0","","0.8","0.5","0.5","","","0.8","0.2","","","","","","","","","","","","","","","","74","J","0","img/none_selected_demo.jpg","true","0","80_20_practice","",""
"","bandit","19","557729","0.0-18.0-1.0","60953882","wem/bandit_party_1","A3J8Y94SGZ3R0E","either","3","1104","","","","","","","1","0","0","0.2","","0.5","0.5","","","","","","","0.8","0.2","","","","","","","","","","","","75","K","1","","true","0","80_20_practice","",""
"","bandit","20","559863","0.0-18.0-2.0","60953882","wem/bandit_party_1","A3J8Y94SGZ3R0E","either","3","616","","","","","","","1","0","0","0.2","","0.5","0.5","","","","","","","0.8","0.2","","","","","","","","","","","","75","K","1","","true","0","80_20_practice","",""
"","bandit","21","562400","0.0-18.0-3.0","60953882","wem/bandit_party_1","A3J8Y94SGZ3R0E","either","3","1019","","","","","","","0","0","1","","0.2","0.5","0.5","","","0.8","0.2","","","","","","","","","","","","","","","","75","K","1","","true","0","80_20_practice","",""
"","bandit","22","563979","0.0-18.0-4.0","60953882","wem/bandit_party_1","A3J8Y94SGZ3R0E","either","3","62","","","","","","","1","0","0","0.2","","0.5","0.5","","","","","","","0.8","0.2","","","","","","","","","","","","75","K","1","","true","0","80_20_practice","",""
"","bandit","23","567030","0.0-18.0-5.0","60953882","wem/bandit_party_1","A3J8Y94SGZ3R0E","either","3","1530","","","","","","","0","0","1","","0.2","0.5","0.5","","","0.8","0.2","","","","","","","","","","","","","","","","75","K","1","","true","0","80_20_practice","",""
"","bandit","24","570159","0.0-18.0-6.0","60953882","wem/bandit_party_1","A3J8Y94SGZ3R0E","either","3","1610","","","","","","","0","1","0","","0.2","0.5","0.5","","","0.8","0.2","","","","","","","","","","","","","","","","75","K","1","","true","0","80_20_practice","",""
"","bandit","25","572541","0.0-18.0-7.0","60953882","wem/bandit_party_1","A3J8Y94SGZ3R0E","either","3","859","","","","","","","0","1","0","","0.8","0.5","0.5","","","0.8","0.2","","","","","","","","","","","","","","","","74","J","0","img/none_selected_demo.jpg","true","0","80_20_practice","",""
"","bandit","26","574613","0.0-18.0-8.0","60953882","wem/bandit_party_1","A3J8Y94SGZ3R0E","either","3","555","","","","","","","1","0","0","0.2","","0.5","0.5","","","","","","","0.8","0.2","","","","","","","","","","","","75","K","1","","true","0","80_20_practice","",""
"","bandit","27","577196","0.0-18.0-9.0","60953882","wem/bandit_party_1","A3J8Y94SGZ3R0E","either","3","1066","","","","","","","1","0","0","0.2","","0.5","0.5","","","","","","","0.8","0.2","","","","","","","","","","","","75","K","1","","true","0","80_20_practice","",""
"","bandit","28","579853","0.0-18.0-10.0","60953882","wem/bandit_party_1","A3J8Y94SGZ3R0E","either","3","1138","","","","","","","0","1","0","","0.2","0.5","0.5","","","0.8","0.2","","","","","","","","","","","","","","","","75","K","1","","true","0","80_20_practice","",""
"","bandit","29","581390","0.0-18.0-11.0","60953882","wem/bandit_party_1","A3J8Y94SGZ3R0E","either","3","16","","","","","","","0","0","1","","0.8","0.5","0.5","","","0.8","0.2","","","","","","","","","","","","","","","","74","J","0","img/none_selected_demo.jpg","true","0","80_20_practice","",""
"","bandit","30","584888","0.0-18.0-12.0","60953882","wem/bandit_party_1","A3J8Y94SGZ3R0E","either","3","1979","","","","","","","0","0","1","0.2","","0.5","0.5","","","","","","","0.8","0.2","","","","","","","","","","","","75","K","1","","true","0","80_20_practice","",""
"","bandit","31","587199","0.0-18.0-13.0","60953882","wem/bandit_party_1","A3J8Y94SGZ3R0E","either","3","791","","","","","","","0","0","1","","0.2","0.5","0.5","","","0.8","0.2","","","","","","","","","","","","","","","","75","K","1","","true","0","80_20_practice","",""
"","bandit","32","589575","0.0-18.0-14.0","60953882","wem/bandit_party_1","A3J8Y94SGZ3R0E","either","3","856","","","","","","","0","0","1","","0.2","0.5","0.5","","","0.8","0.2","","","","","","","","","","","","","","","","75","K","1","","true","0","80_20_practice","",""
"","bandit","33","592288","0.0-18.0-15.0","60953882","wem/bandit_party_1","A3J8Y94SGZ3R0E","either","3","1194","","","","","","","0","0","1","","0.2","0.5","0.5","","","0.8","0.2","","","","","","","","","","","","","","","","75","K","1","","true","0","80_20_practice","",""
"","bandit","34","595631","0.0-18.0-16.0","60953882","wem/bandit_party_1","A3J8Y94SGZ3R0E","either","3","1824","","","","","","","1","0","0","0.8","","0.5","0.5","","","","","","","0.8","0.2","","","","","","","","","","","","74","J","0","img/none_selected_demo.jpg","true","0","80_20_practice","",""
"","bandit","35","597741","0.0-18.0-17.0","60953882","wem/bandit_party_1","A3J8Y94SGZ3R0E","either","3","586","","","","","","","0","0","1","","0.2","0.5","0.5","","","0.8","0.2","","","","","","","","","","","","","","","","75","K","1","","true","0","80_20_practice","",""
"","bandit","36","600132","0.0-18.0-18.0","60953882","wem/bandit_party_1","A3J8Y94SGZ3R0E","either","3","873","","","","","","","0","0","1","0.2","","0.5","0.5","","","","","","","0.8","0.2","","","","","","","","","","","","75","K","1","","true","0","80_20_practice","",""
"","bandit","37","602376","0.0-18.0-19.0","60953882","wem/bandit_party_1","A3J8Y94SGZ3R0E","either","3","728","","","","","","","1","0","0","0.8","","0.5","0.5","","","","","","","0.8","0.2","","","","","","","","","","","","74","J","0","img/none_selected_demo.jpg","true","0","80_20_practice","",""
"","text-replacement","38","619805","0.0-19.0","60953882","wem/bandit_party_1","A3J8Y94SGZ3R0E","either","3","17416","","","32","","","","","","","","","","","","","","","","","","","","","","","","","","","","","","","","","","","","","",""
"","bandit","39","622861","0.0-20.0-0.0","60953882","wem/bandit_party_1","A3J8Y94SGZ3R0E","either","3","1538","","","","","","","0","1","0","0","1","","","","","0","1","","","1","0","","","","","","","","","","","","75","K","1","","true","0","","",""
"","text-replacement","40","623648","0.0-21.0","60953882","wem/bandit_party_1","A3J8Y94SGZ3R0E","either","3","779","","","74","","","","","","","","","","","","","","","","","","","","","","","","","","","","","","","","","","","","","",""
"","text-replacement","41","632234","0.0-22.0","60953882","wem/bandit_party_1","A3J8Y94SGZ3R0E","either","3","8579","","","32","","","","","","","","","","","","","","","","","","","","","","","","","","","","","","","","","","","","","",""
"","text-replacement","42","672863","0.0-23.0","60953882","wem/bandit_party_1","A3J8Y94SGZ3R0E","either","3","40621","","","32","","","","","","","","","","","","","","","","","","","","","","","","","","","","","","","","","","","","","",""
"","text-replacement","43","673545","0.0-24.0","60953882","wem/bandit_party_1","A3J8Y94SGZ3R0E","either","3","673","","","32","","","","","","","","","","","","","","","","","","","","","","","","","","","","","","","","","","","","","",""
"","text-replacement","44","674242","0.0-25.0","60953882","wem/bandit_party_1","A3J8Y94SGZ3R0E","either","3","688","","","32","","","","","","","","","","","","","","","","","","","","","","","","","","","","","","","","","","","","","",""
"","text-replacement","45","674912","0.0-26.0","60953882","wem/bandit_party_1","A3J8Y94SGZ3R0E","either","3","663","","","32","","","","","","","","","","","","","","","","","","","","","","","","","","","","","","","","","","","","","",""
"","text-replacement","46","675674","0.0-27.0","60953882","wem/bandit_party_1","A3J8Y94SGZ3R0E","either","3","755","","","32","","","","","","","","","","","","","","","","","","","","","","","","","","","","","","","","","","","","","",""
"","text-replacement","47","676591","0.0-28.0","60953882","wem/bandit_party_1","A3J8Y94SGZ3R0E","either","3","910","","","32","","","","","","","","","","","","","","","","","","","","","","","","","","","","","","","","","","","","","",""
"","text-replacement","48","677347","0.0-29.0","60953882","wem/bandit_party_1","A3J8Y94SGZ3R0E","either","3","750","","","32","","","","","","","","","","","","","","","","","","","","","","","","","","","","","","","","","","","","","",""
"","text-replacement","49","678015","0.0-30.0","60953882","wem/bandit_party_1","A3J8Y94SGZ3R0E","either","3","661","","","32","","","","","","","","","","","","","","","","","","","","","","","","","","","","","","","","","","","","","",""
"","text-replacement","50","688925","0.0-31.0","60953882","wem/bandit_party_1","A3J8Y94SGZ3R0E","either","3","10903","","","32","","","","","","","","","","","","","","","","","","","","","","","","","","","","","","","","","","","","","",""
"","bandit","51","696089","0.0-32.0-0.0","60953882","wem/bandit_party_1","A3J8Y94SGZ3R0E","either","3","5644","","","","","","","0","0","1","0.2","","0.5","0.5","0.5","0.5","","","","","0.8","0.2","0.6","0.2","","","","","","","","","","74","J","1","","true","0","full_practice","",""
"","bandit","52","698157","0.0-32.0-1.0","60953882","wem/bandit_party_1","A3J8Y94SGZ3R0E","either","3","548","","","","","","","1","0","0","0.6","","0.5","0.5","0.5","0.5","","","","","0.8","0.2","0.6","0.2","","","","","","","","","","75","K","2","","true","0","full_practice","",""
"","bandit","53","700151","0.0-32.0-2.0","60953882","wem/bandit_party_1","A3J8Y94SGZ3R0E","either","3","473","","","","","","","0","0","1","0.2","","0.5","0.5","0.5","0.5","","","","","0.8","0.2","0.6","0.2","","","","","","","","","","74","J","1","","true","0","full_practice","",""
"","bandit","54","701673","0.0-32.0-3.0","60953882","wem/bandit_party_1","A3J8Y94SGZ3R0E","either","3","3","","","","","","","0","0","1","0.2","","0.5","0.5","0.5","0.5","","","","","0.8","0.2","0.6","0.2","","","","","","","","","","76","L","3","","true","0","full_practice","",""
"","bandit","55","704108","0.0-32.0-4.0","60953882","wem/bandit_party_1","A3J8Y94SGZ3R0E","either","3","916","","","","","","","0","0","1","0.6","","0.5","0.5","0.5","0.5","","","","","0.8","0.2","0.6","0.2","","","","","","","","","","75","K","2","","true","0","full_practice","",""
"","bandit","56","706108","0.0-32.0-5.0","60953882","wem/bandit_party_1","A3J8Y94SGZ3R0E","either","3","476","","","","","","","1","0","0","0.6","","0.5","0.5","0.5","0.5","","","","","0.8","0.2","0.6","0.2","","","","","","","","","","75","K","2","","true","0","full_practice","",""
"","bandit","57","716639","0.0-32.0-6.0","60953882","wem/bandit_party_1","A3J8Y94SGZ3R0E","either","3","9012","","","","","","","0","0","1","0.2","","0.5","0.5","0.5","0.5","","","","","0.8","0.2","0.6","0.2","","","","","","","","","","76","L","3","","true","0","full_practice","",""
"","bandit","58","719244","0.0-32.0-7.0","60953882","wem/bandit_party_1","A3J8Y94SGZ3R0E","either","3","1037","","","","","","","0","0","1","","0.2","0.5","0.5","0.5","0.5","0.8","0.2","0.6","0.2","","","","","","","","","","","","","","74","J","1","","true","0","full_practice","",""
"","bandit","59","721008","0.0-32.0-8.0","60953882","wem/bandit_party_1","A3J8Y94SGZ3R0E","either","3","241","","","","","","","0","1","0","","0.6","0.5","0.5","0.5","0.5","0.8","0.2","0.6","0.2","","","","","","","","","","","","","","75","K","2","","true","0","full_practice","",""
"","bandit","60","722847","0.0-32.0-9.0","60953882","wem/bandit_party_1","A3J8Y94SGZ3R0E","either","3","315","","","","","","","0","1","0","","0.8","0.5","0.5","0.5","0.5","0.8","0.2","0.6","0.2","","","","","","","","","","","","","","72","H","0","img/none_selected.jpg","true","0","full_practice","",""
"","bandit","61","724795","0.0-32.0-10.0","60953882","wem/bandit_party_1","A3J8Y94SGZ3R0E","either","3","373","","","","","","","0","0","1","","0.2","0.5","0.5","0.5","0.5","0.8","0.2","0.6","0.2","","","","","","","","","","","","","","74","J","1","","true","0","full_practice","",""
"","bandit","62","726786","0.0-32.0-11.0","60953882","wem/bandit_party_1","A3J8Y94SGZ3R0E","either","3","472","","","","","","","0","1","0","","0.6","0.5","0.5","0.5","0.5","0.8","0.2","0.6","0.2","","","","","","","","","","","","","","75","K","2","","true","0","full_practice","",""
"","bandit","63","729376","0.0-32.0-12.0","60953882","wem/bandit_party_1","A3J8Y94SGZ3R0E","either","3","1068","","","","","","","0","0","1","","0.6","0.5","0.5","0.5","0.5","0.8","0.2","0.6","0.2","","","","","","","","","","","","","","75","K","2","","true","0","full_practice","",""
"","bandit","64","731108","0.0-32.0-13.0","60953882","wem/bandit_party_1","A3J8Y94SGZ3R0E","either","3","179","","","","","","","0","0","1","","0.6","0.5","0.5","0.5","0.5","0.8","0.2","0.6","0.2","","","","","","","","","","","","","","75","K","2","","true","0","full_practice","",""
"","bandit","65","733658","0.0-32.0-14.0","60953882","wem/bandit_party_1","A3J8Y94SGZ3R0E","either","3","1033","","","","","","","0","0","1","","0.2","0.5","0.5","0.5","0.5","0.8","0.2","0.6","0.2","","","","","","","","","","","","","","74","J","1","","true","0","full_practice","",""
"","bandit","66","735294","0.0-32.0-15.0","60953882","wem/bandit_party_1","A3J8Y94SGZ3R0E","either","3","119","","","","","","","0","0","1","0.2","","0.5","0.5","0.5","0.5","","","","","0.8","0.2","0.6","0.2","","","","","","","","","","76","L","3","","true","0","full_practice","",""
"","bandit","67","736859","0.0-32.0-16.0","60953882","wem/bandit_party_1","A3J8Y94SGZ3R0E","either","3","42","","","","","","","0","0","1","","0.6","0.5","0.5","0.5","0.5","0.8","0.2","0.6","0.2","","","","","","","","","","","","","","75","K","2","","true","0","full_practice","",""
"","bandit","68","740557","0.0-32.0-17.0","60953882","wem/bandit_party_1","A3J8Y94SGZ3R0E","either","3","2174","","","","","","","0","1","0","","0.8","0.5","0.5","0.5","0.5","0.8","0.2","0.6","0.2","","","","","","","","","","","","","","72","H","0","img/none_selected.jpg","true","0","full_practice","",""
"","bandit","69","742496","0.0-32.0-18.0","60953882","wem/bandit_party_1","A3J8Y94SGZ3R0E","either","3","421","","","","","","","0","0","1","0.2","","0.5","0.5","0.5","0.5","","","","","0.8","0.2","0.6","0.2","","","","","","","","","","74","J","1","","true","0","full_practice","",""
"","bandit","70","744384","0.0-32.0-19.0","60953882","wem/bandit_party_1","A3J8Y94SGZ3R0E","either","3","367","","","","","","","0","0","1","","0.6","0.5","0.5","0.5","0.5","0.8","0.2","0.6","0.2","","","","","","","","","","","","","","75","K","2","","true","0","full_practice","",""
"","text","71","748360","0.0-33.0","60953882","wem/bandit_party_1","A3J8Y94SGZ3R0E","either","3","3927","","","32","","","","","","","","","","","","","","","","","","","","","","","","","","","","","","","","","","","","","",""
"","text-replacement","72","770552","0.0-34.0","60953882","wem/bandit_party_1","A3J8Y94SGZ3R0E","either","3","21182","","","32","","","","","","","","","","","","","","","","","","","","","","","","","","","","","","","","","","","","","",""
"","text-replacement","73","776778","0.0-35.0","60953882","wem/bandit_party_1","A3J8Y94SGZ3R0E","either","3","6217","","","32","","","","","","","","","","","","","","","","","","","","","","","","","","","","","","","","","","","","","",""
"","text-replacement","74","779207","0.0-36.0","60953882","wem/bandit_party_1","A3J8Y94SGZ3R0E","either","3","2419","","","32","","","","","","","","","","","","","","","","","","","","","","","","","","","","","","","","","","","","","",""
"","text-replacement","75","781851","0.0-37.0","60953882","wem/bandit_party_1","A3J8Y94SGZ3R0E","either","3","2635","","","32","","","","","","","","","","","","","","","","","","","","","","","","","","","","","","","","","","","","","",""
"","text-replacement","76","799700","0.0-38.0","60953882","wem/bandit_party_1","A3J8Y94SGZ3R0E","either","3","17839","","","32","","","","","","","","","","","","","","","","","","","","","","","","","","","","","","","","","","","","","",""
"","survey-multi-choice-replacement","77","806042","0.0-39.0-0.0","60953882","wem/bandit_party_1","A3J8Y94SGZ3R0E","either","3","6310","","","","","","","","","","","","","","","","","","","","","","","","Money will be added to the pool for <span style='color:blue;'>DEMOCRATS</span>","","","","","","","attn_check","","","","","","","","","0",""
"","survey-multi-choice-replacement","78","824494","0.0-40.0-0.0","60953882","wem/bandit_party_1","A3J8Y94SGZ3R0E","either","3","17418","","","","","","","","","","","","","","","","","","","","","","","","Money will be subtracted from the pool for <span style='color:red;'>REPUBLICANS</span>","","","","","","","attn_check","","","","","","","","","1",""
"","instructions","79","827369","0.0-40.0-1.0-0.0","60953882","wem/bandit_party_1","A3J8Y94SGZ3R0E","either","3","1859","","","","","","","","","","","","","","","","","","","","","","","","","","","","","","","","","","","","","","","","","[{""page_index"":0,""viewing_time"":1857}]"
"","survey-multi-choice-replacement","80","834762","0.0-40.1-0.1","60953882","wem/bandit_party_1","A3J8Y94SGZ3R0E","either","3","6366","","","","","","","","","","","","","","","","","","","","","","","","No money will be added to either pool","","","","","","","attn_check","","","","","","","","","3",""
"","instructions","81","837318","0.0-40.1-1.1-0.1","60953882","wem/bandit_party_1","A3J8Y94SGZ3R0E","either","3","1543","","","","","","","","","","","","","","","","","","","","","","","","","","","","","","","","","","","","","","","","","[{""page_index"":0,""viewing_time"":1541}]"
"","survey-multi-choice-replacement","82","840696","0.0-40.2-0.2","60953882","wem/bandit_party_1","A3J8Y94SGZ3R0E","either","3","2349","","","","","","","","","","","","","","","","","","","","","","","","Equal amounts of money will be added to the pool for <span style='color:blue;'>DEMOCRATS</span> and subtracted from the pool for <span style='color:red;'>REPUBLICANS</span>","","","","","","","attn_check","","","","","","","","","2",""
"","survey-multi-choice-replacement","83","845441","0.0-41.0-0.0","60953882","wem/bandit_party_1","A3J8Y94SGZ3R0E","either","3","3685","","","","","","","","","","","","","","","","","","","","","","","","No money will be added to either pool","","","","","","","attn_check","","","","","","","","","3",""
"","bandit","84","850685","0.0-42.0-0.0","60953882","wem/bandit_party_1","A3J8Y94SGZ3R0E","either","3","2716","","","","","","","0","0","1","0.1426046982","","0.6","0.4","0.2","0.8","","","","","0.1426046982","0.1646489015","0.4870892339","0.07685641067","","","","","","","","","","72","H","0","img/none_selected.jpg","","1","main_expt","",""
"","bandit","85","852892","0.0-43.0-0.0","60953882","wem/bandit_party_1","A3J8Y94SGZ3R0E","either","3","685","","","","","","","0","0","1","","0.4875162112","0.6","0.4","0.2","0.8","0.1597004976","0.2180431119","0.4875162112","0.08388143876","","","","","","","","","","","","","","75","K","2","","","2","main_expt","",""
"","bandit","86","855064","0.0-44.0-0.0","60953882","wem/bandit_party_1","A3J8Y94SGZ3R0E","either","3","638","","","","","","","0","0","1","","0.4909945117","0.6","0.4","0.2","0.8","0.1381850853","0.2294217256","0.4909945117","0.06528774038","","","","","","","","","","","","","","75","K","2","","","3","main_expt","",""
"","bandit","87","857114","0.0-45.0-0.0","60953882","wem/bandit_party_1","A3J8Y94SGZ3R0E","either","3","531","","","","","","","0","0","1","","0.2162119515","0.6","0.4","0.2","0.8","0.1787932262","0.2162119515","0.482579304","0.07987899881","","","","","","","","","","","","","","74","J","1","","","4","main_expt","",""
"","bandit","88","859619","0.0-46.0-0.0","60953882","wem/bandit_party_1","A3J8Y94SGZ3R0E","either","3","983","","","","","","","0","0","1","0.0432391811","","0.6","0.4","0.2","0.8","","","","","0.1795032464","0.2246316054","0.4887913002","0.0432391811","","","","","","","","","","76","L","3","","","5","main_expt","",""
"","bandit","89","861857","0.0-47.0-0.0","60953882","wem/bandit_party_1","A3J8Y94SGZ3R0E","either","3","718","","","","","","","0","0","1","","0.4887860333","0.6","0.4","0.2","0.8","0.164375756","0.2061018479","0.4887860333","0.03467601655","","","","","","","","","","","","","","75","K","2","","","6","main_expt","",""
"","bandit","90","863758","0.0-48.0-0.0","60953882","wem/bandit_party_1","A3J8Y94SGZ3R0E","either","3","378","","","","","","","0","0","1","0.1795347326","","0.6","0.4","0.2","0.8","","","","","0.204957223","0.1795347326","0.4901971563","0.05033951668","","","","","","","","","","74","J","1","","","7","main_expt","",""
"","bandit","91","865667","0.0-49.0-0.0","60953882","wem/bandit_party_1","A3J8Y94SGZ3R0E","either","3","386","","","","","","","0","0","1","","0.4862230721","0.6","0.4","0.2","0.8","0.2162036531","0.1290452752","0.4862230721","0.07676355645","","","","","","","","","","","","","","75","K","2","","","8","main_expt","",""
"","bandit","92","867589","0.0-50.0-0.0","60953882","wem/bandit_party_1","A3J8Y94SGZ3R0E","either","3","398","","","","","","","0","0","1","0.08620859221","","0.6","0.4","0.2","0.8","","","","","0.2167418122","0.1559184374","0.4759730645","0.08620859221","","","","","","","","","","76","L","3","","","9","main_expt","",""
"","bandit","93","869722","0.0-51.0-0.0","60953882","wem/bandit_party_1","A3J8Y94SGZ3R0E","either","3","526","","","","","","","0","0","1","","0.1607923637","0.6","0.4","0.2","0.8","0.1607923637","0.1381514788","0.4560980466","0.1103839657","","","","","","","","","","","","","","72","H","0","img/none_selected.jpg","","10","main_expt","",""
"","bandit","94","871682","0.0-52.0-0.0","60953882","wem/bandit_party_1","A3J8Y94SGZ3R0E","either","3","433","","","","","","","0","0","1","","0.1271140015","0.6","0.4","0.2","0.8","0.1386410957","0.1271140015","0.4775116046","0.1334948588","","","","","","","","","","","","","","74","J","1","","","11","main_expt","",""
"","bandit","95","873206","0.0-53.0-0.0","60953882","wem/bandit_party_1","A3J8Y94SGZ3R0E","either","3","3","","","","","","","0","0","1","","0.4705073552","0.6","0.4","0.2","0.8","0.1718380738","0.1854664659","0.4705073552","0.1535602519","","","","","","","","","","","","","","75","K","2","","","12","main_expt","",""
"","bandit","96","876299","0.0-54.0-0.0","60953882","wem/bandit_party_1","A3J8Y94SGZ3R0E","either","3","1571","","","","","","","0","0","1","0.127854239","","0.6","0.4","0.2","0.8","","","","","0.1686303413","0.1869952656","0.4851887342","0.127854239","","","","","","","","","","76","L","3","","","13","main_expt","",""
"","bandit","97","878138","0.0-55.0-0.0","60953882","wem/bandit_party_1","A3J8Y94SGZ3R0E","either","3","313","","","","","","","0","0","1","","0.4731273917","0.6","0.4","0.2","0.8","0.1460019496","0.2035171393","0.4731273917","0.1507911491","","","","","","","","","","","","","","75","K","2","","","14","main_expt","",""
"","bandit","98","880405","0.0-56.0-0.0","60953882","wem/bandit_party_1","A3J8Y94SGZ3R0E","either","3","744","","","","","","","0","1","0","","0.2800299461","0.6","0.4","0.2","0.8","0.1667614464","0.2800299461","0.4585867004","0.1741212098","","","","","","","","","","","","","","74","J","1","","","15","main_expt","",""
"","bandit","99","882713","0.0-57.0-0.0","60953882","wem/bandit_party_1","A3J8Y94SGZ3R0E","either","3","777","","","","","","","0","1","0","","0.4366533258","0.6","0.4","0.2","0.8","0.1973644546","0.2725454461","0.4366533258","0.1918308831","","","","","","","","","","","","","","75","K","2","","","16","main_expt","",""
"","bandit","100","884767","0.0-58.0-0.0","60953882","wem/bandit_party_1","A3J8Y94SGZ3R0E","either","3","516","","","","","","","0","0","1","","0.1570621471","0.6","0.4","0.2","0.8","0.1873415792","0.1570621471","0.4405228744","0.1950212473","","","","","","","","","","","","","","74","J","1","","","17","main_expt","",""
"","bandit","101","886748","0.0-59.0-0.0","60953882","wem/bandit_party_1","A3J8Y94SGZ3R0E","either","3","458","","","","","","","0","0","1","0.2094813194","","0.6","0.4","0.2","0.8","","","","","0.1875860444","0.1968188506","0.4678551263","0.2094813194","","","","","","","","","","76","L","3","","","18","main_expt","",""
"","bandit","102","889062","0.0-60.0-0.0","60953882","wem/bandit_party_1","A3J8Y94SGZ3R0E","either","3","790","","","","","","","0","0","1","","0.1988439388","0.6","0.4","0.2","0.8","0.1988439388","0.2439518204","0.466140525","0.2628959394","","","","","","","","","","","","","","72","H","0","img/none_selected.jpg","","19","main_expt","",""
"","bandit","103","894271","0.0-61.0-0.0","60953882","wem/bandit_party_1","A3J8Y94SGZ3R0E","either","3","3682","","","","","","","0","0","1","","0.2806117898","0.6","0.4","0.2","0.8","0.1813993393","0.2806117898","0.4094087999","0.2116504525","","","","","","","","","","","","","","74","J","1","","","20","main_expt","",""
"","bandit","104","896063","0.0-62.0-0.0","60953882","wem/bandit_party_1","A3J8Y94SGZ3R0E","either","3","267","","","","","","","0","0","1","","0.4386974508","0.6","0.4","0.2","0.8","0.2012004452","0.2658005831","0.4386974508","0.1904426465","","","","","","","","","","","","","","75","K","2","","","21","main_expt","",""
"","bandit","105","897812","0.0-63.0-0.0","60953882","wem/bandit_party_1","A3J8Y94SGZ3R0E","either","3","226","","","","","","","0","0","1","0.1581796968","","0.6","0.4","0.2","0.8","","","","","0.1958646163","0.2774390086","0.4505723784","0.1581796968","","","","","","","","","","76","L","3","","","22","main_expt","",""
"","bandit","106","899571","0.0-64.0-0.0","60953882","wem/bandit_party_1","A3J8Y94SGZ3R0E","either","3","234","","","","","","","0","1","0","","0.4568000239","0.6","0.4","0.2","0.8","0.2626819079","0.2795917474","0.4568000239","0.2039009352","","","","","","","","","","","","","","75","K","2","","","23","main_expt","",""
"","bandit","107","903045","0.0-65.0-0.0","60953882","wem/bandit_party_1","A3J8Y94SGZ3R0E","either","3","1946","","","","","","","1","0","0","0.2981059477","","0.6","0.4","0.2","0.8","","","","","0.2906682881","0.2981059477","0.4518339256","0.228339491","","","","","","","","","","74","J","1","","","24","main_expt","",""
"","bandit","108","905248","0.0-66.0-0.0","60953882","wem/bandit_party_1","A3J8Y94SGZ3R0E","either","3","677","","","","","","","0","0","1","","0.4120159309","0.6","0.4","0.2","0.8","0.3270173502","0.3272059922","0.4120159309","0.2602465224","","","","","","","","","","","","","","75","K","2","","","25","main_expt","",""
"","bandit","109","907367","0.0-67.0-0.0","60953882","wem/bandit_party_1","A3J8Y94SGZ3R0E","either","3","578","","","","","","","0","0","1","0.1939420306","","0.6","0.4","0.2","0.8","","","","","0.2951289915","0.3369826645","0.4134154185","0.1939420306","","","","","","","","","","76","L","3","","","26","main_expt","",""
"","bandit","110","909688","0.0-68.0-0.0","60953882","wem/bandit_party_1","A3J8Y94SGZ3R0E","either","3","800","","","","","","","1","0","0","0.4031068294","","0.6","0.4","0.2","0.8","","","","","0.3520126272","0.2531212506","0.4031068294","0.2387331149","","","","","","","","","","75","K","2","","","27","main_expt","",""
"","bandit","111","911799","0.0-69.0-0.0","60953882","wem/bandit_party_1","A3J8Y94SGZ3R0E","either","3","576","","","","","","","0","0","1","","0.4305883772","0.6","0.4","0.2","0.8","0.3369287003","0.2170461037","0.4305883772","0.2183458617","","","","","","","","","","","","","","75","K","2","","","28","main_expt","",""
"","bandit","112","914342","0.0-70.0-0.0","60953882","wem/bandit_party_1","A3J8Y94SGZ3R0E","either","3","1019","","","","","","","0","0","1","","0.2346211465","0.6","0.4","0.2","0.8","0.3591799128","0.2346211465","0.4383329838","0.2151501268","","","","","","","","","","","","","","74","J","1","","","29","main_expt","",""
"","bandit","113","917181","0.0-71.0-0.0","60953882","wem/bandit_party_1","A3J8Y94SGZ3R0E","either","3","1315","","","","","","","1","0","0","0.2267233056","","0.6","0.4","0.2","0.8","","","","","0.3324285477","0.2450860663","0.4233276099","0.2267233056","","","","","","","","","","76","L","3","","","30","main_expt","",""
"","bandit","114","922005","0.0-72.0-0.0","60953882","wem/bandit_party_1","A3J8Y94SGZ3R0E","either","3","3300","","","","","","","0","0","1","0.2141169407","","0.6","0.4","0.2","0.8","","","","","0.327032362","0.2141169407","0.4016185005","0.2663701676","","","","","","","","","","74","J","1","","","31","main_expt","",""
"","bandit","115","923545","0.0-73.0-0.0","60953882","wem/bandit_party_1","A3J8Y94SGZ3R0E","either","3","14","","","","","","","0","0","1","","0.4134940178","0.6","0.4","0.2","0.8","0.3230905041","0.2347854155","0.4134940178","0.275969473","","","","","","","","","","","","","","75","K","2","","","32","main_expt","",""
"","bandit","116","925433","0.0-74.0-0.0","60953882","wem/bandit_party_1","A3J8Y94SGZ3R0E","either","3","365","","","","","","","1","0","0","0.246596708","","0.6","0.4","0.2","0.8","","","","","0.2969008969","0.246596708","0.4331174495","0.3365270118","","","","","","","","","","74","J","1","","","33","main_expt","",""
"","bandit","117","926972","0.0-75.0-0.0","60953882","wem/bandit_party_1","A3J8Y94SGZ3R0E","either","3","16","","","","","","","0","0","1","","0.1914370393","0.6","0.4","0.2","0.8","0.2536392951","0.1914370393","0.4454497031","0.2916301021","","","","","","","","","","","","","","74","J","1","","","34","main_expt","",""
"","bandit","118","929099","0.0-76.0-0.0","60953882","wem/bandit_party_1","A3J8Y94SGZ3R0E","either","3","603","","","","","","","1","0","0","0.3236538836","","0.6","0.4","0.2","0.8","","","","","0.2336030597","0.1408207185","0.4419706984","0.3236538836","","","","","","","","","","76","L","3","","","35","main_expt","",""
"","bandit","119","932978","0.0-77.0-0.0","60953882","wem/bandit_party_1","A3J8Y94SGZ3R0E","either","3","2356","","","","","","","0","0","1","","0.4205940312","0.6","0.4","0.2","0.8","0.3110392291","0.09539735145","0.4205940312","0.3317439785","","","","","","","","","","","","","","75","K","2","","","36","main_expt","",""
"","bandit","120","935233","0.0-78.0-0.0","60953882","wem/bandit_party_1","A3J8Y94SGZ3R0E","either","3","730","","","","","","","0","1","0","","0.3620900841","0.6","0.4","0.2","0.8","0.3354302382","0.08867332122","0.4227305347","0.3620900841","","","","","","","","","","","","","","76","L","3","","","37","main_expt","",""
"","bandit","121","938877","0.0-79.0-0.0","60953882","wem/bandit_party_1","A3J8Y94SGZ3R0E","either","3","2118","","","","","","","1","0","0","0.3359947902","","0.6","0.4","0.2","0.8","","","","","0.3359947902","0.0804097964","0.3904174821","0.3649119955","","","","","","","","","","72","H","0","img/none_selected.jpg","","38","main_expt","",""
"","bandit","122","941489","0.0-80.0-0.0","60953882","wem/bandit_party_1","A3J8Y94SGZ3R0E","either","3","1085","","","","","","","0","0","1","","0.1092906338","0.6","0.4","0.2","0.8","0.3719467902","0.1092906338","0.3704092514","0.3993258453","","","","","","","","","","","","","","74","J","1","","","39","main_expt","",""
"","bandit","123","944575","0.0-81.0-0.0","60953882","wem/bandit_party_1","A3J8Y94SGZ3R0E","either","3","1563","","","","","","","0","1","0","","0.3250394812","0.6","0.4","0.2","0.8","0.37180955","0.08771014895","0.3250394812","0.43145226","","","","","","","","","","","","","","75","K","2","","","40","main_expt","",""
"","bandit","124","947067","0.0-82.0-0.0","60953882","wem/bandit_party_1","A3J8Y94SGZ3R0E","either","3","967","","","","","","","0","0","1","","0.3925837484","0.6","0.4","0.2","0.8","0.3972707938","0.1065106481","0.3633775572","0.3925837484","","","","","","","","","","","","","","76","L","3","","","41","main_expt","",""
"","bandit","125","949488","0.0-83.0-0.0","60953882","wem/bandit_party_1","A3J8Y94SGZ3R0E","either","3","897","","","","","","","0","0","1","0.3708570881","","0.6","0.4","0.2","0.8","","","","","0.3981555674","0.0926848955","0.3708570881","0.4020613291","","","","","","","","","","75","K","2","","","42","main_expt","",""
"","bandit","126","951492","0.0-84.0-0.0","60953882","wem/bandit_party_1","A3J8Y94SGZ3R0E","either","3","480","","","","","","","0","0","1","0.09213729174","","0.6","0.4","0.2","0.8","","","","","0.3698022864","0.09213729174","0.3852030547","0.4199094288","","","","","","","","","","74","J","1","","","43","main_expt","",""
"","bandit","127","953261","0.0-85.0-0.0","60953882","wem/bandit_party_1","A3J8Y94SGZ3R0E","either","3","247","","","","","","","0","0","1","","0.3653477133","0.6","0.4","0.2","0.8","0.3278340923","0.0950319608","0.3653477133","0.4362917367","","","","","","","","","","","","","","75","K","2","","","44","main_expt","",""
"","bandit","128","955352","0.0-86.0-0.0","60953882","wem/bandit_party_1","A3J8Y94SGZ3R0E","either","3","565","","","","","","","0","0","1","","0.07917944011","0.6","0.4","0.2","0.8","0.4004869948","0.07917944011","0.3423722135","0.4310393502","","","","","","","","","","","","","","74","J","1","","","45","main_expt","",""
"","bandit","129","958057","0.0-87.0-0.0","60953882","wem/bandit_party_1","A3J8Y94SGZ3R0E","either","3","1183","","","","","","","0","0","1","0.4389658195","","0.6","0.4","0.2","0.8","","","","","0.4389658195","0.08528552535","0.2713785315","0.4301719659","","","","","","","","","","72","H","0","img/none_selected.jpg","","46","main_expt","",""
"","bandit","130","960074","0.0-88.0-0.0","60953882","wem/bandit_party_1","A3J8Y94SGZ3R0E","either","3","490","","","","","","","1","0","0","0.4274268526","","0.6","0.4","0.2","0.8","","","","","0.4294918489","0.08303267599","0.2675382036","0.4274268526","","","","","","","","","","76","L","3","","","47","main_expt","",""
"","bandit","131","962266","0.0-89.0-0.0","60953882","wem/bandit_party_1","A3J8Y94SGZ3R0E","either","3","664","","","","","","","0","0","1","","0.3006553151","0.6","0.4","0.2","0.8","0.3948346084","0.1183490009","0.3006553151","0.4559220927","","","","","","","","","","","","","","75","K","2","","","48","main_expt","",""
"","bandit","132","965072","0.0-90.0-0.0","60953882","wem/bandit_party_1","A3J8Y94SGZ3R0E","either","3","1276","","","","","","","0","0","1","","0.09831357925","0.6","0.4","0.2","0.8","0.4226663974","0.09831357925","0.2865645246","0.4362936898","","","","","","","","","","","","","","74","J","1","","","49","main_expt","",""
"","bandit","133","967471","0.0-91.0-0.0","60953882","wem/bandit_party_1","A3J8Y94SGZ3R0E","either","3","874","","","","","","","0","1","0","","0.3943232949","0.6","0.4","0.2","0.8","0.3943232949","0.0896163698","0.2842330123","0.4001593617","","","","","","","","","","","","","","72","H","0","img/none_selected.jpg","","50","main_expt","",""
"","bandit","134","969798","0.0-92.0-0.0","60953882","wem/bandit_party_1","A3J8Y94SGZ3R0E","either","3","797","","","","","","","1","0","0","0.3737598101","","0.6","0.4","0.2","0.8","","","","","0.3911898034","0.08239790895","0.2933637591","0.3737598101","","","","","","","","","","76","L","3","","","51","main_expt","",""
"","bandit","135","972878","0.0-93.0-0.0","60953882","wem/bandit_party_1","A3J8Y94SGZ3R0E","either","3","1554","","","","","","","1","0","0","0.2802127762","","0.6","0.4","0.2","0.8","","","","","0.3897106723","0.06509061927","0.2802127762","0.3490564905","","","","","","","","","","75","K","2","","","52","main_expt","",""
"","bandit","136","976224","0.0-94.0-0.0","60953882","wem/bandit_party_1","A3J8Y94SGZ3R0E","either","3","1817","","","","","","","0","0","1","0.3977919118","","0.6","0.4","0.2","0.8","","","","","0.3977919118","0.05503049918","0.2567133084","0.3606416198","","","","","","","","","","72","H","0","img/none_selected.jpg","","53","main_expt","",""
"","bandit","137","978617","0.0-95.0-0.0","60953882","wem/bandit_party_1","A3J8Y94SGZ3R0E","either","3","863","","","","","","","0","0","1","","0.06606451817","0.6","0.4","0.2","0.8","0.3803623479","0.06606451817","0.304436262","0.3920172378","","","","","","","","","","","","","","74","J","1","","","54","main_expt","",""
"","bandit","138","980657","0.0-96.0-0.0","60953882","wem/bandit_party_1","A3J8Y94SGZ3R0E","either","3","511","","","","","","","0","0","1","","0.3050376594","0.6","0.4","0.2","0.8","0.3898030924","0.0812436444","0.3050376594","0.3841867886","","","","","","","","","","","","","","75","K","2","","","55","main_expt","",""
"","bandit","139","982952","0.0-97.0-0.0","60953882","wem/bandit_party_1","A3J8Y94SGZ3R0E","either","3","761","","","","","","","0","0","1","0.3752679739","","0.6","0.4","0.2","0.8","","","","","0.4332266089","0.05752214818","0.2874076515","0.3752679739","","","","","","","","","","76","L","3","","","56","main_expt","",""
"","bandit","140","985028","0.0-98.0-0.0","60953882","wem/bandit_party_1","A3J8Y94SGZ3R0E","either","3","549","","","","","","","0","0","1","","0.2633226407","0.6","0.4","0.2","0.8","0.4598680415","0.05957573693","0.2633226407","0.3595388075","","","","","","","","","","","","","","75","K","2","","","57","main_expt","",""
"","bandit","141","987293","0.0-99.0-0.0","60953882","wem/bandit_party_1","A3J8Y94SGZ3R0E","either","3","741","","","","","","","0","0","1","","0.08347810371","0.6","0.4","0.2","0.8","0.4510058242","0.08347810371","0.282557186","0.2926617498","","","","","","","","","","","","","","74","J","1","","","58","main_expt","",""
"","bandit","142","989580","0.0-100.0-0.0","60953882","wem/bandit_party_1","A3J8Y94SGZ3R0E","either","3","759","","","","","","","0","0","1","0.2854140482","","0.6","0.4","0.2","0.8","","","","","0.4587464736","0.1166757522","0.2675679041","0.2854140482","","","","","","","","","","76","L","3","","","59","main_expt","",""
"","bandit","143","992267","0.0-101.0-0.0","60953882","wem/bandit_party_1","A3J8Y94SGZ3R0E","either","3","1160","","","","","","","0","0","1","0.1223048521","","0.6","0.4","0.2","0.8","","","","","0.4534111386","0.1223048521","0.2654645802","0.2767785787","","","","","","","","","","74","J","1","","","60","main_expt","",""
"","bandit","144","995262","0.0-102.0-0.0","60953882","wem/bandit_party_1","A3J8Y94SGZ3R0E","either","3","1463","","","","","","","0","0","1","0.2326588137","","0.6","0.4","0.2","0.8","","","","","0.4581751116","0.1341525672","0.2326588137","0.3110110239","","","","","","","","","","75","K","2","","","61","main_expt","",""
"","bandit","145","997552","0.0-103.0-0.0","60953882","wem/bandit_party_1","A3J8Y94SGZ3R0E","either","3","752","","","","","","","0","0","1","0.2739379344","","0.6","0.4","0.2","0.8","","","","","0.4447189615","0.1748443247","0.2430345153","0.2739379344","","","","","","","","","","76","L","3","","","62","main_expt","",""
"","bandit","146","999815","0.0-104.0-0.0","60953882","wem/bandit_party_1","A3J8Y94SGZ3R0E","either","3","736","","","","","","","0","0","1","","0.4351057758","0.6","0.4","0.2","0.8","0.4351057758","0.1872250423","0.2682261916","0.2518438402","","","","","","","","","","","","","","72","H","0","img/none_selected.jpg","","63","main_expt","",""
"","bandit","147","1002114","0.0-105.0-0.0","60953882","wem/bandit_party_1","A3J8Y94SGZ3R0E","either","3","773","","","","","","","0","0","1","","0.1592276408","0.6","0.4","0.2","0.8","0.4559228662","0.1592276408","0.3136585585","0.216118181","","","","","","","","","","","","","","74","J","1","","","64","main_expt","",""
"","bandit","148","1004226","0.0-106.0-0.0","60953882","wem/bandit_party_1","A3J8Y94SGZ3R0E","either","3","587","","","","","","","0","1","0","","0.3208042698","0.6","0.4","0.2","0.8","0.4526438492","0.1881419285","0.3208042698","0.1961712117","","","","","","","","","","","","","","75","K","2","","","65","main_expt","",""
"","bandit","149","1006433","0.0-107.0-0.0","60953882","wem/bandit_party_1","A3J8Y94SGZ3R0E","either","3","678","","","","","","","0","0","1","0.1821057022","","0.6","0.4","0.2","0.8","","","","","0.4604690516","0.2075830042","0.3550213758","0.1821057022","","","","","","","","","","76","L","3","","","66","main_expt","",""
"","bandit","150","1008596","0.0-108.0-0.0","60953882","wem/bandit_party_1","A3J8Y94SGZ3R0E","either","3","634","","","","","","","0","0","1","0.210321401","","0.6","0.4","0.2","0.8","","","","","0.4479534522","0.210321401","0.2883445083","0.2221692745","","","","","","","","","","74","J","1","","","67","main_expt","",""
"","bandit","151","1010436","0.0-109.0-0.0","60953882","wem/bandit_party_1","A3J8Y94SGZ3R0E","either","3","304","","","","","","","0","1","0","","0.2492112051","0.6","0.4","0.2","0.8","0.4420076102","0.1740681144","0.2492112051","0.2385328342","","","","","","","","","","","","","","75","K","2","","","68","main_expt","",""
"","bandit","152","1012612","0.0-110.0-0.0","60953882","wem/bandit_party_1","A3J8Y94SGZ3R0E","either","3","644","","","","","","","0","1","0","","0.3840886122","0.6","0.4","0.2","0.8","0.3840886122","0.1495678232","0.1725364023","0.2693988132","","","","","","","","","","","","","","72","H","0","img/none_selected.jpg","","69","main_expt","",""
"","bandit","153","1014666","0.0-111.0-0.0","60953882","wem/bandit_party_1","A3J8Y94SGZ3R0E","either","3","531","","","","","","","0","1","0","","0.1594524764","0.6","0.4","0.2","0.8","0.3764426572","0.1594524764","0.2081322216","0.2633889128","","","","","","","","","","","","","","74","J","1","","","70","main_expt","",""
"","bandit","154","1016734","0.0-112.0-0.0","60953882","wem/bandit_party_1","A3J8Y94SGZ3R0E","either","3","533","","","","","","","0","0","1","","0.1308665948","0.6","0.4","0.2","0.8","0.3925575972","0.1308665948","0.2222096595","0.2881785301","","","","","","","","","","","","","","74","J","1","","","71","main_expt","",""
"","bandit","155","1018779","0.0-113.0-0.0","60953882","wem/bandit_party_1","A3J8Y94SGZ3R0E","either","3","504","","","","","","","0","0","1","","0.2276413934","0.6","0.4","0.2","0.8","0.4055717031","0.1413665491","0.2276413934","0.3496752211","","","","","","","","","","","","","","75","K","2","","","72","main_expt","",""
"","bandit","156","1021084","0.0-114.0-0.0","60953882","wem/bandit_party_1","A3J8Y94SGZ3R0E","either","3","779","","","","","","","1","0","0","0.3662649551","","0.6","0.4","0.2","0.8","","","","","0.4313753627","0.1562096843","0.202726327","0.3662649551","","","","","","","","","","76","L","3","","","73","main_expt","",""
"","bandit","157","1023300","0.0-115.0-0.0","60953882","wem/bandit_party_1","A3J8Y94SGZ3R0E","either","3","689","","","","","","","0","0","1","0.3318597218","","0.6","0.4","0.2","0.8","","","","","0.4294283137","0.1601549975","0.2465356434","0.3318597218","","","","","","","","","","76","L","3","","","74","main_expt","",""
"","bandit","158","1025349","0.0-116.0-0.0","60953882","wem/bandit_party_1","A3J8Y94SGZ3R0E","either","3","519","","","","","","","1","0","0","0.2780880013","","0.6","0.4","0.2","0.8","","","","","0.4114775526","0.1962365409","0.2780880013","0.3129946244","","","","","","","","","","75","K","2","","","75","main_expt","",""
"","bandit","159","1027443","0.0-117.0-0.0","60953882","wem/bandit_party_1","A3J8Y94SGZ3R0E","either","3","569","","","","","","","0","0","1","","0.3299880354","0.6","0.4","0.2","0.8","0.4038916894","0.2315068675","0.230570622","0.3299880354","","","","","","","","","","","","","","76","L","3","","","76","main_expt","",""
"","bandit","160","1029887","0.0-118.0-0.0","60953882","wem/bandit_party_1","A3J8Y94SGZ3R0E","either","3","908","","","","","","","0","0","1","0.1747897532","","0.6","0.4","0.2","0.8","","","","","0.4028298088","0.1749603823","0.1747897532","0.2704336052","","","","","","","","","","75","K","2","","","77","main_expt","",""
"","bandit","161","1032252","0.0-119.0-0.0","60953882","wem/bandit_party_1","A3J8Y94SGZ3R0E","either","3","805","","","","","","","0","0","1","","0.2091975686","0.6","0.4","0.2","0.8","0.4004321452","0.2091975686","0.2009150394","0.2489008917","","","","","","","","","","","","","","74","J","1","","","78","main_expt","",""
"","bandit","162","1034332","0.0-120.0-0.0","60953882","wem/bandit_party_1","A3J8Y94SGZ3R0E","either","3","545","","","","","","","1","0","0","0.2699334682","","0.6","0.4","0.2","0.8","","","","","0.3909827091","0.2699334682","0.2090883318","0.2182462247","","","","","","","","","","74","J","1","","","79","main_expt","",""
"","bandit","163","1039371","0.0-121.0-0.0","60953882","wem/bandit_party_1","A3J8Y94SGZ3R0E","either","3","3510","","","","","","","0","0","1","","0.2712134299","0.6","0.4","0.2","0.8","0.4289339141","0.2712134299","0.215522018","0.1591694045","","","","","","","","","","","","","","74","J","1","","","80","main_expt","",""
"","bandit","164","1045661","0.0-122.0-0.0","60953882","wem/bandit_party_1","A3J8Y94SGZ3R0E","either","3","4757","","","","","","","0","0","1","0.2563236188","","0.6","0.4","0.2","0.8","","","","","0.4256341571","0.2563236188","0.2655955182","0.1661146317","","","","","","","","","","74","J","1","","","81","main_expt","",""
"","bandit","165","1048507","0.0-123.0-0.0","60953882","wem/bandit_party_1","A3J8Y94SGZ3R0E","either","3","1314","","","","","","","0","0","1","","0.2642342948","0.6","0.4","0.2","0.8","0.4153375647","0.2474856626","0.2642342948","0.2249160828","","","","","","","","","","","","","","75","K","2","","","82","main_expt","",""
"","bandit","166","1050739","0.0-124.0-0.0","60953882","wem/bandit_party_1","A3J8Y94SGZ3R0E","either","3","701","","","","","","","1","0","0","0.2194800234","","0.6","0.4","0.2","0.8","","","","","0.4239102097","0.2338037125","0.2615040017","0.2194800234","","","","","","","","","","76","L","3","","","83","main_expt","",""
"","bandit","167","1053313","0.0-125.0-0.0","60953882","wem/bandit_party_1","A3J8Y94SGZ3R0E","either","3","1047","","","","","","","0","0","1","","0.4021041833","0.6","0.4","0.2","0.8","0.4021041833","0.2929655049","0.3136368113","0.2020024956","","","","","","","","","","","","","","72","H","0","img/none_selected.jpg","","84","main_expt","",""
"","bandit","168","1055442","0.0-126.0-0.0","60953882","wem/bandit_party_1","A3J8Y94SGZ3R0E","either","3","598","","","","","","","0","0","1","","0.2433538552","0.6","0.4","0.2","0.8","0.4322374594","0.2755572306","0.2433538552","0.1639230135","","","","","","","","","","","","","","75","K","2","","","85","main_expt","",""
"","bandit","169","1057477","0.0-127.0-0.0","60953882","wem/bandit_party_1","A3J8Y94SGZ3R0E","either","3","508","","","","","","","0","0","1","0.2706615249","","0.6","0.4","0.2","0.8","","","","","0.4247618508","0.2706615249","0.2583740773","0.1423092638","","","","","","","","","","74","J","1","","","86","main_expt","",""
"","bandit","170","1059636","0.0-128.0-0.0","60953882","wem/bandit_party_1","A3J8Y94SGZ3R0E","either","3","634","","","","","","","0","0","1","0.1623313408","","0.6","0.4","0.2","0.8","","","","","0.4130492334","0.3259805539","0.2656778135","0.1623313408","","","","","","","","","","76","L","3","","","87","main_expt","",""
"","bandit","171","1062097","0.0-129.0-0.0","60953882","wem/bandit_party_1","A3J8Y94SGZ3R0E","either","3","932","","","","","","","0","0","1","","0.2565525481","0.6","0.4","0.2","0.8","0.3883747858","0.3471137027","0.2565525481","0.1459946163","","","","","","","","","","","","","","75","K","2","","","88","main_expt","",""
"","bandit","172","1063689","0.0-130.0-0.0","60953882","wem/bandit_party_1","A3J8Y94SGZ3R0E","either","3","48","","","","","","","0","0","1","","0.3715311126","0.6","0.4","0.2","0.8","0.3950807547","0.3715311126","0.2471999074","0.1684807643","","","","","","","","","","","","","","74","J","1","","","89","main_expt","",""
"","bandit","173","1065931","0.0-131.0-0.0","60953882","wem/bandit_party_1","A3J8Y94SGZ3R0E","either","3","709","","","","","","","0","1","0","","0.1937692241","0.6","0.4","0.2","0.8","0.420982679","0.3571728809","0.2204199549","0.1937692241","","","","","","","","","","","","","","76","L","3","","","90","main_expt","",""
"","bandit","174","1068088","0.0-132.0-0.0","60953882","wem/bandit_party_1","A3J8Y94SGZ3R0E","either","3","626","","","","","","","0","0","1","","0.4012606491","0.6","0.4","0.2","0.8","0.4012606491","0.3348642023","0.2013548925","0.1670397906","","","","","","","","","","","","","","72","H","0","img/none_selected.jpg","","91","main_expt","",""
"","bandit","175","1070050","0.0-133.0-0.0","60953882","wem/bandit_party_1","A3J8Y94SGZ3R0E","either","3","432","","","","","","","0","0","1","","0.174921714","0.6","0.4","0.2","0.8","0.3950870333","0.3551195155","0.174921714","0.1936095216","","","","","","","","","","","","","","75","K","2","","","92","main_expt","",""
"","bandit","176","1072062","0.0-134.0-0.0","60953882","wem/bandit_party_1","A3J8Y94SGZ3R0E","either","3","485","","","","","","","0","0","1","","0.3494458231","0.6","0.4","0.2","0.8","0.3797372222","0.3494458231","0.1972058505","0.2399824117","","","","","","","","","","","","","","74","J","1","","","93","main_expt","",""
"","bandit","177","1074099","0.0-135.0-0.0","60953882","wem/bandit_party_1","A3J8Y94SGZ3R0E","either","3","509","","","","","","","0","0","1","0.242536602","","0.6","0.4","0.2","0.8","","","","","0.3346339076","0.3759818745","0.2144007407","0.242536602","","","","","","","","","","76","L","3","","","94","main_expt","",""
"","bandit","178","1076280","0.0-136.0-0.0","60953882","wem/bandit_party_1","A3J8Y94SGZ3R0E","either","3","652","","","","","","","0","0","1","","0.3081296623","0.6","0.4","0.2","0.8","0.3433005441","0.3467088588","0.2025691914","0.3081296623","","","","","","","","","","","","","","76","L","3","","","95","main_expt","",""
"","bandit","179","1078039","0.0-137.0-0.0","60953882","wem/bandit_party_1","A3J8Y94SGZ3R0E","either","3","226","","","","","","","0","0","1","","0.1750118246","0.6","0.4","0.2","0.8","0.2900415689","0.3520186383","0.1750118246","0.371766452","","","","","","","","","","","","","","75","K","2","","","96","main_expt","",""
"","bandit","180","1080246","0.0-138.0-0.0","60953882","wem/bandit_party_1","A3J8Y94SGZ3R0E","either","3","680","","","","","","","0","1","0","","0.3737721809","0.6","0.4","0.2","0.8","0.3136050561","0.342216001","0.2433812568","0.3737721809","","","","","","","","","","","","","","76","L","3","","","97","main_expt","",""
"","bandit","181","1083067","0.0-139.0-0.0","60953882","wem/bandit_party_1","A3J8Y94SGZ3R0E","either","3","1293","","","","","","","0","0","1","","0.1834100281","0.6","0.4","0.2","0.8","0.3236610102","0.3775958225","0.1834100281","0.3662625892","","","","","","","","","","","","","","75","K","2","","","98","main_expt","",""
"","bandit","182","1086408","0.0-140.0-0.0","60953882","wem/bandit_party_1","A3J8Y94SGZ3R0E","either","3","1807","","","","","","","1","0","0","0.3490624926","","0.6","0.4","0.2","0.8","","","","","0.3116662608","0.3490624926","0.146161558","0.3912879072","","","","","","","","","","74","J","1","","","99","main_expt","",""
"","bandit","183","1091993","0.0-141.0-0.0","60953882","wem/bandit_party_1","A3J8Y94SGZ3R0E","either","3","4056","","","","","","","0","0","1","0.3806420769","","0.6","0.4","0.2","0.8","","","","","0.3806420769","0.3418910903","0.1186266926","0.3916888764","","","","","","","","","","72","H","0","img/none_selected.jpg","","100","main_expt","",""
"","bandit","184","1094628","0.0-142.0-0.0","60953882","wem/bandit_party_1","A3J8Y94SGZ3R0E","either","3","1105","","","","","","","0","0","1","","0.1467879228","0.6","0.4","0.2","0.8","0.3825052475","0.3544055354","0.1467879228","0.3803758031","","","","","","","","","","","","","","75","K","2","","","101","main_expt","",""
"","bandit","185","1096442","0.0-143.0-0.0","60953882","wem/bandit_party_1","A3J8Y94SGZ3R0E","either","3","274","","","","","","","0","0","1","0.3685266224","","0.6","0.4","0.2","0.8","","","","","0.3799327693","0.3580864163","0.1336514036","0.3685266224","","","","","","","","","","76","L","3","","","102","main_expt","",""
"","bandit","186","1098974","0.0-144.0-0.0","60953882","wem/bandit_party_1","A3J8Y94SGZ3R0E","either","3","1004","","","","","","","0","0","1","","0.1325092095","0.6","0.4","0.2","0.8","0.3502018886","0.336528594","0.1325092095","0.3754978655","","","","","","","","","","","","","","75","K","2","","","103","main_expt","",""
"","bandit","187","1102431","0.0-145.0-0.0","60953882","wem/bandit_party_1","A3J8Y94SGZ3R0E","either","3","1927","","","","","","","0","0","1","","0.4033056484","0.6","0.4","0.2","0.8","0.3443431466","0.3190078166","0.1162839287","0.4033056484","","","","","","","","","","","","","","76","L","3","","","104","main_expt","",""
"","bandit","188","1105659","0.0-146.0-0.0","60953882","wem/bandit_party_1","A3J8Y94SGZ3R0E","either","3","1688","","","","","","","1","0","0","0.3551378046","","0.6","0.4","0.2","0.8","","","","","0.3551378046","0.3100940773","0.115620258","0.3617388181","","","","","","","","","","72","H","0","img/none_selected.jpg","","105","main_expt","",""
"","bandit","189","1109280","0.0-147.0-0.0","60953882","wem/bandit_party_1","A3J8Y94SGZ3R0E","either","3","2081","","","","","","","0","0","1","","0.2964842485","0.6","0.4","0.2","0.8","0.3177956882","0.2964842485","0.1102569517","0.3656875331","","","","","","","","","","","","","","74","J","1","","","106","main_expt","",""
"","bandit","190","1111491","0.0-148.0-0.0","60953882","wem/bandit_party_1","A3J8Y94SGZ3R0E","either","3","682","","","","","","","0","0","1","","0.110599846","0.6","0.4","0.2","0.8","0.3463124521","0.3224579283","0.110599846","0.3478183852","","","","","","","","","","","","","","75","K","2","","","107","main_expt","",""
"","bandit","191","1113127","0.0-149.0-0.0","60953882","wem/bandit_party_1","A3J8Y94SGZ3R0E","either","3","109","","","","","","","0","0","1","0.3715517583","","0.6","0.4","0.2","0.8","","","","","0.330790185","0.3365568187","0.1647947233","0.3715517583","","","","","","","","","","76","L","3","","","108","main_expt","",""
"","bandit","192","1115388","0.0-150.0-0.0","60953882","wem/bandit_party_1","A3J8Y94SGZ3R0E","either","3","731","","","","","","","0","0","1","0.3259779601","","0.6","0.4","0.2","0.8","","","","","0.3259779601","0.3200824859","0.146095753","0.3713851569","","","","","","","","","","72","H","0","img/none_selected.jpg","","109","main_expt","",""
"","bandit","193","1119076","0.0-151.0-0.0","60953882","wem/bandit_party_1","A3J8Y94SGZ3R0E","either","3","2158","","","","","","","0","0","1","0.3169053314","","0.6","0.4","0.2","0.8","","","","","0.3169053314","0.3179471713","0.1691954855","0.3401672382","","","","","","","","","","72","H","0","img/none_selected.jpg","","110","main_expt","",""
"","bandit","194","1121050","0.0-152.0-0.0","60953882","wem/bandit_party_1","A3J8Y94SGZ3R0E","either","3","441","","","","","","","0","0","1","","0.3168158386","0.6","0.4","0.2","0.8","0.342138516","0.3168158386","0.1690298198","0.3242328008","","","","","","","","","","","","","","74","J","1","","","111","main_expt","",""
"","bandit","195","1124259","0.0-153.0-0.0","60953882","wem/bandit_party_1","A3J8Y94SGZ3R0E","either","3","1678","","","","","","","0","1","0","","0.3551606626","0.6","0.4","0.2","0.8","0.3597886873","0.3551606626","0.2196992501","0.2991119965","","","","","","","","","","","","","","74","J","1","","","112","main_expt","",""
"","bandit","196","1125843","0.0-154.0-0.0","60953882","wem/bandit_party_1","A3J8Y94SGZ3R0E","either","3","57","","","","","","","1","0","0","0.3364281798","","0.6","0.4","0.2","0.8","","","","","0.3580549124","0.3615444015","0.2723467559","0.3364281798","","","","","","","","","","76","L","3","","","113","main_expt","",""
"","bandit","197","1129284","0.0-155.0-0.0","60953882","wem/bandit_party_1","A3J8Y94SGZ3R0E","either","3","1913","","","","","","","0","0","1","","0.2470985199","0.6","0.4","0.2","0.8","0.3556181037","0.4043222556","0.2470985199","0.3495122724","","","","","","","","","","","","","","75","K","2","","","114","main_expt","",""
"","bandit","198","1131882","0.0-156.0-0.0","60953882","wem/bandit_party_1","A3J8Y94SGZ3R0E","either","3","1066","","","","","","","0","1","0","","0.2482590513","0.6","0.4","0.2","0.8","0.3489042174","0.4179696435","0.2482590513","0.324938203","","","","","","","","","","","","","","75","K","2","","","115","main_expt","",""
"","bandit","199","1135688","0.0-157.0-0.0","60953882","wem/bandit_party_1","A3J8Y94SGZ3R0E","either","3","2279","","","","","","","0","1","0","","0.4324393975","0.6","0.4","0.2","0.8","0.3466245191","0.4324393975","0.1992012358","0.3227512736","","","","","","","","","","","","","","74","J","1","","","116","main_expt","",""
"","bandit","200","1138877","0.0-158.0-0.0","60953882","wem/bandit_party_1","A3J8Y94SGZ3R0E","either","3","1653","","","","","","","0","0","1","","0.2585209305","0.6","0.4","0.2","0.8","0.3581754781","0.4290779421","0.216355905","0.2585209305","","","","","","","","","","","","","","76","L","3","","","117","main_expt","",""
"","bandit","201","1141369","0.0-159.0-0.0","60953882","wem/bandit_party_1","A3J8Y94SGZ3R0E","either","3","960","","","","","","","0","0","1","0.283939031","","0.6","0.4","0.2","0.8","","","","","0.283939031","0.4459264202","0.1715453935","0.2817260076","","","","","","","","","","72","H","0","img/none_selected.jpg","","118","main_expt","",""
"","bandit","202","1143736","0.0-160.0-0.0","60953882","wem/bandit_party_1","A3J8Y94SGZ3R0E","either","3","839","","","","","","","0","1","0","","0.436995295","0.6","0.4","0.2","0.8","0.2992634423","0.436995295","0.1843456939","0.328214026","","","","","","","","","","","","","","74","J","1","","","119","main_expt","",""
"","bandit","203","1146660","0.0-161.0-0.0","60953882","wem/bandit_party_1","A3J8Y94SGZ3R0E","either","3","1391","","","","","","","0","0","1","","0.3355603121","0.6","0.4","0.2","0.8","0.1878150733","0.4151314625","0.1848061615","0.3355603121","","","","","","","","","","","","","","76","L","3","","","120","main_expt","",""
"","bandit","204","1149551","0.0-162.0-0.0","60953882","wem/bandit_party_1","A3J8Y94SGZ3R0E","either","3","1344","","","","","","","0","0","1","","0.1679578636","0.6","0.4","0.2","0.8","0.1447458933","0.4384064527","0.1679578636","0.3829587724","","","","","","","","","","","","","","75","K","2","","","121","main_expt","",""
"","bandit","205","1151383","0.0-163.0-0.0","60953882","wem/bandit_party_1","A3J8Y94SGZ3R0E","either","3","300","","","","","","","0","0","1","0.4417589501","","0.6","0.4","0.2","0.8","","","","","0.1176060398","0.4417589501","0.197295971","0.3995678287","","","","","","","","","","74","J","1","","","122","main_expt","",""
"","bandit","206","1153113","0.0-164.0-0.0","60953882","wem/bandit_party_1","A3J8Y94SGZ3R0E","either","3","203","","","","","","","1","0","0","0.3656739583","","0.6","0.4","0.2","0.8","","","","","0.1097677055","0.4017154396","0.2184653352","0.3656739583","","","","","","","","","","76","L","3","","","123","main_expt","",""
"","bandit","207","1155952","0.0-165.0-0.0","60953882","wem/bandit_party_1","A3J8Y94SGZ3R0E","either","3","1309","","","","","","","0","0","1","0.3862549257","","0.6","0.4","0.2","0.8","","","","","0.08048168986","0.3619070526","0.2147868977","0.3862549257","","","","","","","","","","76","L","3","","","124","main_expt","",""
"","bandit","208","1157933","0.0-166.0-0.0","60953882","wem/bandit_party_1","A3J8Y94SGZ3R0E","either","3","444","","","","","","","0","0","1","","0.1667936559","0.6","0.4","0.2","0.8","0.07842900555","0.3567490645","0.1667936559","0.3593796239","","","","","","","","","","","","","","75","K","2","","","125","main_expt","",""
"","bandit","209","1160309","0.0-167.0-0.0","60953882","wem/bandit_party_1","A3J8Y94SGZ3R0E","either","3","843","","","","","","","0","0","1","0.3558473019","","0.6","0.4","0.2","0.8","","","","","0.08318363027","0.3558473019","0.1453295256","0.3413194209","","","","","","","","","","74","J","1","","","126","main_expt","",""
"","bandit","210","1162475","0.0-168.0-0.0","60953882","wem/bandit_party_1","A3J8Y94SGZ3R0E","either","3","634","","","","","","","0","0","1","0.3369929262","","0.6","0.4","0.2","0.8","","","","","0.06812438963","0.3543069734","0.1635755653","0.3369929262","","","","","","","","","","76","L","3","","","127","main_expt","",""
"","bandit","211","1164320","0.0-169.0-0.0","60953882","wem/bandit_party_1","A3J8Y94SGZ3R0E","either","3","315","","","","","","","0","0","1","0.1872639566","","0.6","0.4","0.2","0.8","","","","","0.08303766286","0.3328374851","0.1872639566","0.2922989636","","","","","","","","","","75","K","2","","","128","main_expt","",""
"","bandit","212","1166208","0.0-170.0-0.0","60953882","wem/bandit_party_1","A3J8Y94SGZ3R0E","either","3","357","","","","","","","0","1","0","","0.3238683282","0.6","0.4","0.2","0.8","0.09047360051","0.3238683282","0.2032718864","0.3095146075","","","","","","","","","","","","","","74","J","1","","","129","main_expt","",""
"","bandit","213","1168569","0.0-171.0-0.0","60953882","wem/bandit_party_1","A3J8Y94SGZ3R0E","either","3","832","","","","","","","0","0","1","","0.131542256","0.6","0.4","0.2","0.8","0.131542256","0.2750329062","0.2025864764","0.3068425872","","","","","","","","","","","","","","72","H","0","img/none_selected.jpg","","130","main_expt","",""
"","bandit","214","1173141","0.0-172.0-0.0","60953882","wem/bandit_party_1","A3J8Y94SGZ3R0E","either","3","3040","","","","","","","0","1","0","","0.2158584071","0.6","0.4","0.2","0.8","0.1492019489","0.2751886228","0.2158584071","0.3112504131","","","","","","","","","","","","","","75","K","2","","","131","main_expt","",""
"","bandit","215","1175405","0.0-173.0-0.0","60953882","wem/bandit_party_1","A3J8Y94SGZ3R0E","either","3","726","","","","","","","0","0","1","0.2729729886","","0.6","0.4","0.2","0.8","","","","","0.1571188116","0.2729729886","0.2105840197","0.3595653039","","","","","","","","","","74","J","1","","","132","main_expt","",""
"","bandit","216","1177733","0.0-174.0-0.0","60953882","wem/bandit_party_1","A3J8Y94SGZ3R0E","either","3","791","","","","","","","0","0","1","0.2021073832","","0.6","0.4","0.2","0.8","","","","","0.2021073832","0.3248088544","0.2328486735","0.3873527377","","","","","","","","","","72","H","0","img/none_selected.jpg","","133","main_expt","",""
"","bandit","217","1180202","0.0-175.0-0.0","60953882","wem/bandit_party_1","A3J8Y94SGZ3R0E","either","3","930","","","","","","","0","1","0","","0.3973884711","0.6","0.4","0.2","0.8","0.2693148074","0.3596446835","0.2589092944","0.3973884711","","","","","","","","","","","","","","76","L","3","","","134","main_expt","",""
"","bandit","218","1182596","0.0-176.0-0.0","60953882","wem/bandit_party_1","A3J8Y94SGZ3R0E","either","3","863","","","","","","","0","1","0","","0.2637326353","0.6","0.4","0.2","0.8","0.2625780805","0.318377279","0.2637326353","0.4080523157","","","","","","","","","","","","","","75","K","2","","","135","main_expt","",""
"","bandit","219","1184673","0.0-177.0-0.0","60953882","wem/bandit_party_1","A3J8Y94SGZ3R0E","either","3","533","","","","","","","0","0","1","","0.3160887017","0.6","0.4","0.2","0.8","0.2981707722","0.3160887017","0.2718680576","0.4176503084","","","","","","","","","","","","","","74","J","1","","","136","main_expt","",""
"","bandit","220","1188249","0.0-178.0-0.0","60953882","wem/bandit_party_1","A3J8Y94SGZ3R0E","either","3","2030","","","","","","","1","0","0","0.3859803947","","0.6","0.4","0.2","0.8","","","","","0.3148158286","0.2883225013","0.2919957672","0.3859803947","","","","","","","","","","76","L","3","","","137","main_expt","",""
"","bandit","221","1190557","0.0-179.0-0.0","60953882","wem/bandit_party_1","A3J8Y94SGZ3R0E","either","3","777","","","","","","","1","0","0","0.3193993407","","0.6","0.4","0.2","0.8","","","","","0.3111523267","0.3009152141","0.3193993407","0.358492916","","","","","","","","","","75","K","2","","","138","main_expt","",""
"","bandit","222","1192947","0.0-180.0-0.0","60953882","wem/bandit_party_1","A3J8Y94SGZ3R0E","either","3","857","","","","","","","1","0","0","0.3608756281","","0.6","0.4","0.2","0.8","","","","","0.3034593298","0.293720077","0.3404434035","0.3608756281","","","","","","","","","","76","L","3","","","139","main_expt","",""
"","bandit","223","1195106","0.0-181.0-0.0","60953882","wem/bandit_party_1","A3J8Y94SGZ3R0E","either","3","627","","","","","","","0","0","1","0.3278052243","","0.6","0.4","0.2","0.8","","","","","0.2507495005","0.286059761","0.3278052243","0.3421836092","","","","","","","","","","75","K","2","","","140","main_expt","",""
"","bandit","224","1197040","0.0-182.0-0.0","60953882","wem/bandit_party_1","A3J8Y94SGZ3R0E","either","3","401","","","","","","","0","0","1","","0.2931724706","0.6","0.4","0.2","0.8","0.2220694513","0.2931724706","0.3038906839","0.3737340371","","","","","","","","","","","","","","74","J","1","","","141","main_expt","",""
"","bandit","225","1199574","0.0-183.0-0.0","60953882","wem/bandit_party_1","A3J8Y94SGZ3R0E","either","3","1002","","","","","","","0","0","1","0.2182180164","","0.6","0.4","0.2","0.8","","","","","0.2119249064","0.2182180164","0.2924195757","0.3461121542","","","","","","","","","","74","J","1","","","142","main_expt","",""
"","bandit","226","1201705","0.0-184.0-0.0","60953882","wem/bandit_party_1","A3J8Y94SGZ3R0E","either","3","593","","","","","","","1","0","0","0.2665135591","","0.6","0.4","0.2","0.8","","","","","0.2665135591","0.2015475508","0.2816149275","0.3305931074","","","","","","","","","","72","H","0","img/none_selected.jpg","","143","main_expt","",""
"","bandit","227","1204116","0.0-185.0-0.0","60953882","wem/bandit_party_1","A3J8Y94SGZ3R0E","either","3","875","","","","","","","0","0","1","0.3561039987","","0.6","0.4","0.2","0.8","","","","","0.2854155153","0.2074070562","0.2355525614","0.3561039987","","","","","","","","","","76","L","3","","","144","main_expt","",""
"","bandit","228","1206665","0.0-186.0-0.0","60953882","wem/bandit_party_1","A3J8Y94SGZ3R0E","either","3","1018","","","","","","","0","0","1","0.2185662272","","0.6","0.4","0.2","0.8","","","","","0.2521048148","0.1415368311","0.2185662272","0.3648023512","","","","","","","","","","75","K","2","","","145","main_expt","",""
"","bandit","229","1208967","0.0-187.0-0.0","60953882","wem/bandit_party_1","A3J8Y94SGZ3R0E","either","3","766","","","","","","","0","0","1","0.3450315","","0.6","0.4","0.2","0.8","","","","","0.2321266643","0.1549520657","0.2209315791","0.3450315","","","","","","","","","","76","L","3","","","146","main_expt","",""
"","bandit","230","1210969","0.0-188.0-0.0","60953882","wem/bandit_party_1","A3J8Y94SGZ3R0E","either","3","469","","","","","","","0","0","1","","0.1469310363","0.6","0.4","0.2","0.8","0.3159383216","0.1469310363","0.2889766311","0.2720321141","","","","","","","","","","","","","","74","J","1","","","147","main_expt","",""
"","bandit","231","1212915","0.0-189.0-0.0","60953882","wem/bandit_party_1","A3J8Y94SGZ3R0E","either","3","417","","","","","","","0","0","1","","0.2859466156","0.6","0.4","0.2","0.8","0.2673485129","0.1332828417","0.2859466156","0.2598972664","","","","","","","","","","","","","","75","K","2","","","148","main_expt","",""
"","bandit","232","1215418","0.0-190.0-0.0","60953882","wem/bandit_party_1","A3J8Y94SGZ3R0E","either","3","967","","","","","","","0","0","1","","0.2343157719","0.6","0.4","0.2","0.8","0.3348600541","0.1102010463","0.2588478233","0.2343157719","","","","","","","","","","","","","","76","L","3","","","149","main_expt","",""
"","bandit","233","1217453","0.0-191.0-0.0","60953882","wem/bandit_party_1","A3J8Y94SGZ3R0E","either","3","507","","","","","","","0","0","1","0.2224653457","","0.6","0.4","0.2","0.8","","","","","0.3659656834","0.1356103494","0.2224653457","0.2451363599","","","","","","","","","","75","K","2","","","150","main_expt","",""
"","bandit","234","1219880","0.0-192.0-0.0","60953882","wem/bandit_party_1","A3J8Y94SGZ3R0E","either","3","895","","","","","","","0","0","1","0.36397653","","0.6","0.4","0.2","0.8","","","","","0.36397653","0.1621229287","0.2387237716","0.2053737132","","","","","","","","","","72","H","0","img/none_selected.jpg","","151","main_expt","",""
"","bandit","235","1221879","0.0-193.0-0.0","60953882","wem/bandit_party_1","A3J8Y94SGZ3R0E","either","3","464","","","","","","","0","0","1","","0.1412745606","0.6","0.4","0.2","0.8","0.3710672623","0.1412745606","0.2519133504","0.2396242378","","","","","","","","","","","","","","74","J","1","","","152","main_expt","",""
"","bandit","236","1223885","0.0-194.0-0.0","60953882","wem/bandit_party_1","A3J8Y94SGZ3R0E","either","3","472","","","","","","","0","0","1","","0.3078499427","0.6","0.4","0.2","0.8","0.3828607765","0.1707580034","0.3078499427","0.2923277395","","","","","","","","","","","","","","75","K","2","","","153","main_expt","",""
"","bandit","237","1225844","0.0-195.0-0.0","60953882","wem/bandit_party_1","A3J8Y94SGZ3R0E","either","3","427","","","","","","","0","0","1","","0.1717455462","0.6","0.4","0.2","0.8","0.3526468527","0.1717455462","0.3283820497","0.3166515581","","","","","","","","","","","","","","74","J","1","","","154","main_expt","",""
"","bandit","238","1227673","0.0-196.0-0.0","60953882","wem/bandit_party_1","A3J8Y94SGZ3R0E","either","3","280","","","","","","","0","0","1","0.3194616596","","0.6","0.4","0.2","0.8","","","","","0.3865981945","0.1785539081","0.3303057687","0.3194616596","","","","","","","","","","76","L","3","","","155","main_expt","",""
"","bandit","239","1229549","0.0-197.0-0.0","60953882","wem/bandit_party_1","A3J8Y94SGZ3R0E","either","3","343","","","","","","","0","0","1","","0.3178912443","0.6","0.4","0.2","0.8","0.4328422877","0.2175815231","0.3178912443","0.3767011333","","","","","","","","","","","","","","75","K","2","","","156","main_expt","",""
"","bandit","240","1231441","0.0-198.0-0.0","60953882","wem/bandit_party_1","A3J8Y94SGZ3R0E","either","3","361","","","","","","","0","0","1","0.3853144204","","0.6","0.4","0.2","0.8","","","","","0.4224906378","0.216674397","0.3236874272","0.3853144204","","","","","","","","","","76","L","3","","","157","main_expt","",""
"","bandit","241","1233321","0.0-199.0-0.0","60953882","wem/bandit_party_1","A3J8Y94SGZ3R0E","either","3","350","","","","","","","0","0","1","0.2184316938","","0.6","0.4","0.2","0.8","","","","","0.4428847078","0.2184316938","0.3731337511","0.3519128793","","","","","","","","","","74","J","1","","","158","main_expt","",""
"","bandit","242","1234993","0.0-200.0-0.0","60953882","wem/bandit_party_1","A3J8Y94SGZ3R0E","either","3","141","","","","","","","0","1","0","","0.3758107074","0.6","0.4","0.2","0.8","0.4498083842","0.2603966468","0.3758107074","0.3255157266","","","","","","","","","","","","","","75","K","2","","","159","main_expt","",""
"","bandit","243","1236749","0.0-201.0-0.0","60953882","wem/bandit_party_1","A3J8Y94SGZ3R0E","either","3","217","","","","","","","0","1","0","","0.4319550234","0.6","0.4","0.2","0.8","0.4319550234","0.2242017374","0.3494215766","0.379238532","","","","","","","","","","","","","","72","H","0","img/none_selected.jpg","","160","main_expt","",""
"","bandit","244","1238956","0.0-202.0-0.0","60953882","wem/bandit_party_1","A3J8Y94SGZ3R0E","either","3","676","","","","","","","0","0","1","0.2014027125","","0.6","0.4","0.2","0.8","","","","","0.4417514389","0.2014027125","0.3327111917","0.3776335756","","","","","","","","","","74","J","1","","","161","main_expt","",""
"","bandit","245","1240903","0.0-203.0-0.0","60953882","wem/bandit_party_1","A3J8Y94SGZ3R0E","either","3","414","","","","","","","0","0","1","","0.2955751891","0.6","0.4","0.2","0.8","0.4081293495","0.2038621466","0.3171011618","0.2955751891","","","","","","","","","","","","","","76","L","3","","","162","main_expt","",""
"","bandit","246","1242948","0.0-204.0-0.0","60953882","wem/bandit_party_1","A3J8Y94SGZ3R0E","either","3","511","","","","","","","0","0","1","0.364183239","","0.6","0.4","0.2","0.8","","","","","0.4265776113","0.1238136799","0.364183239","0.30851492","","","","","","","","","","75","K","2","","","163","main_expt","",""
"","bandit","247","1244778","0.0-205.0-0.0","60953882","wem/bandit_party_1","A3J8Y94SGZ3R0E","either","3","300","","","","","","","0","0","1","0.1104941302","","0.6","0.4","0.2","0.8","","","","","0.427472809","0.1104941302","0.3917374524","0.3074756362","","","","","","","","","","74","J","1","","","164","main_expt","",""
"","bandit","248","1247738","0.0-206.0-0.0","60953882","wem/bandit_party_1","A3J8Y94SGZ3R0E","either","3","1421","","","","","","","0","1","0","","0.3629360172","0.6","0.4","0.2","0.8","0.4016343469","0.1099358877","0.3629360172","0.2743039079","","","","","","","","","","","","","","75","K","2","","","165","main_expt","",""
"","bandit","249","1250046","0.0-207.0-0.0","60953882","wem/bandit_party_1","A3J8Y94SGZ3R0E","either","3","775","","","","","","","0","0","1","0.2900226329","","0.6","0.4","0.2","0.8","","","","","0.3578169927","0.08082918558","0.3697042915","0.2900226329","","","","","","","","","","76","L","3","","","166","main_expt","",""
"","bandit","250","1253256","0.0-208.0-0.0","60953882","wem/bandit_party_1","A3J8Y94SGZ3R0E","either","3","1674","","","","","","","0","0","1","","0.3626443337","0.6","0.4","0.2","0.8","0.3346076013","0.08539074978","0.3626443337","0.3444017494","","","","","","","","","","","","","","75","K","2","","","167","main_expt","",""
"","bandit","251","1255717","0.0-209.0-0.0","60953882","wem/bandit_party_1","A3J8Y94SGZ3R0E","either","3","921","","","","","","","0","0","1","","0.1307687804","0.6","0.4","0.2","0.8","0.36326211","0.1307687804","0.3488380128","0.3934904689","","","","","","","","","","","","","","74","J","1","","","168","main_expt","",""
"","bandit","252","1258369","0.0-210.0-0.0","60953882","wem/bandit_party_1","A3J8Y94SGZ3R0E","either","3","1109","","","","","","","0","1","0","","0.3338465455","0.6","0.4","0.2","0.8","0.3389060657","0.09435724838","0.3338465455","0.3712778229","","","","","","","","","","","","","","75","K","2","","","169","main_expt","",""
"","bandit","253","1260517","0.0-211.0-0.0","60953882","wem/bandit_party_1","A3J8Y94SGZ3R0E","either","3","618","","","","","","","0","0","1","0.3348119161","","0.6","0.4","0.2","0.8","","","","","0.3820287301","0.09371103674","0.3675902536","0.3348119161","","","","","","","","","","76","L","3","","","170","main_expt","",""
"","bandit","254","1262863","0.0-212.0-0.0","60953882","wem/bandit_party_1","A3J8Y94SGZ3R0E","either","3","813","","","","","","","0","0","1","","0.3663425941","0.6","0.4","0.2","0.8","0.3738350687","0.0912992704","0.3663425941","0.3697689907","","","","","","","","","","","","","","75","K","2","","","171","main_expt","",""
"","bandit","255","1265565","0.0-213.0-0.0","60953882","wem/bandit_party_1","A3J8Y94SGZ3R0E","either","3","1165","","","","","","","0","0","1","0.3571019768","","0.6","0.4","0.2","0.8","","","","","0.3449486646","0.1053216192","0.3571019768","0.3438364448","","","","","","","","","","75","K","2","","","172","main_expt","",""
"","bandit","256","1268268","0.0-214.0-0.0","60953882","wem/bandit_party_1","A3J8Y94SGZ3R0E","either","3","1153","","","","","","","0","0","1","","0.383943734","0.6","0.4","0.2","0.8","0.3754463001","0.1119971747","0.383943734","0.4064517123","","","","","","","","","","","","","","75","K","2","","","173","main_expt","",""
"","bandit","257","1277349","0.0-215.0-0.0","60953882","wem/bandit_party_1","A3J8Y94SGZ3R0E","either","3","7546","","","","","","","0","0","1","","0.1049574405","0.6","0.4","0.2","0.8","0.3983783957","0.1049574405","0.378453819","0.4266345201","","","","","","","","","","","","","","74","J","1","","","174","main_expt","",""
"","bandit","258","1280509","0.0-216.0-0.0","60953882","wem/bandit_party_1","A3J8Y94SGZ3R0E","either","3","1623","","","","","","","0","1","0","","0.3577460836","0.6","0.4","0.2","0.8","0.4176958341","0.07351671593","0.3577460836","0.4413212306","","","","","","","","","","","","","","75","K","2","","","175","main_expt","",""
"","bandit","259","1282930","0.0-217.0-0.0","60953882","wem/bandit_party_1","A3J8Y94SGZ3R0E","either","3","870","","","","","","","0","0","1","","0.06097876817","0.6","0.4","0.2","0.8","0.4336280271","0.06097876817","0.3346789668","0.438548454","","","","","","","","","","","","","","74","J","1","","","176","main_expt","",""
"","bandit","260","1285022","0.0-218.0-0.0","60953882","wem/bandit_party_1","A3J8Y94SGZ3R0E","either","3","553","","","","","","","0","0","1","","0.3863917124","0.6","0.4","0.2","0.8","0.3863917124","0.05873143133","0.3720341948","0.4350726265","","","","","","","","","","","","","","72","H","0","img/none_selected.jpg","","177","main_expt","",""
"","bandit","261","1287985","0.0-219.0-0.0","60953882","wem/bandit_party_1","A3J8Y94SGZ3R0E","either","3","1428","","","","","","","1","0","0","0.3826512014","","0.6","0.4","0.2","0.8","","","","","0.3826512014","0.07829718294","0.4243236705","0.4029859975","","","","","","","","","","72","H","0","img/none_selected.jpg","","178","main_expt","",""
"","bandit","262","1290644","0.0-220.0-0.0","60953882","wem/bandit_party_1","A3J8Y94SGZ3R0E","either","3","1124","","","","","","","0","0","1","","0.05868413977","0.6","0.4","0.2","0.8","0.3681046487","0.05868413977","0.4396564102","0.3738585124","","","","","","","","","","","","","","74","J","1","","","179","main_expt","",""
"","bandit","263","1292388","0.0-221.0-0.0","60953882","wem/bandit_party_1","A3J8Y94SGZ3R0E","either","3","204","","","","","","","0","0","1","","0.4501825932","0.6","0.4","0.2","0.8","0.374340785","0.04540529238","0.4501825932","0.3884150149","","","","","","","","","","","","","","75","K","2","","","180","main_expt","",""
"","bandit","264","1294363","0.0-222.0-0.0","60953882","wem/bandit_party_1","A3J8Y94SGZ3R0E","either","3","437","","","","","","","0","0","1","","0.04810206047","0.6","0.4","0.2","0.8","0.3844034803","0.04810206047","0.4527537228","0.3977335033","","","","","","","","","","","","","","74","J","1","","","181","main_expt","",""
"","bandit","265","1296740","0.0-223.0-0.0","60953882","wem/bandit_party_1","A3J8Y94SGZ3R0E","either","3","837","","","","","","","0","0","1","","0.0564969073","0.6","0.4","0.2","0.8","0.3569363444","0.0564969073","0.4733821952","0.4194204302","","","","","","","","","","","","","","74","J","1","","","182","main_expt","",""
"","bandit","266","1300016","0.0-224.0-0.0","60953882","wem/bandit_party_1","A3J8Y94SGZ3R0E","either","3","1741","","","","","","","0","0","1","0.4050300101","","0.6","0.4","0.2","0.8","","","","","0.3930074682","0.06674959941","0.4741352064","0.4050300101","","","","","","","","","","76","L","3","","","183","main_expt","",""
"","bandit","267","1302292","0.0-225.0-0.0","60953882","wem/bandit_party_1","A3J8Y94SGZ3R0E","either","3","734","","","","","","","0","1","0","","0.4105724965","0.6","0.4","0.2","0.8","0.4105724965","0.05730522946","0.4835015011","0.4272992256","","","","","","","","","","","","","","72","H","0","img/none_selected.jpg","","184","main_expt","",""
"","bandit","268","1305697","0.0-226.0-0.0","60953882","wem/bandit_party_1","A3J8Y94SGZ3R0E","either","3","1866","","","","","","","0","0","1","0.4230276401","","0.6","0.4","0.2","0.8","","","","","0.4230276401","0.0759668512","0.4907566516","0.4213026748","","","","","","","","","","72","H","0","img/none_selected.jpg","","185","main_expt","",""
"","bandit","269","1308549","0.0-227.0-0.0","60953882","wem/bandit_party_1","A3J8Y94SGZ3R0E","either","3","1301","","","","","","","0","0","1","0.3729626057","","0.6","0.4","0.2","0.8","","","","","0.4243078066","0.0736669194","0.4777100538","0.3729626057","","","","","","","","","","76","L","3","","","186","main_expt","",""
"","bandit","270","1310314","0.0-228.0-0.0","60953882","wem/bandit_party_1","A3J8Y94SGZ3R0E","either","3","227","","","","","","","0","0","1","","0.1020870739","0.6","0.4","0.2","0.8","0.419104652","0.1020870739","0.4751658893","0.4022080601","","","","","","","","","","","","","","74","J","1","","","187","main_expt","",""
"","bandit","271","1312077","0.0-229.0-0.0","60953882","wem/bandit_party_1","A3J8Y94SGZ3R0E","either","3","227","","","","","","","0","1","0","","0.4711403756","0.6","0.4","0.2","0.8","0.3917910895","0.110066606","0.4711403756","0.4218987807","","","","","","","","","","","","","","75","K","2","","","188","main_expt","",""
"","bandit","272","1313621","0.0-230.0-0.0","60953882","wem/bandit_party_1","A3J8Y94SGZ3R0E","either","3","3","","","","","","","1","0","0","0.3696037293","","0.6","0.4","0.2","0.8","","","","","0.3696037293","0.1616324423","0.4848283219","0.4284519853","","","","","","","","","","72","H","0","img/none_selected.jpg","","189","main_expt","",""
"","bandit","273","1315426","0.0-231.0-0.0","60953882","wem/bandit_party_1","A3J8Y94SGZ3R0E","either","3","266","","","","","","","0","0","1","0.1401199573","","0.6","0.4","0.2","0.8","","","","","0.3722688899","0.1401199573","0.4906713727","0.4104863902","","","","","","","","","","74","J","1","","","190","main_expt","",""
"","bandit","274","1317721","0.0-232.0-0.0","60953882","wem/bandit_party_1","A3J8Y94SGZ3R0E","either","3","755","","","","","","","0","0","1","0.4071825693","","0.6","0.4","0.2","0.8","","","","","0.3956575009","0.1782786715","0.4944082075","0.4071825693","","","","","","","","","","76","L","3","","","191","main_expt","",""
"","bandit","275","1319554","0.0-233.0-0.0","60953882","wem/bandit_party_1","A3J8Y94SGZ3R0E","either","3","291","","","","","","","0","1","0","","0.4922337742","0.6","0.4","0.2","0.8","0.3843500594","0.203517815","0.4922337742","0.4172763132","","","","","","","","","","","","","","75","K","2","","","192","main_expt","",""
"","bandit","276","1321524","0.0-234.0-0.0","60953882","wem/bandit_party_1","A3J8Y94SGZ3R0E","either","3","418","","","","","","","1","0","0","0.172030281","","0.6","0.4","0.2","0.8","","","","","0.3801723293","0.172030281","0.4887356563","0.3965334946","","","","","","","","","","74","J","1","","","193","main_expt","",""
"","bandit","277","1323669","0.0-235.0-0.0","60953882","wem/bandit_party_1","A3J8Y94SGZ3R0E","either","3","610","","","","","","","0","1","0","","0.4850955297","0.6","0.4","0.2","0.8","0.3871645121","0.1813301739","0.4850955297","0.383316574","","","","","","","","","","","","","","75","K","2","","","194","main_expt","",""
"","bandit","278","1325654","0.0-236.0-0.0","60953882","wem/bandit_party_1","A3J8Y94SGZ3R0E","either","3","449","","","","","","","1","0","0","0.3965345796","","0.6","0.4","0.2","0.8","","","","","0.3633903175","0.2284295163","0.4848341758","0.3965345796","","","","","","","","","","76","L","3","","","195","main_expt","",""
"","bandit","279","1327969","0.0-237.0-0.0","60953882","wem/bandit_party_1","A3J8Y94SGZ3R0E","either","3","777","","","","","","","0","0","1","0.3811675741","","0.6","0.4","0.2","0.8","","","","","0.3811675741","0.2501246714","0.490049139","0.3978469093","","","","","","","","","","72","H","0","img/none_selected.jpg","","196","main_expt","",""
"","bandit","280","1329950","0.0-238.0-0.0","60953882","wem/bandit_party_1","A3J8Y94SGZ3R0E","either","3","443","","","","","","","0","0","1","","0.4912643012","0.6","0.4","0.2","0.8","0.3487868089","0.3150809007","0.4912643012","0.3172926233","","","","","","","","","","","","","","75","K","2","","","197","main_expt","",""
"","bandit","281","1331799","0.0-239.0-0.0","60953882","wem/bandit_party_1","A3J8Y94SGZ3R0E","either","3","310","","","","","","","1","0","0","0.3442077965","","0.6","0.4","0.2","0.8","","","","","0.2986771554","0.3442077965","0.4793615714","0.3113170709","","","","","","","","","","74","J","1","","","198","main_expt","",""
"","bandit","282","1333783","0.0-240.0-0.0","60953882","wem/bandit_party_1","A3J8Y94SGZ3R0E","either","3","441","","","","","","","0","0","1","0.3066116159","","0.6","0.4","0.2","0.8","","","","","0.3481418533","0.3675051223","0.4661622676","0.3066116159","","","","","","","","","","76","L","3","","","199","main_expt","",""
"","bandit","283","1335763","0.0-241.0-0.0","60953882","wem/bandit_party_1","A3J8Y94SGZ3R0E","either","3","436","","","","","","","0","0","1","","0.4479238565","0.6","0.4","0.2","0.8","0.353319573","0.3044821291","0.4479238565","0.2521122026","","","","","","","","","","","","","","75","K","2","","","200","main_expt","",""
"","bandit","284","1337353","0.0-242.0-0.0","60953882","wem/bandit_party_1","A3J8Y94SGZ3R0E","either","3","52","","","","","","","1","0","0","0.2679963248","","0.6","0.4","0.2","0.8","","","","","0.3676338631","0.3013824411","0.4429166455","0.2679963248","","","","","","","","","","76","L","3","","","201","main_expt","",""
"","bandit","285","1339536","0.0-243.0-0.0","60953882","wem/bandit_party_1","A3J8Y94SGZ3R0E","either","3","647","","","","","","","0","0","1","0.3001954661","","0.6","0.4","0.2","0.8","","","","","0.311657493","0.3001954661","0.442820363","0.2076546236","","","","","","","","","","74","J","1","","","202","main_expt","",""
"","bandit","286","1341297","0.0-244.0-0.0","60953882","wem/bandit_party_1","A3J8Y94SGZ3R0E","either","3","224","","","","","","","0","1","0","","0.4539008368","0.6","0.4","0.2","0.8","0.3364041998","0.3189156814","0.4539008368","0.1881707852","","","","","","","","","","","","","","75","K","2","","","203","main_expt","",""
"","bandit","287","1343354","0.0-245.0-0.0","60953882","wem/bandit_party_1","A3J8Y94SGZ3R0E","either","3","520","","","","","","","1","0","0","0.3148670147","","0.6","0.4","0.2","0.8","","","","","0.3148670147","0.3162062407","0.4163307037","0.2057853427","","","","","","","","","","72","H","0","img/none_selected.jpg","","204","main_expt","",""
"","bandit","288","1345489","0.0-246.0-0.0","60953882","wem/bandit_party_1","A3J8Y94SGZ3R0E","either","3","596","","","","","","","0","0","1","","0.2564451259","0.6","0.4","0.2","0.8","0.3293187519","0.347278619","0.4045388199","0.2564451259","","","","","","","","","","","","","","76","L","3","","","205","main_expt","",""
"","bandit","289","1347342","0.0-247.0-0.0","60953882","wem/bandit_party_1","A3J8Y94SGZ3R0E","either","3","315","","","","","","","0","0","1","","0.2970129147","0.6","0.4","0.2","0.8","0.2705077244","0.2970129147","0.4083422121","0.3082896296","","","","","","","","","","","","","","74","J","1","","","206","main_expt","",""
"","bandit","290","1350053","0.0-248.0-0.0","60953882","wem/bandit_party_1","A3J8Y94SGZ3R0E","either","3","1178","","","","","","","0","1","0","","0.4033585138","0.6","0.4","0.2","0.8","0.3083591011","0.3331481178","0.4033585138","0.3235103938","","","","","","","","","","","","","","75","K","2","","","207","main_expt","",""
"","bandit","291","1352116","0.0-249.0-0.0","60953882","wem/bandit_party_1","A3J8Y94SGZ3R0E","either","3","519","","","","","","","0","0","1","0.3563539536","","0.6","0.4","0.2","0.8","","","","","0.2489273718","0.3195917859","0.3753320851","0.3563539536","","","","","","","","","","76","L","3","","","208","main_expt","",""
"","bandit","292","1354575","0.0-250.0-0.0","60953882","wem/bandit_party_1","A3J8Y94SGZ3R0E","either","3","916","","","","","","","0","0","1","0.2224321457","","0.6","0.4","0.2","0.8","","","","","0.2224321457","0.3642345195","0.3864970555","0.3821305916","","","","","","","","","","72","H","0","img/none_selected.jpg","","209","main_expt","",""
"","bandit","293","1358904","0.0-251.0-0.0","60953882","wem/bandit_party_1","A3J8Y94SGZ3R0E","either","3","2788","","","","","","","0","0","1","0.2184729634","","0.6","0.4","0.2","0.8","","","","","0.2184729634","0.3518797164","0.3894881908","0.4067483812","","","","","","","","","","72","H","0","img/none_selected.jpg","","210","main_expt","",""
"","bandit","294","1360648","0.0-252.0-0.0","60953882","wem/bandit_party_1","A3J8Y94SGZ3R0E","either","3","204","","","","","","","0","0","1","","0.3781537602","0.6","0.4","0.2","0.8","0.2178464352","0.3781537602","0.4052823736","0.376825818","","","","","","","","","","","","","","74","J","1","","","211","main_expt","",""
"","bandit","295","1362643","0.0-253.0-0.0","60953882","wem/bandit_party_1","A3J8Y94SGZ3R0E","either","3","454","","","","","","","0","0","1","0.1644702768","","0.6","0.4","0.2","0.8","","","","","0.1644702768","0.3773353051","0.3783189977","0.3481764155","","","","","","","","","","72","H","0","img/none_selected.jpg","","212","main_expt","",""
"","bandit","296","1365104","0.0-254.0-0.0","60953882","wem/bandit_party_1","A3J8Y94SGZ3R0E","either","3","922","","","","","","","0","0","1","0.3239198888","","0.6","0.4","0.2","0.8","","","","","0.1271660564","0.3448860985","0.3804187243","0.3239198888","","","","","","","","","","76","L","3","","","213","main_expt","",""
"","bandit","297","1367020","0.0-255.0-0.0","60953882","wem/bandit_party_1","A3J8Y94SGZ3R0E","either","3","376","","","","","","","0","1","0","","0.3622000499","0.6","0.4","0.2","0.8","0.1368129038","0.3622000499","0.3964056757","0.3592643085","","","","","","","","","","","","","","74","J","1","","","214","main_expt","",""
"","bandit","298","1369108","0.0-256.0-0.0","60953882","wem/bandit_party_1","A3J8Y94SGZ3R0E","either","3","548","","","","","","","0","1","0","","0.3939862607","0.6","0.4","0.2","0.8","0.07615368859","0.3408682726","0.3939862607","0.3482739819","","","","","","","","","","","","","","75","K","2","","","215","main_expt","",""
"","bandit","299","1371135","0.0-257.0-0.0","60953882","wem/bandit_party_1","A3J8Y94SGZ3R0E","either","3","488","","","","","","","0","0","1","0.07711559412","","0.6","0.4","0.2","0.8","","","","","0.07711559412","0.328819006","0.4062496234","0.2972527025","","","","","","","","","","72","H","0","img/none_selected.jpg","","216","main_expt","",""
"","bandit","300","1373207","0.0-258.0-0.0","60953882","wem/bandit_party_1","A3J8Y94SGZ3R0E","either","3","534","","","","","","","0","1","0","","0.3229374792","0.6","0.4","0.2","0.8","0.07728173513","0.3229374792","0.3440498305","0.2850944341","","","","","","","","","","","","","","74","J","1","","","217","main_expt","",""
"","bandit","301","1375352","0.0-259.0-0.0","60953882","wem/bandit_party_1","A3J8Y94SGZ3R0E","either","3","606","","","","","","","0","0","1","","0.07919919155","0.6","0.4","0.2","0.8","0.07919919155","0.3616220652","0.3198020565","0.2483413171","","","","","","","","","","","","","","72","H","0","img/none_selected.jpg","","218","main_expt","",""
"","bandit","302","1377617","0.0-260.0-0.0","60953882","wem/bandit_party_1","A3J8Y94SGZ3R0E","either","3","720","","","","","","","0","0","1","","0.3078290176","0.6","0.4","0.2","0.8","0.1270410367","0.3591176528","0.3078290176","0.2680513607","","","","","","","","","","","","","","75","K","2","","","219","main_expt","",""
"","bandit","303","1379652","0.0-261.0-0.0","60953882","wem/bandit_party_1","A3J8Y94SGZ3R0E","either","3","494","","","","","","","0","0","1","","0.2758994579","0.6","0.4","0.2","0.8","0.1117499599","0.2758994579","0.2961895162","0.304668496","","","","","","","","","","","","","","74","J","1","","","220","main_expt","",""
"","bandit","304","1381792","0.0-262.0-0.0","60953882","wem/bandit_party_1","A3J8Y94SGZ3R0E","either","3","579","","","","","","","0","0","1","","0.2658603678","0.6","0.4","0.2","0.8","0.1186324211","0.3119987931","0.2658603678","0.2773284289","","","","","","","","","","","","","","75","K","2","","","221","main_expt","",""
"","bandit","305","1383383","0.0-263.0-0.0","60953882","wem/bandit_party_1","A3J8Y94SGZ3R0E","either","3","44","","","","","","","0","0","1","0.3106374463","","0.6","0.4","0.2","0.8","","","","","0.1141050397","0.3106374463","0.274695037","0.2152506718","","","","","","","","","","74","J","1","","","222","main_expt","",""
"","bandit","306","1385279","0.0-264.0-0.0","60953882","wem/bandit_party_1","A3J8Y94SGZ3R0E","either","3","359","","","","","","","1","0","0","0.1007228699","","0.6","0.4","0.2","0.8","","","","","0.1007228699","0.3131570504","0.2210940289","0.2445797097","","","","","","","","","","72","H","0","img/none_selected.jpg","","223","main_expt","",""
"","bandit","307","1388123","0.0-265.0-0.0","60953882","wem/bandit_party_1","A3J8Y94SGZ3R0E","either","3","1304","","","","","","","0","0","1","0.1843933297","","0.6","0.4","0.2","0.8","","","","","0.1380584308","0.3025994915","0.1843933297","0.2559263424","","","","","","","","","","75","K","2","","","224","main_expt","",""
"","bandit","308","1390061","0.0-266.0-0.0","60953882","wem/bandit_party_1","A3J8Y94SGZ3R0E","either","3","399","","","","","","","1","0","0","0.2702522324","","0.6","0.4","0.2","0.8","","","","","0.1393521225","0.2994132709","0.212211923","0.2702522324","","","","","","","","","","76","L","3","","","225","main_expt","",""
"","bandit","309","1391990","0.0-267.0-0.0","60953882","wem/bandit_party_1","A3J8Y94SGZ3R0E","either","3","387","","","","","","","0","1","0","","0.2866794375","0.6","0.4","0.2","0.8","0.2094269877","0.2866794375","0.2315036379","0.2646860425","","","","","","","","","","","","","","74","J","1","","","226","main_expt","",""
"","bandit","310","1394192","0.0-268.0-0.0","60953882","wem/bandit_party_1","A3J8Y94SGZ3R0E","either","3","662","","","","","","","1","0","0","0.2646353212","","0.6","0.4","0.2","0.8","","","","","0.2959232149","0.2299222882","0.2646353212","0.269556559","","","","","","","","","","75","K","2","","","227","main_expt","",""
"","bandit","311","1396292","0.0-269.0-0.0","60953882","wem/bandit_party_1","A3J8Y94SGZ3R0E","either","3","561","","","","","","","0","0","1","0.2498152532","","0.6","0.4","0.2","0.8","","","","","0.374355758","0.2991813551","0.2443517867","0.2498152532","","","","","","","","","","76","L","3","","","228","main_expt","",""
"","bandit","312","1398431","0.0-270.0-0.0","60953882","wem/bandit_party_1","A3J8Y94SGZ3R0E","either","3","598","","","","","","","0","0","1","0.3876740502","","0.6","0.4","0.2","0.8","","","","","0.3876740502","0.3295538921","0.2569692975","0.2495566458","","","","","","","","","","72","H","0","img/none_selected.jpg","","229","main_expt","",""
"","bandit","313","1400416","0.0-271.0-0.0","60953882","wem/bandit_party_1","A3J8Y94SGZ3R0E","either","3","442","","","","","","","1","0","0","0.2490290172","","0.6","0.4","0.2","0.8","","","","","0.3341674595","0.2713593359","0.2490290172","0.2134382902","","","","","","","","","","75","K","2","","","230","main_expt","",""
"","bandit","314","1402830","0.0-272.0-0.0","60953882","wem/bandit_party_1","A3J8Y94SGZ3R0E","either","3","869","","","","","","","0","0","1","","0.2746975787","0.6","0.4","0.2","0.8","0.3558281537","0.2746975787","0.2368643707","0.2099205747","","","","","","","","","","","","","","74","J","1","","","231","main_expt","",""
"","bandit","315","1405788","0.0-273.0-0.0","60953882","wem/bandit_party_1","A3J8Y94SGZ3R0E","either","3","1420","","","","","","","0","1","0","","0.2817934899","0.6","0.4","0.2","0.8","0.3293076861","0.2817934899","0.2857324616","0.1598609145","","","","","","","","","","","","","","74","J","1","","","232","main_expt","",""
