"consent","trial_type","trial_index","time_elapsed","internal_node_id","subjID","study","MID","cond","drift","rt","responses","button_pressed","key_press","like","value","connected","gems","bombs","no_reward","GemPrChosen","BombPrChosen","GainOverPainPr_0","GainOverPainPr_1","GainOverPainPr_2","GainOverPainPr_3","LosePr_0","LosePr_1","LosePr_2","LosePr_3","WinPr_0","WinPr_1","WinPr_2","WinPr_3","Q0","Q1","Q2","gender","age","ethnicity","label","expt_phase","target","respCharCode","respKey","respChoiceNum","respChoice","practice","trial_counter","trial_label","Q0_index"
"GDM/GDM_behavioral_consent_30min_online.html","consent","0","21626","0.0-0.0","62157056","wem/bandit_party_1","A1DJDT4B5B19Q2","either","3","","","","","","","","","","","","","","","","","","","","","","","","","","","","","","","","","","","","","","","","",""
"","survey-text","1","28507","0.0-1.0","62157056","wem/bandit_party_1","A1DJDT4B5B19Q2","either","3","5872","{""Q0"":""A1DJDT4B5B19Q2""}","","","","","","","","","","","","","","","","","","","","","","","","","","","","","","","","","","","","","","",""
"","button-response","2","31217","0.0-2.0","62157056","wem/bandit_party_1","A1DJDT4B5B19Q2","either","3","1703","","1","","","","","","","","","","","","","","","","","","","","","","","","","","","","","","","","","","","","","",""
"","text-replacement","3","48341","0.0-3.0","62157056","wem/bandit_party_1","A1DJDT4B5B19Q2","either","3","16119","","","32","","","","","","","","","","","","","","","","","","","","","","","","","","","","","","","","","","","","",""
"","text-replacement","4","56902","0.0-4.0","62157056","wem/bandit_party_1","A1DJDT4B5B19Q2","either","3","8559","","","32","","","","","","","","","","","","","","","","","","","","","","","","","","","","","","","","","","","","",""
"","identification","5","67490","0.0-6.0-0.0","62157056","wem/bandit_party_1","A1DJDT4B5B19Q2","either","3","10564","","","","0","0","0","","","","","","","","","","","","","","","","","","","","","","","","pre","identification_pre","the Republican party","","","","","","","",""
"","identification","6","73000","0.0-6.0-1.0","62157056","wem/bandit_party_1","A1DJDT4B5B19Q2","either","3","4491","","","","6","6","6","","","","","","","","","","","","","","","","","","","","","","","","pre","identification_pre","the Democratic Party","","","","","","","",""
"","text-replacement","7","89159","0.0-7.0","62157056","wem/bandit_party_1","A1DJDT4B5B19Q2","either","3","15157","","","32","","","","","","","","","","","","","","","","","","","","","","","","","","","","","","","","","","","","",""
"","text-replacement","8","94874","0.0-8.0","62157056","wem/bandit_party_1","A1DJDT4B5B19Q2","either","3","5711","","","32","","","","","","","","","","","","","","","","","","","","","","","","","","","","","","","","","","","","",""
"","text-replacement","9","106040","0.0-9.0","62157056","wem/bandit_party_1","A1DJDT4B5B19Q2","either","3","11163","","","32","","","","","","","","","","","","","","","","","","","","","","","","","","","","","","","","","","","","",""
"","text-replacement","10","108762","0.0-10.0","62157056","wem/bandit_party_1","A1DJDT4B5B19Q2","either","3","2720","","","32","","","","","","","","","","","","","","","","","","","","","","","","","","","","","","","","","","","","",""
"","text-replacement","11","116111","0.0-11.0","62157056","wem/bandit_party_1","A1DJDT4B5B19Q2","either","3","7346","","","32","","","","","","","","","","","","","","","","","","","","","","","","","","","","","","","","","","","","",""
"","bandit","12","123845","0.0-12.0-0.0","62157056","wem/bandit_party_1","A1DJDT4B5B19Q2","either","3","6225","","","","","","","0","0","1","0","0","","","","","0","","","","0","","","","","","","","","","","","","74","J","0","img/none_selected_demo.jpg","true","0","",""
"","bandit","13","127640","0.0-13.0-0.0","62157056","wem/bandit_party_1","A1DJDT4B5B19Q2","either","3","2289","","","","","","","0","0","1","0","0","","","","","0","","","","0","","","","","","","","","","","","","75","K","0","img/none_selected_demo.jpg","true","0","",""
"","text-replacement","14","131328","0.0-14.0","62157056","wem/bandit_party_1","A1DJDT4B5B19Q2","either","3","3686","","","32","","","","","","","","","","","","","","","","","","","","","","","","","","","","","","","","","","","","",""
"","text-replacement","15","134965","0.0-15.0","62157056","wem/bandit_party_1","A1DJDT4B5B19Q2","either","3","3635","","","32","","","","","","","","","","","","","","","","","","","","","","","","","","","","","","","","","","","","",""
"","text-replacement","16","139707","0.0-16.0","62157056","wem/bandit_party_1","A1DJDT4B5B19Q2","either","3","4739","","","32","","","","","","","","","","","","","","","","","","","","","","","","","","","","","","","","","","","","",""
"","text-replacement","17","142874","0.0-17.0","62157056","wem/bandit_party_1","A1DJDT4B5B19Q2","either","3","3164","","","32","","","","","","","","","","","","","","","","","","","","","","","","","","","","","","","","","","","","",""
"","bandit","18","145421","0.0-18.0-0.0","62157056","wem/bandit_party_1","A1DJDT4B5B19Q2","either","3","1040","","","","","","","0","1","0","","0.8","0.5","0.5","","","0.8","0.2","","","","","","","","","","","","","","","","74","J","0","img/none_selected_demo.jpg","true","0","80_20_practice",""
"","bandit","19","147541","0.0-18.0-1.0","62157056","wem/bandit_party_1","A1DJDT4B5B19Q2","either","3","613","","","","","","","1","0","0","0.8","","0.5","0.5","","","","","","","0.8","0.2","","","","","","","","","","","","74","J","0","img/none_selected_demo.jpg","true","0","80_20_practice",""
"","bandit","20","149514","0.0-18.0-2.0","62157056","wem/bandit_party_1","A1DJDT4B5B19Q2","either","3","467","","","","","","","1","0","0","0.8","","0.5","0.5","","","","","","","0.8","0.2","","","","","","","","","","","","74","J","0","img/none_selected_demo.jpg","true","0","80_20_practice",""
"","bandit","21","151435","0.0-18.0-3.0","62157056","wem/bandit_party_1","A1DJDT4B5B19Q2","either","3","415","","","","","","","0","0","1","","0.2","0.5","0.5","","","0.8","0.2","","","","","","","","","","","","","","","","75","K","1","","true","0","80_20_practice",""
"","bandit","22","153325","0.0-18.0-4.0","62157056","wem/bandit_party_1","A1DJDT4B5B19Q2","either","3","384","","","","","","","1","0","0","0.8","","0.5","0.5","","","","","","","0.8","0.2","","","","","","","","","","","","74","J","0","img/none_selected_demo.jpg","true","0","80_20_practice",""
"","bandit","23","155223","0.0-18.0-5.0","62157056","wem/bandit_party_1","A1DJDT4B5B19Q2","either","3","392","","","","","","","0","0","1","","0.8","0.5","0.5","","","0.8","0.2","","","","","","","","","","","","","","","","74","J","0","img/none_selected_demo.jpg","true","0","80_20_practice",""
"","bandit","24","156934","0.0-18.0-6.0","62157056","wem/bandit_party_1","A1DJDT4B5B19Q2","either","3","204","","","","","","","1","0","0","0.8","","0.5","0.5","","","","","","","0.8","0.2","","","","","","","","","","","","74","J","0","img/none_selected_demo.jpg","true","0","80_20_practice",""
"","bandit","25","158872","0.0-18.0-7.0","62157056","wem/bandit_party_1","A1DJDT4B5B19Q2","either","3","432","","","","","","","1","0","0","0.8","","0.5","0.5","","","","","","","0.8","0.2","","","","","","","","","","","","74","J","0","img/none_selected_demo.jpg","true","0","80_20_practice",""
"","bandit","26","160797","0.0-18.0-8.0","62157056","wem/bandit_party_1","A1DJDT4B5B19Q2","either","3","419","","","","","","","0","0","1","0.8","","0.5","0.5","","","","","","","0.8","0.2","","","","","","","","","","","","74","J","0","img/none_selected_demo.jpg","true","0","80_20_practice",""
"","bandit","27","162604","0.0-18.0-9.0","62157056","wem/bandit_party_1","A1DJDT4B5B19Q2","either","3","302","","","","","","","0","0","1","0.8","","0.5","0.5","","","","","","","0.8","0.2","","","","","","","","","","","","74","J","0","img/none_selected_demo.jpg","true","0","80_20_practice",""
"","bandit","28","164725","0.0-18.0-10.0","62157056","wem/bandit_party_1","A1DJDT4B5B19Q2","either","3","615","","","","","","","0","0","1","","0.2","0.5","0.5","","","0.8","0.2","","","","","","","","","","","","","","","","75","K","1","","true","0","80_20_practice",""
"","bandit","29","166606","0.0-18.0-11.0","62157056","wem/bandit_party_1","A1DJDT4B5B19Q2","either","3","375","","","","","","","0","0","1","0.2","","0.5","0.5","","","","","","","0.8","0.2","","","","","","","","","","","","75","K","1","","true","0","80_20_practice",""
"","bandit","30","168487","0.0-18.0-12.0","62157056","wem/bandit_party_1","A1DJDT4B5B19Q2","either","3","375","","","","","","","0","0","1","0.2","","0.5","0.5","","","","","","","0.8","0.2","","","","","","","","","","","","75","K","1","","true","0","80_20_practice",""
"","bandit","31","170308","0.0-18.0-13.0","62157056","wem/bandit_party_1","A1DJDT4B5B19Q2","either","3","315","","","","","","","0","1","0","","0.8","0.5","0.5","","","0.8","0.2","","","","","","","","","","","","","","","","74","J","0","img/none_selected_demo.jpg","true","0","80_20_practice",""
"","bandit","32","172171","0.0-18.0-14.0","62157056","wem/bandit_party_1","A1DJDT4B5B19Q2","either","3","355","","","","","","","1","0","0","0.8","","0.5","0.5","","","","","","","0.8","0.2","","","","","","","","","","","","74","J","0","img/none_selected_demo.jpg","true","0","80_20_practice",""
"","bandit","33","174014","0.0-18.0-15.0","62157056","wem/bandit_party_1","A1DJDT4B5B19Q2","either","3","336","","","","","","","1","0","0","0.8","","0.5","0.5","","","","","","","0.8","0.2","","","","","","","","","","","","74","J","0","img/none_selected_demo.jpg","true","0","80_20_practice",""
"","bandit","34","175868","0.0-18.0-16.0","62157056","wem/bandit_party_1","A1DJDT4B5B19Q2","either","3","347","","","","","","","0","0","1","","0.8","0.5","0.5","","","0.8","0.2","","","","","","","","","","","","","","","","74","J","0","img/none_selected_demo.jpg","true","0","80_20_practice",""
"","bandit","35","177636","0.0-18.0-17.0","62157056","wem/bandit_party_1","A1DJDT4B5B19Q2","either","3","261","","","","","","","0","0","1","0.2","","0.5","0.5","","","","","","","0.8","0.2","","","","","","","","","","","","75","K","1","","true","0","80_20_practice",""
"","bandit","36","179452","0.0-18.0-18.0","62157056","wem/bandit_party_1","A1DJDT4B5B19Q2","either","3","309","","","","","","","0","1","0","","0.8","0.5","0.5","","","0.8","0.2","","","","","","","","","","","","","","","","74","J","0","img/none_selected_demo.jpg","true","0","80_20_practice",""
"","bandit","37","181308","0.0-18.0-19.0","62157056","wem/bandit_party_1","A1DJDT4B5B19Q2","either","3","347","","","","","","","0","1","0","","0.8","0.5","0.5","","","0.8","0.2","","","","","","","","","","","","","","","","74","J","0","img/none_selected_demo.jpg","true","0","80_20_practice",""
"","text-replacement","38","183442","0.0-19.0","62157056","wem/bandit_party_1","A1DJDT4B5B19Q2","either","3","2131","","","32","","","","","","","","","","","","","","","","","","","","","","","","","","","","","","","","","","","","",""
"","bandit","39","185722","0.0-20.0-0.0","62157056","wem/bandit_party_1","A1DJDT4B5B19Q2","either","3","774","","","","","","","1","0","0","1","0","","","","","0","1","","","1","0","","","","","","","","","","","","74","J","0","img/none_selected_demo.jpg","true","0","",""
"","text-replacement","40","187823","0.0-21.0","62157056","wem/bandit_party_1","A1DJDT4B5B19Q2","either","3","2097","","","32","","","","","","","","","","","","","","","","","","","","","","","","","","","","","","","","","","","","",""
"","text-replacement","41","189560","0.0-22.0","62157056","wem/bandit_party_1","A1DJDT4B5B19Q2","either","3","1734","","","32","","","","","","","","","","","","","","","","","","","","","","","","","","","","","","","","","","","","",""
"","text-replacement","42","191254","0.0-23.0","62157056","wem/bandit_party_1","A1DJDT4B5B19Q2","either","3","1691","","","32","","","","","","","","","","","","","","","","","","","","","","","","","","","","","","","","","","","","",""
"","text-replacement","43","193781","0.0-24.0","62157056","wem/bandit_party_1","A1DJDT4B5B19Q2","either","3","2523","","","32","","","","","","","","","","","","","","","","","","","","","","","","","","","","","","","","","","","","",""
"","text-replacement","44","197650","0.0-25.0","62157056","wem/bandit_party_1","A1DJDT4B5B19Q2","either","3","3863","","","32","","","","","","","","","","","","","","","","","","","","","","","","","","","","","","","","","","","","",""
"","text-replacement","45","200289","0.0-26.0","62157056","wem/bandit_party_1","A1DJDT4B5B19Q2","either","3","2637","","","32","","","","","","","","","","","","","","","","","","","","","","","","","","","","","","","","","","","","",""
"","text-replacement","46","203605","0.0-27.0","62157056","wem/bandit_party_1","A1DJDT4B5B19Q2","either","3","3312","","","32","","","","","","","","","","","","","","","","","","","","","","","","","","","","","","","","","","","","",""
"","text-replacement","47","205722","0.0-28.0","62157056","wem/bandit_party_1","A1DJDT4B5B19Q2","either","3","2114","","","32","","","","","","","","","","","","","","","","","","","","","","","","","","","","","","","","","","","","",""
"","text-replacement","48","207415","0.0-29.0","62157056","wem/bandit_party_1","A1DJDT4B5B19Q2","either","3","1690","","","32","","","","","","","","","","","","","","","","","","","","","","","","","","","","","","","","","","","","",""
"","text-replacement","49","208559","0.0-30.0","62157056","wem/bandit_party_1","A1DJDT4B5B19Q2","either","3","1140","","","32","","","","","","","","","","","","","","","","","","","","","","","","","","","","","","","","","","","","",""
"","text-replacement","50","212177","0.0-31.0","62157056","wem/bandit_party_1","A1DJDT4B5B19Q2","either","3","3617","","","32","","","","","","","","","","","","","","","","","","","","","","","","","","","","","","","","","","","","",""
"","bandit","51","214562","0.0-32.0-0.0","62157056","wem/bandit_party_1","A1DJDT4B5B19Q2","either","3","878","","","","","","","1","0","0","0.8","","0.5","0.5","0.5","0.5","","","","","0.8","0.2","0.6","0.2","","","","","","","","","","72","H","0","img/none_selected.jpg","true","0","full_practice",""
"","bandit","52","216544","0.0-32.0-1.0","62157056","wem/bandit_party_1","A1DJDT4B5B19Q2","either","3","476","","","","","","","0","0","1","","0.2","0.5","0.5","0.5","0.5","0.8","0.2","0.6","0.2","","","","","","","","","","","","","","74","J","1","","true","0","full_practice",""
"","bandit","53","218444","0.0-32.0-2.0","62157056","wem/bandit_party_1","A1DJDT4B5B19Q2","either","3","393","","","","","","","0","0","1","0.6","","0.5","0.5","0.5","0.5","","","","","0.8","0.2","0.6","0.2","","","","","","","","","","75","K","2","","true","0","full_practice",""
"","bandit","54","220329","0.0-32.0-3.0","62157056","wem/bandit_party_1","A1DJDT4B5B19Q2","either","3","377","","","","","","","1","0","0","0.2","","0.5","0.5","0.5","0.5","","","","","0.8","0.2","0.6","0.2","","","","","","","","","","76","L","3","","true","0","full_practice",""
"","bandit","55","222280","0.0-32.0-4.0","62157056","wem/bandit_party_1","A1DJDT4B5B19Q2","either","3","443","","","","","","","1","0","0","0.8","","0.5","0.5","0.5","0.5","","","","","0.8","0.2","0.6","0.2","","","","","","","","","","72","H","0","img/none_selected.jpg","true","0","full_practice",""
"","bandit","56","224109","0.0-32.0-5.0","62157056","wem/bandit_party_1","A1DJDT4B5B19Q2","either","3","322","","","","","","","0","0","1","","0.2","0.5","0.5","0.5","0.5","0.8","0.2","0.6","0.2","","","","","","","","","","","","","","76","L","3","","true","0","full_practice",""
"","bandit","57","226272","0.0-32.0-6.0","62157056","wem/bandit_party_1","A1DJDT4B5B19Q2","either","3","656","","","","","","","0","1","0","","0.8","0.5","0.5","0.5","0.5","0.8","0.2","0.6","0.2","","","","","","","","","","","","","","72","H","0","img/none_selected.jpg","true","0","full_practice",""
"","bandit","58","228201","0.0-32.0-7.0","62157056","wem/bandit_party_1","A1DJDT4B5B19Q2","either","3","421","","","","","","","0","0","1","0.8","","0.5","0.5","0.5","0.5","","","","","0.8","0.2","0.6","0.2","","","","","","","","","","72","H","0","img/none_selected.jpg","true","0","full_practice",""
"","bandit","59","229896","0.0-32.0-8.0","62157056","wem/bandit_party_1","A1DJDT4B5B19Q2","either","3","186","","","","","","","0","1","0","","0.8","0.5","0.5","0.5","0.5","0.8","0.2","0.6","0.2","","","","","","","","","","","","","","72","H","0","img/none_selected.jpg","true","0","full_practice",""
"","bandit","60","231750","0.0-32.0-9.0","62157056","wem/bandit_party_1","A1DJDT4B5B19Q2","either","3","346","","","","","","","0","1","0","","0.8","0.5","0.5","0.5","0.5","0.8","0.2","0.6","0.2","","","","","","","","","","","","","","72","H","0","img/none_selected.jpg","true","0","full_practice",""
"","bandit","61","233666","0.0-32.0-10.0","62157056","wem/bandit_party_1","A1DJDT4B5B19Q2","either","3","409","","","","","","","1","0","0","0.8","","0.5","0.5","0.5","0.5","","","","","0.8","0.2","0.6","0.2","","","","","","","","","","72","H","0","img/none_selected.jpg","true","0","full_practice",""
"","bandit","62","235422","0.0-32.0-11.0","62157056","wem/bandit_party_1","A1DJDT4B5B19Q2","either","3","248","","","","","","","1","0","0","0.8","","0.5","0.5","0.5","0.5","","","","","0.8","0.2","0.6","0.2","","","","","","","","","","72","H","0","img/none_selected.jpg","true","0","full_practice",""
"","bandit","63","237108","0.0-32.0-12.0","62157056","wem/bandit_party_1","A1DJDT4B5B19Q2","either","3","176","","","","","","","1","0","0","0.8","","0.5","0.5","0.5","0.5","","","","","0.8","0.2","0.6","0.2","","","","","","","","","","72","H","0","img/none_selected.jpg","true","0","full_practice",""
"","bandit","64","238935","0.0-32.0-13.0","62157056","wem/bandit_party_1","A1DJDT4B5B19Q2","either","3","319","","","","","","","1","0","0","0.8","","0.5","0.5","0.5","0.5","","","","","0.8","0.2","0.6","0.2","","","","","","","","","","72","H","0","img/none_selected.jpg","true","0","full_practice",""
"","bandit","65","240774","0.0-32.0-14.0","62157056","wem/bandit_party_1","A1DJDT4B5B19Q2","either","3","333","","","","","","","0","1","0","","0.8","0.5","0.5","0.5","0.5","0.8","0.2","0.6","0.2","","","","","","","","","","","","","","72","H","0","img/none_selected.jpg","true","0","full_practice",""
"","bandit","66","242694","0.0-32.0-15.0","62157056","wem/bandit_party_1","A1DJDT4B5B19Q2","either","3","412","","","","","","","0","1","0","","0.8","0.5","0.5","0.5","0.5","0.8","0.2","0.6","0.2","","","","","","","","","","","","","","72","H","0","img/none_selected.jpg","true","0","full_practice",""
"","bandit","67","244601","0.0-32.0-16.0","62157056","wem/bandit_party_1","A1DJDT4B5B19Q2","either","3","400","","","","","","","0","1","0","","0.8","0.5","0.5","0.5","0.5","0.8","0.2","0.6","0.2","","","","","","","","","","","","","","72","H","0","img/none_selected.jpg","true","0","full_practice",""
"","bandit","68","246458","0.0-32.0-17.0","62157056","wem/bandit_party_1","A1DJDT4B5B19Q2","either","3","347","","","","","","","0","0","1","0.8","","0.5","0.5","0.5","0.5","","","","","0.8","0.2","0.6","0.2","","","","","","","","","","72","H","0","img/none_selected.jpg","true","0","full_practice",""
"","bandit","69","248913","0.0-32.0-18.0","62157056","wem/bandit_party_1","A1DJDT4B5B19Q2","either","3","947","","","","","","","0","0","1","","0.2","0.5","0.5","0.5","0.5","0.8","0.2","0.6","0.2","","","","","","","","","","","","","","74","J","1","","true","0","full_practice",""
"","bandit","70","250768","0.0-32.0-19.0","62157056","wem/bandit_party_1","A1DJDT4B5B19Q2","either","3","348","","","","","","","0","1","0","","0.6","0.5","0.5","0.5","0.5","0.8","0.2","0.6","0.2","","","","","","","","","","","","","","75","K","2","","true","0","full_practice",""
"","text","71","253294","0.0-33.0","62157056","wem/bandit_party_1","A1DJDT4B5B19Q2","either","3","2508","","","32","","","","","","","","","","","","","","","","","","","","","","","","","","","","","","","","","","","","",""
"","text-replacement","72","264221","0.0-34.0","62157056","wem/bandit_party_1","A1DJDT4B5B19Q2","either","3","9921","","","32","","","","","","","","","","","","","","","","","","","","","","","","","","","","","","","","","","","","",""
"","text-replacement","73","275990","0.0-35.0","62157056","wem/bandit_party_1","A1DJDT4B5B19Q2","either","3","11764","","","32","","","","","","","","","","","","","","","","","","","","","","","","","","","","","","","","","","","","",""
"","text-replacement","74","276201","0.0-36.0","62157056","wem/bandit_party_1","A1DJDT4B5B19Q2","either","3","205","","","32","","","","","","","","","","","","","","","","","","","","","","","","","","","","","","","","","","","","",""
"","text-replacement","75","281682","0.0-37.0","62157056","wem/bandit_party_1","A1DJDT4B5B19Q2","either","3","5476","","","32","","","","","","","","","","","","","","","","","","","","","","","","","","","","","","","","","","","","",""
"","text-replacement","76","285757","0.0-38.0","62157056","wem/bandit_party_1","A1DJDT4B5B19Q2","either","3","4069","","","32","","","","","","","","","","","","","","","","","","","","","","","","","","","","","","","","","","","","",""
"","survey-multi-choice-replacement","77","296067","0.0-39.0-0.0","62157056","wem/bandit_party_1","A1DJDT4B5B19Q2","either","3","10294","","","","","","","","","","","","","","","","","","","","","","","","Money will be added to the pool for <span style='color:blue;'>DEMOCRATS</span>","","","","","","","attn_check","","","","","","","","","0"
"","survey-multi-choice-replacement","78","305217","0.0-40.0-0.0","62157056","wem/bandit_party_1","A1DJDT4B5B19Q2","either","3","8131","","","","","","","","","","","","","","","","","","","","","","","","Equal amounts of money will be added to the pool for <span style='color:blue;'>DEMOCRATS</span> and subtracted from the pool for <span style='color:red;'>REPUBLICANS</span>","","","","","","","attn_check","","","","","","","","","2"
"","survey-multi-choice-replacement","79","310193","0.0-41.0-0.0","62157056","wem/bandit_party_1","A1DJDT4B5B19Q2","either","3","3958","","","","","","","","","","","","","","","","","","","","","","","","No money will be added to either pool","","","","","","","attn_check","","","","","","","","","3"
"","bandit","80","317141","0.0-42.0-0.0","62157056","wem/bandit_party_1","A1DJDT4B5B19Q2","either","3","4432","","","","","","","1","0","0","0.4870892339","","0.4","0.2","0.6","0.8","","","","","0.4870892339","0.1426046982","0.1646489015","0.07685641067","","","","","","","","","","72","H","0","img/none_selected.jpg","","1","main_expt",""
"","bandit","81","319231","0.0-43.0-0.0","62157056","wem/bandit_party_1","A1DJDT4B5B19Q2","either","3","579","","","","","","","0","0","1","","0.4875162112","0.4","0.2","0.6","0.8","0.4875162112","0.1597004976","0.2180431119","0.08388143876","","","","","","","","","","","","","","72","H","0","img/none_selected.jpg","","2","main_expt",""
"","bandit","82","321590","0.0-44.0-0.0","62157056","wem/bandit_party_1","A1DJDT4B5B19Q2","either","3","852","","","","","","","0","1","0","","0.1381850853","0.4","0.2","0.6","0.8","0.4909945117","0.1381850853","0.2294217256","0.06528774038","","","","","","","","","","","","","","74","J","1","","","3","main_expt",""
"","bandit","83","323572","0.0-45.0-0.0","62157056","wem/bandit_party_1","A1DJDT4B5B19Q2","either","3","472","","","","","","","0","0","1","","0.1787932262","0.4","0.2","0.6","0.8","0.482579304","0.1787932262","0.2162119515","0.07987899881","","","","","","","","","","","","","","74","J","1","","","4","main_expt",""
"","bandit","84","325814","0.0-46.0-0.0","62157056","wem/bandit_party_1","A1DJDT4B5B19Q2","either","3","733","","","","","","","0","0","1","0.0432391811","","0.4","0.2","0.6","0.8","","","","","0.4887913002","0.1795032464","0.2246316054","0.0432391811","","","","","","","","","","76","L","3","","","5","main_expt",""
"","bandit","85","327945","0.0-47.0-0.0","62157056","wem/bandit_party_1","A1DJDT4B5B19Q2","either","3","620","","","","","","","0","0","1","","0.2061018479","0.4","0.2","0.6","0.8","0.4887860333","0.164375756","0.2061018479","0.03467601655","","","","","","","","","","","","","","75","K","2","","","6","main_expt",""
"","bandit","86","330257","0.0-48.0-0.0","62157056","wem/bandit_party_1","A1DJDT4B5B19Q2","either","3","803","","","","","","","0","0","1","","0.4901971563","0.4","0.2","0.6","0.8","0.4901971563","0.204957223","0.1795347326","0.05033951668","","","","","","","","","","","","","","72","H","0","img/none_selected.jpg","","7","main_expt",""
"","bandit","87","332199","0.0-49.0-0.0","62157056","wem/bandit_party_1","A1DJDT4B5B19Q2","either","3","432","","","","","","","0","0","1","","0.2162036531","0.4","0.2","0.6","0.8","0.4862230721","0.2162036531","0.1290452752","0.07676355645","","","","","","","","","","","","","","74","J","1","","","8","main_expt",""
"","bandit","88","334115","0.0-50.0-0.0","62157056","wem/bandit_party_1","A1DJDT4B5B19Q2","either","3","405","","","","","","","0","0","1","0.1559184374","","0.4","0.2","0.6","0.8","","","","","0.4759730645","0.2167418122","0.1559184374","0.08620859221","","","","","","","","","","75","K","2","","","9","main_expt",""
"","bandit","89","335822","0.0-51.0-0.0","62157056","wem/bandit_party_1","A1DJDT4B5B19Q2","either","3","196","","","","","","","0","0","1","","0.4560980466","0.4","0.2","0.6","0.8","0.4560980466","0.1607923637","0.1381514788","0.1103839657","","","","","","","","","","","","","","72","H","0","img/none_selected.jpg","","10","main_expt",""
"","bandit","90","337669","0.0-52.0-0.0","62157056","wem/bandit_party_1","A1DJDT4B5B19Q2","either","3","337","","","","","","","1","0","0","0.4775116046","","0.4","0.2","0.6","0.8","","","","","0.4775116046","0.1386410957","0.1271140015","0.1334948588","","","","","","","","","","72","H","0","img/none_selected.jpg","","11","main_expt",""
"","bandit","91","339739","0.0-53.0-0.0","62157056","wem/bandit_party_1","A1DJDT4B5B19Q2","either","3","561","","","","","","","0","0","1","","0.4705073552","0.4","0.2","0.6","0.8","0.4705073552","0.1718380738","0.1854664659","0.1535602519","","","","","","","","","","","","","","72","H","0","img/none_selected.jpg","","12","main_expt",""
"","bandit","92","341431","0.0-54.0-0.0","62157056","wem/bandit_party_1","A1DJDT4B5B19Q2","either","3","182","","","","","","","0","0","1","0.4851887342","","0.4","0.2","0.6","0.8","","","","","0.4851887342","0.1686303413","0.1869952656","0.127854239","","","","","","","","","","72","H","0","img/none_selected.jpg","","13","main_expt",""
"","bandit","93","343400","0.0-55.0-0.0","62157056","wem/bandit_party_1","A1DJDT4B5B19Q2","either","3","460","","","","","","","0","0","1","0.1507911491","","0.4","0.2","0.6","0.8","","","","","0.4731273917","0.1460019496","0.2035171393","0.1507911491","","","","","","","","","","76","L","3","","","14","main_expt",""
"","bandit","94","346431","0.0-56.0-0.0","62157056","wem/bandit_party_1","A1DJDT4B5B19Q2","either","3","1521","","","","","","","0","1","0","","0.2800299461","0.4","0.2","0.6","0.8","0.4585867004","0.1667614464","0.2800299461","0.1741212098","","","","","","","","","","","","","","75","K","2","","","15","main_expt",""
"","bandit","95","348464","0.0-57.0-0.0","62157056","wem/bandit_party_1","A1DJDT4B5B19Q2","either","3","523","","","","","","","0","0","1","0.2725454461","","0.4","0.2","0.6","0.8","","","","","0.4366533258","0.1973644546","0.2725454461","0.1918308831","","","","","","","","","","75","K","2","","","16","main_expt",""
"","bandit","96","350329","0.0-58.0-0.0","62157056","wem/bandit_party_1","A1DJDT4B5B19Q2","either","3","355","","","","","","","0","0","1","0.1570621471","","0.4","0.2","0.6","0.8","","","","","0.4405228744","0.1873415792","0.1570621471","0.1950212473","","","","","","","","","","75","K","2","","","17","main_expt",""
"","bandit","97","352226","0.0-59.0-0.0","62157056","wem/bandit_party_1","A1DJDT4B5B19Q2","either","3","387","","","","","","","0","0","1","0.1968188506","","0.4","0.2","0.6","0.8","","","","","0.4678551263","0.1875860444","0.1968188506","0.2094813194","","","","","","","","","","75","K","2","","","18","main_expt",""
"","bandit","98","354086","0.0-60.0-0.0","62157056","wem/bandit_party_1","A1DJDT4B5B19Q2","either","3","350","","","","","","","0","0","1","","0.466140525","0.4","0.2","0.6","0.8","0.466140525","0.1988439388","0.2439518204","0.2628959394","","","","","","","","","","","","","","72","H","0","img/none_selected.jpg","","19","main_expt",""
"","bandit","99","356267","0.0-61.0-0.0","62157056","wem/bandit_party_1","A1DJDT4B5B19Q2","either","3","672","","","","","","","0","0","1","","0.1813993393","0.4","0.2","0.6","0.8","0.4094087999","0.1813993393","0.2806117898","0.2116504525","","","","","","","","","","","","","","74","J","1","","","20","main_expt",""
"","bandit","100","358241","0.0-62.0-0.0","62157056","wem/bandit_party_1","A1DJDT4B5B19Q2","either","3","464","","","","","","","0","0","1","0.1904426465","","0.4","0.2","0.6","0.8","","","","","0.4386974508","0.2012004452","0.2658005831","0.1904426465","","","","","","","","","","76","L","3","","","21","main_expt",""
"","bandit","101","360187","0.0-63.0-0.0","62157056","wem/bandit_party_1","A1DJDT4B5B19Q2","either","3","436","","","","","","","0","0","1","0.1958646163","","0.4","0.2","0.6","0.8","","","","","0.4505723784","0.1958646163","0.2774390086","0.1581796968","","","","","","","","","","74","J","1","","","22","main_expt",""
"","bandit","102","361978","0.0-64.0-0.0","62157056","wem/bandit_party_1","A1DJDT4B5B19Q2","either","3","280","","","","","","","0","0","1","0.2795917474","","0.4","0.2","0.6","0.8","","","","","0.4568000239","0.2626819079","0.2795917474","0.2039009352","","","","","","","","","","75","K","2","","","23","main_expt",""
"","bandit","103","363772","0.0-65.0-0.0","62157056","wem/bandit_party_1","A1DJDT4B5B19Q2","either","3","283","","","","","","","0","0","1","","0.4518339256","0.4","0.2","0.6","0.8","0.4518339256","0.2906682881","0.2981059477","0.228339491","","","","","","","","","","","","","","72","H","0","img/none_selected.jpg","","24","main_expt",""
"","bandit","104","365531","0.0-66.0-0.0","62157056","wem/bandit_party_1","A1DJDT4B5B19Q2","either","3","247","","","","","","","1","0","0","0.4120159309","","0.4","0.2","0.6","0.8","","","","","0.4120159309","0.3270173502","0.3272059922","0.2602465224","","","","","","","","","","72","H","0","img/none_selected.jpg","","25","main_expt",""
"","bandit","105","367477","0.0-67.0-0.0","62157056","wem/bandit_party_1","A1DJDT4B5B19Q2","either","3","437","","","","","","","0","0","1","","0.4134154185","0.4","0.2","0.6","0.8","0.4134154185","0.2951289915","0.3369826645","0.1939420306","","","","","","","","","","","","","","72","H","0","img/none_selected.jpg","","26","main_expt",""
"","bandit","106","371013","0.0-68.0-0.0","62157056","wem/bandit_party_1","A1DJDT4B5B19Q2","either","3","2026","","","","","","","0","0","1","","0.2531212506","0.4","0.2","0.6","0.8","0.4031068294","0.3520126272","0.2531212506","0.2387331149","","","","","","","","","","","","","","75","K","2","","","27","main_expt",""
"","bandit","107","372950","0.0-69.0-0.0","62157056","wem/bandit_party_1","A1DJDT4B5B19Q2","either","3","425","","","","","","","0","0","1","","0.4305883772","0.4","0.2","0.6","0.8","0.4305883772","0.3369287003","0.2170461037","0.2183458617","","","","","","","","","","","","","","72","H","0","img/none_selected.jpg","","28","main_expt",""
"","bandit","108","374818","0.0-70.0-0.0","62157056","wem/bandit_party_1","A1DJDT4B5B19Q2","either","3","357","","","","","","","0","0","1","0.2346211465","","0.4","0.2","0.6","0.8","","","","","0.4383329838","0.3591799128","0.2346211465","0.2151501268","","","","","","","","","","75","K","2","","","29","main_expt",""
"","bandit","109","377335","0.0-71.0-0.0","62157056","wem/bandit_party_1","A1DJDT4B5B19Q2","either","3","1005","","","","","","","0","0","1","","0.3324285477","0.4","0.2","0.6","0.8","0.4233276099","0.3324285477","0.2450860663","0.2267233056","","","","","","","","","","","","","","74","J","1","","","30","main_expt",""
"","bandit","110","379186","0.0-72.0-0.0","62157056","wem/bandit_party_1","A1DJDT4B5B19Q2","either","3","341","","","","","","","0","1","0","","0.327032362","0.4","0.2","0.6","0.8","0.4016185005","0.327032362","0.2141169407","0.2663701676","","","","","","","","","","","","","","74","J","1","","","31","main_expt",""
"","bandit","111","381098","0.0-73.0-0.0","62157056","wem/bandit_party_1","A1DJDT4B5B19Q2","either","3","404","","","","","","","0","1","0","","0.3230905041","0.4","0.2","0.6","0.8","0.4134940178","0.3230905041","0.2347854155","0.275969473","","","","","","","","","","","","","","74","J","1","","","32","main_expt",""
"","bandit","112","382968","0.0-74.0-0.0","62157056","wem/bandit_party_1","A1DJDT4B5B19Q2","either","3","359","","","","","","","0","0","1","","0.2969008969","0.4","0.2","0.6","0.8","0.4331174495","0.2969008969","0.246596708","0.3365270118","","","","","","","","","","","","","","74","J","1","","","33","main_expt",""
"","bandit","113","384888","0.0-75.0-0.0","62157056","wem/bandit_party_1","A1DJDT4B5B19Q2","either","3","409","","","","","","","0","1","0","","0.2536392951","0.4","0.2","0.6","0.8","0.4454497031","0.2536392951","0.1914370393","0.2916301021","","","","","","","","","","","","","","74","J","1","","","34","main_expt",""
"","bandit","114","386738","0.0-76.0-0.0","62157056","wem/bandit_party_1","A1DJDT4B5B19Q2","either","3","344","","","","","","","0","0","1","0.2336030597","","0.4","0.2","0.6","0.8","","","","","0.4419706984","0.2336030597","0.1408207185","0.3236538836","","","","","","","","","","74","J","1","","","35","main_expt",""
"","bandit","115","388708","0.0-77.0-0.0","62157056","wem/bandit_party_1","A1DJDT4B5B19Q2","either","3","459","","","","","","","0","1","0","","0.3110392291","0.4","0.2","0.6","0.8","0.4205940312","0.3110392291","0.09539735145","0.3317439785","","","","","","","","","","","","","","74","J","1","","","36","main_expt",""
"","bandit","116","390579","0.0-78.0-0.0","62157056","wem/bandit_party_1","A1DJDT4B5B19Q2","either","3","361","","","","","","","0","0","1","","0.3354302382","0.4","0.2","0.6","0.8","0.4227305347","0.3354302382","0.08867332122","0.3620900841","","","","","","","","","","","","","","74","J","1","","","37","main_expt",""
"","bandit","117","392309","0.0-79.0-0.0","62157056","wem/bandit_party_1","A1DJDT4B5B19Q2","either","3","222","","","","","","","0","0","1","","0.3359947902","0.4","0.2","0.6","0.8","0.3904174821","0.3359947902","0.0804097964","0.3649119955","","","","","","","","","","","","","","74","J","1","","","38","main_expt",""
"","bandit","118","394156","0.0-80.0-0.0","62157056","wem/bandit_party_1","A1DJDT4B5B19Q2","either","3","336","","","","","","","0","0","1","","0.3719467902","0.4","0.2","0.6","0.8","0.3704092514","0.3719467902","0.1092906338","0.3993258453","","","","","","","","","","","","","","74","J","1","","","39","main_expt",""
"","bandit","119","395788","0.0-81.0-0.0","62157056","wem/bandit_party_1","A1DJDT4B5B19Q2","either","3","121","","","","","","","0","0","1","","0.3250394812","0.4","0.2","0.6","0.8","0.3250394812","0.37180955","0.08771014895","0.43145226","","","","","","","","","","","","","","72","H","0","img/none_selected.jpg","","40","main_expt",""
"","bandit","120","399808","0.0-82.0-0.0","62157056","wem/bandit_party_1","A1DJDT4B5B19Q2","either","3","2508","","","","","","","1","0","0","0.3925837484","","0.4","0.2","0.6","0.8","","","","","0.3633775572","0.3972707938","0.1065106481","0.3925837484","","","","","","","","","","76","L","3","","","41","main_expt",""
"","bandit","121","405122","0.0-83.0-0.0","62157056","wem/bandit_party_1","A1DJDT4B5B19Q2","either","3","3801","","","","","","","0","0","1","0.4020613291","","0.4","0.2","0.6","0.8","","","","","0.3708570881","0.3981555674","0.0926848955","0.4020613291","","","","","","","","","","76","L","3","","","42","main_expt",""
"","bandit","122","406680","0.0-84.0-0.0","62157056","wem/bandit_party_1","A1DJDT4B5B19Q2","either","3","46","","","","","","","1","0","0","0.3852030547","","0.4","0.2","0.6","0.8","","","","","0.3852030547","0.3698022864","0.09213729174","0.4199094288","","","","","","","","","","72","H","0","img/none_selected.jpg","","43","main_expt",""
"","bandit","123","408587","0.0-85.0-0.0","62157056","wem/bandit_party_1","A1DJDT4B5B19Q2","either","3","395","","","","","","","0","0","1","0.3653477133","","0.4","0.2","0.6","0.8","","","","","0.3653477133","0.3278340923","0.0950319608","0.4362917367","","","","","","","","","","72","H","0","img/none_selected.jpg","","44","main_expt",""
"","bandit","124","410552","0.0-86.0-0.0","62157056","wem/bandit_party_1","A1DJDT4B5B19Q2","either","3","453","","","","","","","0","1","0","","0.4004869948","0.4","0.2","0.6","0.8","0.3423722135","0.4004869948","0.07917944011","0.4310393502","","","","","","","","","","","","","","74","J","1","","","45","main_expt",""
"","bandit","125","412433","0.0-87.0-0.0","62157056","wem/bandit_party_1","A1DJDT4B5B19Q2","either","3","369","","","","","","","0","0","1","","0.4389658195","0.4","0.2","0.6","0.8","0.2713785315","0.4389658195","0.08528552535","0.4301719659","","","","","","","","","","","","","","74","J","1","","","46","main_expt",""
"","bandit","126","414385","0.0-88.0-0.0","62157056","wem/bandit_party_1","A1DJDT4B5B19Q2","either","3","439","","","","","","","0","0","1","0.2675382036","","0.4","0.2","0.6","0.8","","","","","0.2675382036","0.4294918489","0.08303267599","0.4274268526","","","","","","","","","","72","H","0","img/none_selected.jpg","","47","main_expt",""
"","bandit","127","416272","0.0-89.0-0.0","62157056","wem/bandit_party_1","A1DJDT4B5B19Q2","either","3","374","","","","","","","0","0","1","","0.3948346084","0.4","0.2","0.6","0.8","0.3006553151","0.3948346084","0.1183490009","0.4559220927","","","","","","","","","","","","","","74","J","1","","","48","main_expt",""
"","bandit","128","417975","0.0-90.0-0.0","62157056","wem/bandit_party_1","A1DJDT4B5B19Q2","either","3","190","","","","","","","0","0","1","","0.4362936898","0.4","0.2","0.6","0.8","0.2865645246","0.4226663974","0.09831357925","0.4362936898","","","","","","","","","","","","","","76","L","3","","","49","main_expt",""
"","bandit","129","419729","0.0-91.0-0.0","62157056","wem/bandit_party_1","A1DJDT4B5B19Q2","either","3","241","","","","","","","0","0","1","0.0896163698","","0.4","0.2","0.6","0.8","","","","","0.2842330123","0.3943232949","0.0896163698","0.4001593617","","","","","","","","","","75","K","2","","","50","main_expt",""
"","bandit","130","421781","0.0-92.0-0.0","62157056","wem/bandit_party_1","A1DJDT4B5B19Q2","either","3","539","","","","","","","0","0","1","","0.3911898034","0.4","0.2","0.6","0.8","0.2933637591","0.3911898034","0.08239790895","0.3737598101","","","","","","","","","","","","","","74","J","1","","","51","main_expt",""
"","bandit","131","423432","0.0-93.0-0.0","62157056","wem/bandit_party_1","A1DJDT4B5B19Q2","either","3","135","","","","","","","1","0","0","0.2802127762","","0.4","0.2","0.6","0.8","","","","","0.2802127762","0.3897106723","0.06509061927","0.3490564905","","","","","","","","","","72","H","0","img/none_selected.jpg","","52","main_expt",""
"","bandit","132","425485","0.0-94.0-0.0","62157056","wem/bandit_party_1","A1DJDT4B5B19Q2","either","3","539","","","","","","","0","0","1","0.3977919118","","0.4","0.2","0.6","0.8","","","","","0.2567133084","0.3977919118","0.05503049918","0.3606416198","","","","","","","","","","74","J","1","","","53","main_expt",""
"","bandit","133","427198","0.0-95.0-0.0","62157056","wem/bandit_party_1","A1DJDT4B5B19Q2","either","3","199","","","","","","","0","1","0","","0.304436262","0.4","0.2","0.6","0.8","0.304436262","0.3803623479","0.06606451817","0.3920172378","","","","","","","","","","","","","","72","H","0","img/none_selected.jpg","","54","main_expt",""
"","bandit","134","428986","0.0-96.0-0.0","62157056","wem/bandit_party_1","A1DJDT4B5B19Q2","either","3","275","","","","","","","0","0","1","","0.3050376594","0.4","0.2","0.6","0.8","0.3050376594","0.3898030924","0.0812436444","0.3841867886","","","","","","","","","","","","","","72","H","0","img/none_selected.jpg","","55","main_expt",""
"","bandit","135","430758","0.0-97.0-0.0","62157056","wem/bandit_party_1","A1DJDT4B5B19Q2","either","3","260","","","","","","","0","0","1","","0.4332266089","0.4","0.2","0.6","0.8","0.2874076515","0.4332266089","0.05752214818","0.3752679739","","","","","","","","","","","","","","74","J","1","","","56","main_expt",""
"","bandit","136","432278","0.0-98.0-0.0","62157056","wem/bandit_party_1","A1DJDT4B5B19Q2","either","3","8","","","","","","","0","0","1","","0.2633226407","0.4","0.2","0.6","0.8","0.2633226407","0.4598680415","0.05957573693","0.3595388075","","","","","","","","","","","","","","72","H","0","img/none_selected.jpg","","57","main_expt",""
"","bandit","137","434177","0.0-99.0-0.0","62157056","wem/bandit_party_1","A1DJDT4B5B19Q2","either","3","387","","","","","","","0","0","1","","0.282557186","0.4","0.2","0.6","0.8","0.282557186","0.4510058242","0.08347810371","0.2926617498","","","","","","","","","","","","","","72","H","0","img/none_selected.jpg","","58","main_expt",""
"","bandit","138","435958","0.0-100.0-0.0","62157056","wem/bandit_party_1","A1DJDT4B5B19Q2","either","3","259","","","","","","","0","1","0","","0.2675679041","0.4","0.2","0.6","0.8","0.2675679041","0.4587464736","0.1166757522","0.2854140482","","","","","","","","","","","","","","72","H","0","img/none_selected.jpg","","59","main_expt",""
"","bandit","139","437801","0.0-101.0-0.0","62157056","wem/bandit_party_1","A1DJDT4B5B19Q2","either","3","330","","","","","","","0","0","1","","0.2654645802","0.4","0.2","0.6","0.8","0.2654645802","0.4534111386","0.1223048521","0.2767785787","","","","","","","","","","","","","","72","H","0","img/none_selected.jpg","","60","main_expt",""
"","bandit","140","439577","0.0-102.0-0.0","62157056","wem/bandit_party_1","A1DJDT4B5B19Q2","either","3","264","","","","","","","0","0","1","0.2326588137","","0.4","0.2","0.6","0.8","","","","","0.2326588137","0.4581751116","0.1341525672","0.3110110239","","","","","","","","","","72","H","0","img/none_selected.jpg","","61","main_expt",""
"","bandit","141","441154","0.0-103.0-0.0","62157056","wem/bandit_party_1","A1DJDT4B5B19Q2","either","3","64","","","","","","","0","0","1","0.1748443247","","0.4","0.2","0.6","0.8","","","","","0.2430345153","0.4447189615","0.1748443247","0.2739379344","","","","","","","","","","75","K","2","","","62","main_expt",""
"","bandit","142","442879","0.0-104.0-0.0","62157056","wem/bandit_party_1","A1DJDT4B5B19Q2","either","3","214","","","","","","","0","1","0","","0.2682261916","0.4","0.2","0.6","0.8","0.2682261916","0.4351057758","0.1872250423","0.2518438402","","","","","","","","","","","","","","72","H","0","img/none_selected.jpg","","63","main_expt",""
"","bandit","143","444713","0.0-105.0-0.0","62157056","wem/bandit_party_1","A1DJDT4B5B19Q2","either","3","322","","","","","","","1","0","0","0.3136585585","","0.4","0.2","0.6","0.8","","","","","0.3136585585","0.4559228662","0.1592276408","0.216118181","","","","","","","","","","72","H","0","img/none_selected.jpg","","64","main_expt",""
"","bandit","144","446550","0.0-106.0-0.0","62157056","wem/bandit_party_1","A1DJDT4B5B19Q2","either","3","325","","","","","","","0","0","1","","0.3208042698","0.4","0.2","0.6","0.8","0.3208042698","0.4526438492","0.1881419285","0.1961712117","","","","","","","","","","","","","","72","H","0","img/none_selected.jpg","","65","main_expt",""
"","bandit","145","448411","0.0-107.0-0.0","62157056","wem/bandit_party_1","A1DJDT4B5B19Q2","either","3","348","","","","","","","0","0","1","0.2075830042","","0.4","0.2","0.6","0.8","","","","","0.3550213758","0.4604690516","0.2075830042","0.1821057022","","","","","","","","","","75","K","2","","","66","main_expt",""
"","bandit","146","450130","0.0-108.0-0.0","62157056","wem/bandit_party_1","A1DJDT4B5B19Q2","either","3","206","","","","","","","0","0","1","","0.2883445083","0.4","0.2","0.6","0.8","0.2883445083","0.4479534522","0.210321401","0.2221692745","","","","","","","","","","","","","","72","H","0","img/none_selected.jpg","","67","main_expt",""
"","bandit","147","451880","0.0-109.0-0.0","62157056","wem/bandit_party_1","A1DJDT4B5B19Q2","either","3","238","","","","","","","0","0","1","","0.4420076102","0.4","0.2","0.6","0.8","0.2492112051","0.4420076102","0.1740681144","0.2385328342","","","","","","","","","","","","","","74","J","1","","","68","main_expt",""
"","bandit","148","453727","0.0-110.0-0.0","62157056","wem/bandit_party_1","A1DJDT4B5B19Q2","either","3","338","","","","","","","0","0","1","","0.1725364023","0.4","0.2","0.6","0.8","0.1725364023","0.3840886122","0.1495678232","0.2693988132","","","","","","","","","","","","","","72","H","0","img/none_selected.jpg","","69","main_expt",""
"","bandit","149","455321","0.0-111.0-0.0","62157056","wem/bandit_party_1","A1DJDT4B5B19Q2","either","3","80","","","","","","","0","1","0","","0.1594524764","0.4","0.2","0.6","0.8","0.2081322216","0.3764426572","0.1594524764","0.2633889128","","","","","","","","","","","","","","75","K","2","","","70","main_expt",""
"","bandit","150","457193","0.0-112.0-0.0","62157056","wem/bandit_party_1","A1DJDT4B5B19Q2","either","3","359","","","","","","","0","0","1","","0.1308665948","0.4","0.2","0.6","0.8","0.2222096595","0.3925575972","0.1308665948","0.2881785301","","","","","","","","","","","","","","75","K","2","","","71","main_expt",""
"","bandit","151","459014","0.0-113.0-0.0","62157056","wem/bandit_party_1","A1DJDT4B5B19Q2","either","3","312","","","","","","","0","0","1","","0.1413665491","0.4","0.2","0.6","0.8","0.2276413934","0.4055717031","0.1413665491","0.3496752211","","","","","","","","","","","","","","75","K","2","","","72","main_expt",""
"","bandit","152","460865","0.0-114.0-0.0","62157056","wem/bandit_party_1","A1DJDT4B5B19Q2","either","3","337","","","","","","","0","0","1","","0.1562096843","0.4","0.2","0.6","0.8","0.202726327","0.4313753627","0.1562096843","0.3662649551","","","","","","","","","","","","","","75","K","2","","","73","main_expt",""
"","bandit","153","462686","0.0-115.0-0.0","62157056","wem/bandit_party_1","A1DJDT4B5B19Q2","either","3","307","","","","","","","1","0","0","0.1601549975","","0.4","0.2","0.6","0.8","","","","","0.2465356434","0.4294283137","0.1601549975","0.3318597218","","","","","","","","","","75","K","2","","","74","main_expt",""
"","bandit","154","464535","0.0-116.0-0.0","62157056","wem/bandit_party_1","A1DJDT4B5B19Q2","either","3","332","","","","","","","0","0","1","0.1962365409","","0.4","0.2","0.6","0.8","","","","","0.2780880013","0.4114775526","0.1962365409","0.3129946244","","","","","","","","","","75","K","2","","","75","main_expt",""
"","bandit","155","466213","0.0-117.0-0.0","62157056","wem/bandit_party_1","A1DJDT4B5B19Q2","either","3","164","","","","","","","0","0","1","0.2315068675","","0.4","0.2","0.6","0.8","","","","","0.230570622","0.4038916894","0.2315068675","0.3299880354","","","","","","","","","","75","K","2","","","76","main_expt",""
"","bandit","156","468745","0.0-118.0-0.0","62157056","wem/bandit_party_1","A1DJDT4B5B19Q2","either","3","1019","","","","","","","0","0","1","","0.4028298088","0.4","0.2","0.6","0.8","0.1747897532","0.4028298088","0.1749603823","0.2704336052","","","","","","","","","","","","","","74","J","1","","","77","main_expt",""
"","bandit","157","470593","0.0-119.0-0.0","62157056","wem/bandit_party_1","A1DJDT4B5B19Q2","either","3","334","","","","","","","0","0","1","0.2489008917","","0.4","0.2","0.6","0.8","","","","","0.2009150394","0.4004321452","0.2091975686","0.2489008917","","","","","","","","","","76","L","3","","","78","main_expt",""
"","bandit","158","473195","0.0-120.0-0.0","62157056","wem/bandit_party_1","A1DJDT4B5B19Q2","either","3","1089","","","","","","","0","0","1","","0.2090883318","0.4","0.2","0.6","0.8","0.2090883318","0.3909827091","0.2699334682","0.2182462247","","","","","","","","","","","","","","72","H","0","img/none_selected.jpg","","79","main_expt",""
"","bandit","159","475010","0.0-121.0-0.0","62157056","wem/bandit_party_1","A1DJDT4B5B19Q2","either","3","302","","","","","","","1","0","0","0.2712134299","","0.4","0.2","0.6","0.8","","","","","0.215522018","0.4289339141","0.2712134299","0.1591694045","","","","","","","","","","75","K","2","","","80","main_expt",""
"","bandit","160","476849","0.0-122.0-0.0","62157056","wem/bandit_party_1","A1DJDT4B5B19Q2","either","3","325","","","","","","","0","1","0","","0.2563236188","0.4","0.2","0.6","0.8","0.2655955182","0.4256341571","0.2563236188","0.1661146317","","","","","","","","","","","","","","75","K","2","","","81","main_expt",""
"","bandit","161","478678","0.0-123.0-0.0","62157056","wem/bandit_party_1","A1DJDT4B5B19Q2","either","3","315","","","","","","","1","0","0","0.2474856626","","0.4","0.2","0.6","0.8","","","","","0.2642342948","0.4153375647","0.2474856626","0.2249160828","","","","","","","","","","75","K","2","","","82","main_expt",""
"","bandit","162","480538","0.0-124.0-0.0","62157056","wem/bandit_party_1","A1DJDT4B5B19Q2","either","3","337","","","","","","","0","0","1","0.2338037125","","0.4","0.2","0.6","0.8","","","","","0.2615040017","0.4239102097","0.2338037125","0.2194800234","","","","","","","","","","75","K","2","","","83","main_expt",""
"","bandit","163","482364","0.0-125.0-0.0","62157056","wem/bandit_party_1","A1DJDT4B5B19Q2","either","3","311","","","","","","","0","0","1","0.2929655049","","0.4","0.2","0.6","0.8","","","","","0.3136368113","0.4021041833","0.2929655049","0.2020024956","","","","","","","","","","75","K","2","","","84","main_expt",""
"","bandit","164","484087","0.0-126.0-0.0","62157056","wem/bandit_party_1","A1DJDT4B5B19Q2","either","3","208","","","","","","","0","0","1","0.2755572306","","0.4","0.2","0.6","0.8","","","","","0.2433538552","0.4322374594","0.2755572306","0.1639230135","","","","","","","","","","75","K","2","","","85","main_expt",""
"","bandit","165","485925","0.0-127.0-0.0","62157056","wem/bandit_party_1","A1DJDT4B5B19Q2","either","3","323","","","","","","","0","1","0","","0.2706615249","0.4","0.2","0.6","0.8","0.2583740773","0.4247618508","0.2706615249","0.1423092638","","","","","","","","","","","","","","75","K","2","","","86","main_expt",""
"","bandit","166","487793","0.0-128.0-0.0","62157056","wem/bandit_party_1","A1DJDT4B5B19Q2","either","3","353","","","","","","","0","1","0","","0.3259805539","0.4","0.2","0.6","0.8","0.2656778135","0.4130492334","0.3259805539","0.1623313408","","","","","","","","","","","","","","75","K","2","","","87","main_expt",""
"","bandit","167","489614","0.0-129.0-0.0","62157056","wem/bandit_party_1","A1DJDT4B5B19Q2","either","3","307","","","","","","","0","1","0","","0.3471137027","0.4","0.2","0.6","0.8","0.2565525481","0.3883747858","0.3471137027","0.1459946163","","","","","","","","","","","","","","75","K","2","","","88","main_expt",""
"","bandit","168","491399","0.0-130.0-0.0","62157056","wem/bandit_party_1","A1DJDT4B5B19Q2","either","3","271","","","","","","","0","0","1","0.3715311126","","0.4","0.2","0.6","0.8","","","","","0.2471999074","0.3950807547","0.3715311126","0.1684807643","","","","","","","","","","75","K","2","","","89","main_expt",""
"","bandit","169","493255","0.0-131.0-0.0","62157056","wem/bandit_party_1","A1DJDT4B5B19Q2","either","3","341","","","","","","","0","0","1","","0.2204199549","0.4","0.2","0.6","0.8","0.2204199549","0.420982679","0.3571728809","0.1937692241","","","","","","","","","","","","","","72","H","0","img/none_selected.jpg","","90","main_expt",""
"","bandit","170","495458","0.0-132.0-0.0","62157056","wem/bandit_party_1","A1DJDT4B5B19Q2","either","3","687","","","","","","","0","0","1","0.3348642023","","0.4","0.2","0.6","0.8","","","","","0.2013548925","0.4012606491","0.3348642023","0.1670397906","","","","","","","","","","75","K","2","","","91","main_expt",""
"","bandit","171","497255","0.0-133.0-0.0","62157056","wem/bandit_party_1","A1DJDT4B5B19Q2","either","3","284","","","","","","","0","0","1","0.174921714","","0.4","0.2","0.6","0.8","","","","","0.174921714","0.3950870333","0.3551195155","0.1936095216","","","","","","","","","","72","H","0","img/none_selected.jpg","","92","main_expt",""
"","bandit","172","498827","0.0-134.0-0.0","62157056","wem/bandit_party_1","A1DJDT4B5B19Q2","either","3","58","","","","","","","0","0","1","0.3494458231","","0.4","0.2","0.6","0.8","","","","","0.1972058505","0.3797372222","0.3494458231","0.2399824117","","","","","","","","","","75","K","2","","","93","main_expt",""
"","bandit","173","500473","0.0-135.0-0.0","62157056","wem/bandit_party_1","A1DJDT4B5B19Q2","either","3","132","","","","","","","0","1","0","","0.3759818745","0.4","0.2","0.6","0.8","0.2144007407","0.3346339076","0.3759818745","0.242536602","","","","","","","","","","","","","","75","K","2","","","94","main_expt",""
"","bandit","174","502132","0.0-136.0-0.0","62157056","wem/bandit_party_1","A1DJDT4B5B19Q2","either","3","144","","","","","","","0","0","1","","0.3467088588","0.4","0.2","0.6","0.8","0.2025691914","0.3433005441","0.3467088588","0.3081296623","","","","","","","","","","","","","","75","K","2","","","95","main_expt",""
"","bandit","175","504747","0.0-137.0-0.0","62157056","wem/bandit_party_1","A1DJDT4B5B19Q2","either","3","1101","","","","","","","0","0","1","","0.3520186383","0.4","0.2","0.6","0.8","0.1750118246","0.2900415689","0.3520186383","0.371766452","","","","","","","","","","","","","","75","K","2","","","96","main_expt",""
"","bandit","176","506444","0.0-138.0-0.0","62157056","wem/bandit_party_1","A1DJDT4B5B19Q2","either","3","182","","","","","","","0","0","1","","0.342216001","0.4","0.2","0.6","0.8","0.2433812568","0.3136050561","0.342216001","0.3737721809","","","","","","","","","","","","","","75","K","2","","","97","main_expt",""
"","bandit","177","508387","0.0-139.0-0.0","62157056","wem/bandit_party_1","A1DJDT4B5B19Q2","either","3","429","","","","","","","0","0","1","","0.3775958225","0.4","0.2","0.6","0.8","0.1834100281","0.3236610102","0.3775958225","0.3662625892","","","","","","","","","","","","","","75","K","2","","","98","main_expt",""
"","bandit","178","510229","0.0-140.0-0.0","62157056","wem/bandit_party_1","A1DJDT4B5B19Q2","either","3","327","","","","","","","0","0","1","0.146161558","","0.4","0.2","0.6","0.8","","","","","0.146161558","0.3116662608","0.3490624926","0.3912879072","","","","","","","","","","72","H","0","img/none_selected.jpg","","99","main_expt",""
"","bandit","179","512088","0.0-141.0-0.0","62157056","wem/bandit_party_1","A1DJDT4B5B19Q2","either","3","344","","","","","","","0","0","1","","0.3806420769","0.4","0.2","0.6","0.8","0.1186266926","0.3806420769","0.3418910903","0.3916888764","","","","","","","","","","","","","","74","J","1","","","100","main_expt",""
"","bandit","180","513629","0.0-142.0-0.0","62157056","wem/bandit_party_1","A1DJDT4B5B19Q2","either","3","25","","","","","","","0","0","1","0.3803758031","","0.4","0.2","0.6","0.8","","","","","0.1467879228","0.3825052475","0.3544055354","0.3803758031","","","","","","","","","","76","L","3","","","101","main_expt",""
"","bandit","181","515238","0.0-143.0-0.0","62157056","wem/bandit_party_1","A1DJDT4B5B19Q2","either","3","94","","","","","","","0","1","0","","0.3580864163","0.4","0.2","0.6","0.8","0.1336514036","0.3799327693","0.3580864163","0.3685266224","","","","","","","","","","","","","","75","K","2","","","102","main_expt",""
"","bandit","182","517685","0.0-144.0-0.0","62157056","wem/bandit_party_1","A1DJDT4B5B19Q2","either","3","932","","","","","","","0","0","1","0.336528594","","0.4","0.2","0.6","0.8","","","","","0.1325092095","0.3502018886","0.336528594","0.3754978655","","","","","","","","","","75","K","2","","","103","main_expt",""
"","bandit","183","520541","0.0-145.0-0.0","62157056","wem/bandit_party_1","A1DJDT4B5B19Q2","either","3","1340","","","","","","","0","0","1","","0.3190078166","0.4","0.2","0.6","0.8","0.1162839287","0.3443431466","0.3190078166","0.4033056484","","","","","","","","","","","","","","75","K","2","","","104","main_expt",""
"","bandit","184","522798","0.0-146.0-0.0","62157056","wem/bandit_party_1","A1DJDT4B5B19Q2","either","3","741","","","","","","","0","1","0","","0.3617388181","0.4","0.2","0.6","0.8","0.115620258","0.3551378046","0.3100940773","0.3617388181","","","","","","","","","","","","","","76","L","3","","","105","main_expt",""
"","bandit","185","524553","0.0-147.0-0.0","62157056","wem/bandit_party_1","A1DJDT4B5B19Q2","either","3","236","","","","","","","0","0","1","","0.3656875331","0.4","0.2","0.6","0.8","0.1102569517","0.3177956882","0.2964842485","0.3656875331","","","","","","","","","","","","","","76","L","3","","","106","main_expt",""
"","bandit","186","526531","0.0-148.0-0.0","62157056","wem/bandit_party_1","A1DJDT4B5B19Q2","either","3","463","","","","","","","0","0","1","0.3478183852","","0.4","0.2","0.6","0.8","","","","","0.110599846","0.3463124521","0.3224579283","0.3478183852","","","","","","","","","","76","L","3","","","107","main_expt",""
"","bandit","187","528573","0.0-149.0-0.0","62157056","wem/bandit_party_1","A1DJDT4B5B19Q2","either","3","526","","","","","","","0","0","1","","0.3365568187","0.4","0.2","0.6","0.8","0.1647947233","0.330790185","0.3365568187","0.3715517583","","","","","","","","","","","","","","75","K","2","","","108","main_expt",""
"","bandit","188","530388","0.0-150.0-0.0","62157056","wem/bandit_party_1","A1DJDT4B5B19Q2","either","3","299","","","","","","","0","0","1","0.3200824859","","0.4","0.2","0.6","0.8","","","","","0.146095753","0.3259779601","0.3200824859","0.3713851569","","","","","","","","","","75","K","2","","","109","main_expt",""
"","bandit","189","532258","0.0-151.0-0.0","62157056","wem/bandit_party_1","A1DJDT4B5B19Q2","either","3","354","","","","","","","0","0","1","0.3179471713","","0.4","0.2","0.6","0.8","","","","","0.1691954855","0.3169053314","0.3179471713","0.3401672382","","","","","","","","","","75","K","2","","","110","main_expt",""
"","bandit","190","534104","0.0-152.0-0.0","62157056","wem/bandit_party_1","A1DJDT4B5B19Q2","either","3","329","","","","","","","0","0","1","0.342138516","","0.4","0.2","0.6","0.8","","","","","0.1690298198","0.342138516","0.3168158386","0.3242328008","","","","","","","","","","74","J","1","","","111","main_expt",""
"","bandit","191","535850","0.0-153.0-0.0","62157056","wem/bandit_party_1","A1DJDT4B5B19Q2","either","3","230","","","","","","","1","0","0","0.3597886873","","0.4","0.2","0.6","0.8","","","","","0.2196992501","0.3597886873","0.3551606626","0.2991119965","","","","","","","","","","74","J","1","","","112","main_expt",""
"","bandit","192","537882","0.0-154.0-0.0","62157056","wem/bandit_party_1","A1DJDT4B5B19Q2","either","3","517","","","","","","","0","0","1","0.3580549124","","0.4","0.2","0.6","0.8","","","","","0.2723467559","0.3580549124","0.3615444015","0.3364281798","","","","","","","","","","74","J","1","","","113","main_expt",""
"","bandit","193","539676","0.0-155.0-0.0","62157056","wem/bandit_party_1","A1DJDT4B5B19Q2","either","3","277","","","","","","","0","0","1","","0.3556181037","0.4","0.2","0.6","0.8","0.2470985199","0.3556181037","0.4043222556","0.3495122724","","","","","","","","","","","","","","74","J","1","","","114","main_expt",""
"","bandit","194","541431","0.0-156.0-0.0","62157056","wem/bandit_party_1","A1DJDT4B5B19Q2","either","3","238","","","","","","","0","0","1","","0.3489042174","0.4","0.2","0.6","0.8","0.2482590513","0.3489042174","0.4179696435","0.324938203","","","","","","","","","","","","","","74","J","1","","","115","main_expt",""
"","bandit","195","543321","0.0-157.0-0.0","62157056","wem/bandit_party_1","A1DJDT4B5B19Q2","either","3","378","","","","","","","0","0","1","","0.3466245191","0.4","0.2","0.6","0.8","0.1992012358","0.3466245191","0.4324393975","0.3227512736","","","","","","","","","","","","","","74","J","1","","","116","main_expt",""
"","bandit","196","545433","0.0-158.0-0.0","62157056","wem/bandit_party_1","A1DJDT4B5B19Q2","either","3","595","","","","","","","0","1","0","","0.3581754781","0.4","0.2","0.6","0.8","0.216355905","0.3581754781","0.4290779421","0.2585209305","","","","","","","","","","","","","","74","J","1","","","117","main_expt",""
"","bandit","197","547005","0.0-159.0-0.0","62157056","wem/bandit_party_1","A1DJDT4B5B19Q2","either","3","55","","","","","","","0","0","1","","0.283939031","0.4","0.2","0.6","0.8","0.1715453935","0.283939031","0.4459264202","0.2817260076","","","","","","","","","","","","","","74","J","1","","","118","main_expt",""
"","bandit","198","548815","0.0-160.0-0.0","62157056","wem/bandit_party_1","A1DJDT4B5B19Q2","either","3","292","","","","","","","0","0","1","","0.2992634423","0.4","0.2","0.6","0.8","0.1843456939","0.2992634423","0.436995295","0.328214026","","","","","","","","","","","","","","74","J","1","","","119","main_expt",""
"","bandit","199","551990","0.0-161.0-0.0","62157056","wem/bandit_party_1","A1DJDT4B5B19Q2","either","3","1658","","","","","","","0","1","0","","0.1848061615","0.4","0.2","0.6","0.8","0.1848061615","0.1878150733","0.4151314625","0.3355603121","","","","","","","","","","","","","","72","H","0","img/none_selected.jpg","","120","main_expt",""
"","bandit","200","554222","0.0-162.0-0.0","62157056","wem/bandit_party_1","A1DJDT4B5B19Q2","either","3","715","","","","","","","0","0","1","","0.1679578636","0.4","0.2","0.6","0.8","0.1679578636","0.1447458933","0.4384064527","0.3829587724","","","","","","","","","","","","","","72","H","0","img/none_selected.jpg","","121","main_expt",""
"","bandit","201","556173","0.0-163.0-0.0","62157056","wem/bandit_party_1","A1DJDT4B5B19Q2","either","3","434","","","","","","","0","1","0","","0.197295971","0.4","0.2","0.6","0.8","0.197295971","0.1176060398","0.4417589501","0.3995678287","","","","","","","","","","","","","","72","H","0","img/none_selected.jpg","","122","main_expt",""
"","bandit","202","558060","0.0-164.0-0.0","62157056","wem/bandit_party_1","A1DJDT4B5B19Q2","either","3","370","","","","","","","0","0","1","","0.2184653352","0.4","0.2","0.6","0.8","0.2184653352","0.1097677055","0.4017154396","0.3656739583","","","","","","","","","","","","","","72","H","0","img/none_selected.jpg","","123","main_expt",""
"","bandit","203","561422","0.0-165.0-0.0","62157056","wem/bandit_party_1","A1DJDT4B5B19Q2","either","3","1845","","","","","","","0","0","1","","0.2147868977","0.4","0.2","0.6","0.8","0.2147868977","0.08048168986","0.3619070526","0.3862549257","","","","","","","","","","","","","","72","H","0","img/none_selected.jpg","","124","main_expt",""
"","bandit","204","563696","0.0-166.0-0.0","62157056","wem/bandit_party_1","A1DJDT4B5B19Q2","either","3","758","","","","","","","0","0","1","0.3567490645","","0.4","0.2","0.6","0.8","","","","","0.1667936559","0.07842900555","0.3567490645","0.3593796239","","","","","","","","","","75","K","2","","","125","main_expt",""
"","bandit","205","570837","0.0-167.0-0.0","62157056","wem/bandit_party_1","A1DJDT4B5B19Q2","either","3","5620","","","","","","","0","0","1","","0.1453295256","0.4","0.2","0.6","0.8","0.1453295256","0.08318363027","0.3558473019","0.3413194209","","","","","","","","","","","","","","72","H","0","img/none_selected.jpg","","126","main_expt",""
"","bandit","206","575506","0.0-168.0-0.0","62157056","wem/bandit_party_1","A1DJDT4B5B19Q2","either","3","3151","","","","","","","0","0","1","0.3543069734","","0.4","0.2","0.6","0.8","","","","","0.1635755653","0.06812438963","0.3543069734","0.3369929262","","","","","","","","","","75","K","2","","","127","main_expt",""
"","bandit","207","577445","0.0-169.0-0.0","62157056","wem/bandit_party_1","A1DJDT4B5B19Q2","either","3","422","","","","","","","0","0","1","","0.1872639566","0.4","0.2","0.6","0.8","0.1872639566","0.08303766286","0.3328374851","0.2922989636","","","","","","","","","","","","","","72","H","0","img/none_selected.jpg","","128","main_expt",""
"","bandit","208","579753","0.0-170.0-0.0","62157056","wem/bandit_party_1","A1DJDT4B5B19Q2","either","3","791","","","","","","","0","0","1","","0.3238683282","0.4","0.2","0.6","0.8","0.2032718864","0.09047360051","0.3238683282","0.3095146075","","","","","","","","","","","","","","75","K","2","","","129","main_expt",""
"","bandit","209","581714","0.0-171.0-0.0","62157056","wem/bandit_party_1","A1DJDT4B5B19Q2","either","3","444","","","","","","","0","0","1","","0.2750329062","0.4","0.2","0.6","0.8","0.2025864764","0.131542256","0.2750329062","0.3068425872","","","","","","","","","","","","","","75","K","2","","","130","main_expt",""
"","bandit","210","584880","0.0-172.0-0.0","62157056","wem/bandit_party_1","A1DJDT4B5B19Q2","either","3","1649","","","","","","","0","0","1","0.2158584071","","0.4","0.2","0.6","0.8","","","","","0.2158584071","0.1492019489","0.2751886228","0.3112504131","","","","","","","","","","72","H","0","img/none_selected.jpg","","131","main_expt",""
"","bandit","211","587213","0.0-173.0-0.0","62157056","wem/bandit_party_1","A1DJDT4B5B19Q2","either","3","814","","","","","","","0","0","1","0.2729729886","","0.4","0.2","0.6","0.8","","","","","0.2105840197","0.1571188116","0.2729729886","0.3595653039","","","","","","","","","","75","K","2","","","132","main_expt",""
"","bandit","212","589972","0.0-174.0-0.0","62157056","wem/bandit_party_1","A1DJDT4B5B19Q2","either","3","1241","","","","","","","0","0","1","0.2328486735","","0.4","0.2","0.6","0.8","","","","","0.2328486735","0.2021073832","0.3248088544","0.3873527377","","","","","","","","","","72","H","0","img/none_selected.jpg","","133","main_expt",""
"","bandit","213","592955","0.0-175.0-0.0","62157056","wem/bandit_party_1","A1DJDT4B5B19Q2","either","3","1466","","","","","","","0","0","1","0.3596446835","","0.4","0.2","0.6","0.8","","","","","0.2589092944","0.2693148074","0.3596446835","0.3973884711","","","","","","","","","","75","K","2","","","134","main_expt",""
"","bandit","214","595410","0.0-176.0-0.0","62157056","wem/bandit_party_1","A1DJDT4B5B19Q2","either","3","937","","","","","","","0","0","1","","0.2625780805","0.4","0.2","0.6","0.8","0.2637326353","0.2625780805","0.318377279","0.4080523157","","","","","","","","","","","","","","74","J","1","","","135","main_expt",""
"","bandit","215","597052","0.0-177.0-0.0","62157056","wem/bandit_party_1","A1DJDT4B5B19Q2","either","3","124","","","","","","","0","1","0","","0.2718680576","0.4","0.2","0.6","0.8","0.2718680576","0.2981707722","0.3160887017","0.4176503084","","","","","","","","","","","","","","72","H","0","img/none_selected.jpg","","136","main_expt",""
"","bandit","216","599046","0.0-178.0-0.0","62157056","wem/bandit_party_1","A1DJDT4B5B19Q2","either","3","476","","","","","","","0","0","1","0.2919957672","","0.4","0.2","0.6","0.8","","","","","0.2919957672","0.3148158286","0.2883225013","0.3859803947","","","","","","","","","","72","H","0","img/none_selected.jpg","","137","main_expt",""
"","bandit","217","601180","0.0-179.0-0.0","62157056","wem/bandit_party_1","A1DJDT4B5B19Q2","either","3","617","","","","","","","0","0","1","","0.3193993407","0.4","0.2","0.6","0.8","0.3193993407","0.3111523267","0.3009152141","0.358492916","","","","","","","","","","","","","","72","H","0","img/none_selected.jpg","","138","main_expt",""
"","bandit","218","603730","0.0-180.0-0.0","62157056","wem/bandit_party_1","A1DJDT4B5B19Q2","either","3","1030","","","","","","","0","1","0","","0.3404434035","0.4","0.2","0.6","0.8","0.3404434035","0.3034593298","0.293720077","0.3608756281","","","","","","","","","","","","","","72","H","0","img/none_selected.jpg","","139","main_expt",""
"","bandit","219","606186","0.0-181.0-0.0","62157056","wem/bandit_party_1","A1DJDT4B5B19Q2","either","3","938","","","","","","","0","0","1","0.3278052243","","0.4","0.2","0.6","0.8","","","","","0.3278052243","0.2507495005","0.286059761","0.3421836092","","","","","","","","","","72","H","0","img/none_selected.jpg","","140","main_expt",""
"","bandit","220","608390","0.0-182.0-0.0","62157056","wem/bandit_party_1","A1DJDT4B5B19Q2","either","3","686","","","","","","","0","0","1","0.2931724706","","0.4","0.2","0.6","0.8","","","","","0.3038906839","0.2220694513","0.2931724706","0.3737340371","","","","","","","","","","75","K","2","","","141","main_expt",""
"","bandit","221","610402","0.0-183.0-0.0","62157056","wem/bandit_party_1","A1DJDT4B5B19Q2","either","3","495","","","","","","","0","0","1","0.2119249064","","0.4","0.2","0.6","0.8","","","","","0.2924195757","0.2119249064","0.2182180164","0.3461121542","","","","","","","","","","74","J","1","","","142","main_expt",""
"","bandit","222","612271","0.0-184.0-0.0","62157056","wem/bandit_party_1","A1DJDT4B5B19Q2","either","3","351","","","","","","","0","0","1","0.2015475508","","0.4","0.2","0.6","0.8","","","","","0.2816149275","0.2665135591","0.2015475508","0.3305931074","","","","","","","","","","75","K","2","","","143","main_expt",""
"","bandit","223","614863","0.0-185.0-0.0","62157056","wem/bandit_party_1","A1DJDT4B5B19Q2","either","3","1075","","","","","","","0","0","1","","0.2355525614","0.4","0.2","0.6","0.8","0.2355525614","0.2854155153","0.2074070562","0.3561039987","","","","","","","","","","","","","","72","H","0","img/none_selected.jpg","","144","main_expt",""
"","bandit","224","617155","0.0-186.0-0.0","62157056","wem/bandit_party_1","A1DJDT4B5B19Q2","either","3","772","","","","","","","0","0","1","0.2185662272","","0.4","0.2","0.6","0.8","","","","","0.2185662272","0.2521048148","0.1415368311","0.3648023512","","","","","","","","","","72","H","0","img/none_selected.jpg","","145","main_expt",""
"","bandit","225","619223","0.0-187.0-0.0","62157056","wem/bandit_party_1","A1DJDT4B5B19Q2","either","3","549","","","","","","","0","0","1","","0.2321266643","0.4","0.2","0.6","0.8","0.2209315791","0.2321266643","0.1549520657","0.3450315","","","","","","","","","","","","","","74","J","1","","","146","main_expt",""
"","bandit","226","621536","0.0-188.0-0.0","62157056","wem/bandit_party_1","A1DJDT4B5B19Q2","either","3","794","","","","","","","0","0","1","0.1469310363","","0.4","0.2","0.6","0.8","","","","","0.2889766311","0.3159383216","0.1469310363","0.2720321141","","","","","","","","","","75","K","2","","","147","main_expt",""
"","bandit","227","623901","0.0-189.0-0.0","62157056","wem/bandit_party_1","A1DJDT4B5B19Q2","either","3","846","","","","","","","0","0","1","0.1332828417","","0.4","0.2","0.6","0.8","","","","","0.2859466156","0.2673485129","0.1332828417","0.2598972664","","","","","","","","","","75","K","2","","","148","main_expt",""
"","bandit","228","629585","0.0-190.0-0.0","62157056","wem/bandit_party_1","A1DJDT4B5B19Q2","either","3","4165","","","","","","","0","0","1","0.2343157719","","0.4","0.2","0.6","0.8","","","","","0.2588478233","0.3348600541","0.1102010463","0.2343157719","","","","","","","","","","76","L","3","","","149","main_expt",""
"","bandit","229","633091","0.0-191.0-0.0","62157056","wem/bandit_party_1","A1DJDT4B5B19Q2","either","3","1988","","","","","","","0","0","1","0.1356103494","","0.4","0.2","0.6","0.8","","","","","0.2224653457","0.3659656834","0.1356103494","0.2451363599","","","","","","","","","","75","K","2","","","150","main_expt",""
"","bandit","230","638701","0.0-192.0-0.0","62157056","wem/bandit_party_1","A1DJDT4B5B19Q2","either","3","4091","","","","","","","0","0","1","","0.2387237716","0.4","0.2","0.6","0.8","0.2387237716","0.36397653","0.1621229287","0.2053737132","","","","","","","","","","","","","","72","H","0","img/none_selected.jpg","","151","main_expt",""
"","bandit","231","640251","0.0-193.0-0.0","62157056","wem/bandit_party_1","A1DJDT4B5B19Q2","either","3","31","","","","","","","0","1","0","","0.3710672623","0.4","0.2","0.6","0.8","0.2519133504","0.3710672623","0.1412745606","0.2396242378","","","","","","","","","","","","","","74","J","1","","","152","main_expt",""
"","bandit","232","643139","0.0-194.0-0.0","62157056","wem/bandit_party_1","A1DJDT4B5B19Q2","either","3","1370","","","","","","","0","0","1","","0.3828607765","0.4","0.2","0.6","0.8","0.3078499427","0.3828607765","0.1707580034","0.2923277395","","","","","","","","","","","","","","74","J","1","","","153","main_expt",""
"","bandit","233","648437","0.0-195.0-0.0","62157056","wem/bandit_party_1","A1DJDT4B5B19Q2","either","3","3779","","","","","","","0","1","0","","0.3283820497","0.4","0.2","0.6","0.8","0.3283820497","0.3526468527","0.1717455462","0.3166515581","","","","","","","","","","","","","","72","H","0","img/none_selected.jpg","","154","main_expt",""
"","bandit","234","650524","0.0-196.0-0.0","62157056","wem/bandit_party_1","A1DJDT4B5B19Q2","either","3","567","","","","","","","1","0","0","0.3303057687","","0.4","0.2","0.6","0.8","","","","","0.3303057687","0.3865981945","0.1785539081","0.3194616596","","","","","","","","","","72","H","0","img/none_selected.jpg","","155","main_expt",""
"","bandit","235","652471","0.0-197.0-0.0","62157056","wem/bandit_party_1","A1DJDT4B5B19Q2","either","3","427","","","","","","","0","0","1","","0.3178912443","0.4","0.2","0.6","0.8","0.3178912443","0.4328422877","0.2175815231","0.3767011333","","","","","","","","","","","","","","72","H","0","img/none_selected.jpg","","156","main_expt",""
"","bandit","236","655006","0.0-198.0-0.0","62157056","wem/bandit_party_1","A1DJDT4B5B19Q2","either","3","1016","","","","","","","0","0","1","","0.3236874272","0.4","0.2","0.6","0.8","0.3236874272","0.4224906378","0.216674397","0.3853144204","","","","","","","","","","","","","","72","H","0","img/none_selected.jpg","","157","main_expt",""
"","bandit","237","661098","0.0-199.0-0.0","62157056","wem/bandit_party_1","A1DJDT4B5B19Q2","either","3","4570","","","","","","","1","0","0","0.3731337511","","0.4","0.2","0.6","0.8","","","","","0.3731337511","0.4428847078","0.2184316938","0.3519128793","","","","","","","","","","72","H","0","img/none_selected.jpg","","158","main_expt",""
"","bandit","238","663682","0.0-200.0-0.0","62157056","wem/bandit_party_1","A1DJDT4B5B19Q2","either","3","1064","","","","","","","0","1","0","","0.3758107074","0.4","0.2","0.6","0.8","0.3758107074","0.4498083842","0.2603966468","0.3255157266","","","","","","","","","","","","","","72","H","0","img/none_selected.jpg","","159","main_expt",""
"","bandit","239","668789","0.0-201.0-0.0","62157056","wem/bandit_party_1","A1DJDT4B5B19Q2","either","3","3589","","","","","","","1","0","0","0.3494215766","","0.4","0.2","0.6","0.8","","","","","0.3494215766","0.4319550234","0.2242017374","0.379238532","","","","","","","","","","72","H","0","img/none_selected.jpg","","160","main_expt",""
"","bandit","240","670820","0.0-202.0-0.0","62157056","wem/bandit_party_1","A1DJDT4B5B19Q2","either","3","511","","","","","","","0","0","1","","0.3327111917","0.4","0.2","0.6","0.8","0.3327111917","0.4417514389","0.2014027125","0.3776335756","","","","","","","","","","","","","","72","H","0","img/none_selected.jpg","","161","main_expt",""
"","bandit","241","674882","0.0-203.0-0.0","62157056","wem/bandit_party_1","A1DJDT4B5B19Q2","either","3","2542","","","","","","","0","0","1","","0.3171011618","0.4","0.2","0.6","0.8","0.3171011618","0.4081293495","0.2038621466","0.2955751891","","","","","","","","","","","","","","72","H","0","img/none_selected.jpg","","162","main_expt",""
"","bandit","242","679252","0.0-204.0-0.0","62157056","wem/bandit_party_1","A1DJDT4B5B19Q2","either","3","2851","","","","","","","0","0","1","","0.364183239","0.4","0.2","0.6","0.8","0.364183239","0.4265776113","0.1238136799","0.30851492","","","","","","","","","","","","","","72","H","0","img/none_selected.jpg","","163","main_expt",""
"","bandit","243","681643","0.0-205.0-0.0","62157056","wem/bandit_party_1","A1DJDT4B5B19Q2","either","3","871","","","","","","","0","0","1","0.3917374524","","0.4","0.2","0.6","0.8","","","","","0.3917374524","0.427472809","0.1104941302","0.3074756362","","","","","","","","","","72","H","0","img/none_selected.jpg","","164","main_expt",""
"","bandit","244","685905","0.0-206.0-0.0","62157056","wem/bandit_party_1","A1DJDT4B5B19Q2","either","3","2743","","","","","","","0","0","1","","0.3629360172","0.4","0.2","0.6","0.8","0.3629360172","0.4016343469","0.1099358877","0.2743039079","","","","","","","","","","","","","","72","H","0","img/none_selected.jpg","","165","main_expt",""
"","bandit","245","688036","0.0-207.0-0.0","62157056","wem/bandit_party_1","A1DJDT4B5B19Q2","either","3","611","","","","","","","0","0","1","0.3697042915","","0.4","0.2","0.6","0.8","","","","","0.3697042915","0.3578169927","0.08082918558","0.2900226329","","","","","","","","","","72","H","0","img/none_selected.jpg","","166","main_expt",""
"","bandit","246","690104","0.0-208.0-0.0","62157056","wem/bandit_party_1","A1DJDT4B5B19Q2","either","3","548","","","","","","","0","0","1","0.08539074978","","0.4","0.2","0.6","0.8","","","","","0.3626443337","0.3346076013","0.08539074978","0.3444017494","","","","","","","","","","75","K","2","","","167","main_expt",""
"","bandit","247","692222","0.0-209.0-0.0","62157056","wem/bandit_party_1","A1DJDT4B5B19Q2","either","3","597","","","","","","","0","0","1","0.1307687804","","0.4","0.2","0.6","0.8","","","","","0.3488380128","0.36326211","0.1307687804","0.3934904689","","","","","","","","","","75","K","2","","","168","main_expt",""
"","bandit","248","694259","0.0-210.0-0.0","62157056","wem/bandit_party_1","A1DJDT4B5B19Q2","either","3","517","","","","","","","1","0","0","0.3338465455","","0.4","0.2","0.6","0.8","","","","","0.3338465455","0.3389060657","0.09435724838","0.3712778229","","","","","","","","","","72","H","0","img/none_selected.jpg","","169","main_expt",""
"","bandit","249","696263","0.0-211.0-0.0","62157056","wem/bandit_party_1","A1DJDT4B5B19Q2","either","3","484","","","","","","","0","0","1","0.09371103674","","0.4","0.2","0.6","0.8","","","","","0.3675902536","0.3820287301","0.09371103674","0.3348119161","","","","","","","","","","75","K","2","","","170","main_expt",""
"","bandit","250","699652","0.0-212.0-0.0","62157056","wem/bandit_party_1","A1DJDT4B5B19Q2","either","3","1869","","","","","","","0","0","1","0.0912992704","","0.4","0.2","0.6","0.8","","","","","0.3663425941","0.3738350687","0.0912992704","0.3697689907","","","","","","","","","","75","K","2","","","171","main_expt",""
"","bandit","251","704219","0.0-213.0-0.0","62157056","wem/bandit_party_1","A1DJDT4B5B19Q2","either","3","3047","","","","","","","0","0","1","0.1053216192","","0.4","0.2","0.6","0.8","","","","","0.3571019768","0.3449486646","0.1053216192","0.3438364448","","","","","","","","","","75","K","2","","","172","main_expt",""
"","bandit","252","706320","0.0-214.0-0.0","62157056","wem/bandit_party_1","A1DJDT4B5B19Q2","either","3","577","","","","","","","0","0","1","0.383943734","","0.4","0.2","0.6","0.8","","","","","0.383943734","0.3754463001","0.1119971747","0.4064517123","","","","","","","","","","72","H","0","img/none_selected.jpg","","173","main_expt",""
"","bandit","253","709230","0.0-215.0-0.0","62157056","wem/bandit_party_1","A1DJDT4B5B19Q2","either","3","1390","","","","","","","0","0","1","","0.1049574405","0.4","0.2","0.6","0.8","0.378453819","0.3983783957","0.1049574405","0.4266345201","","","","","","","","","","","","","","75","K","2","","","174","main_expt",""
"","bandit","254","711442","0.0-216.0-0.0","62157056","wem/bandit_party_1","A1DJDT4B5B19Q2","either","3","691","","","","","","","0","1","0","","0.3577460836","0.4","0.2","0.6","0.8","0.3577460836","0.4176958341","0.07351671593","0.4413212306","","","","","","","","","","","","","","72","H","0","img/none_selected.jpg","","175","main_expt",""
"","bandit","255","716639","0.0-217.0-0.0","62157056","wem/bandit_party_1","A1DJDT4B5B19Q2","either","3","3674","","","","","","","0","1","0","","0.3346789668","0.4","0.2","0.6","0.8","0.3346789668","0.4336280271","0.06097876817","0.438548454","","","","","","","","","","","","","","72","H","0","img/none_selected.jpg","","176","main_expt",""
"","bandit","256","722465","0.0-218.0-0.0","62157056","wem/bandit_party_1","A1DJDT4B5B19Q2","either","3","4305","","","","","","","0","1","0","","0.3720341948","0.4","0.2","0.6","0.8","0.3720341948","0.3863917124","0.05873143133","0.4350726265","","","","","","","","","","","","","","72","H","0","img/none_selected.jpg","","177","main_expt",""
"","bandit","257","724503","0.0-219.0-0.0","62157056","wem/bandit_party_1","A1DJDT4B5B19Q2","either","3","518","","","","","","","0","0","1","0.4243236705","","0.4","0.2","0.6","0.8","","","","","0.4243236705","0.3826512014","0.07829718294","0.4029859975","","","","","","","","","","72","H","0","img/none_selected.jpg","","178","main_expt",""
"","bandit","258","726991","0.0-220.0-0.0","62157056","wem/bandit_party_1","A1DJDT4B5B19Q2","either","3","968","","","","","","","0","0","1","","0.4396564102","0.4","0.2","0.6","0.8","0.4396564102","0.3681046487","0.05868413977","0.3738585124","","","","","","","","","","","","","","72","H","0","img/none_selected.jpg","","179","main_expt",""
"","bandit","259","729295","0.0-221.0-0.0","62157056","wem/bandit_party_1","A1DJDT4B5B19Q2","either","3","783","","","","","","","0","0","1","0.4501825932","","0.4","0.2","0.6","0.8","","","","","0.4501825932","0.374340785","0.04540529238","0.3884150149","","","","","","","","","","72","H","0","img/none_selected.jpg","","180","main_expt",""
"","bandit","260","731808","0.0-222.0-0.0","62157056","wem/bandit_party_1","A1DJDT4B5B19Q2","either","3","993","","","","","","","0","0","1","","0.4527537228","0.4","0.2","0.6","0.8","0.4527537228","0.3844034803","0.04810206047","0.3977335033","","","","","","","","","","","","","","72","H","0","img/none_selected.jpg","","181","main_expt",""
"","bandit","261","734130","0.0-223.0-0.0","62157056","wem/bandit_party_1","A1DJDT4B5B19Q2","either","3","805","","","","","","","1","0","0","0.4733821952","","0.4","0.2","0.6","0.8","","","","","0.4733821952","0.3569363444","0.0564969073","0.4194204302","","","","","","","","","","72","H","0","img/none_selected.jpg","","182","main_expt",""
"","bandit","262","738168","0.0-224.0-0.0","62157056","wem/bandit_party_1","A1DJDT4B5B19Q2","either","3","2518","","","","","","","1","0","0","0.4741352064","","0.4","0.2","0.6","0.8","","","","","0.4741352064","0.3930074682","0.06674959941","0.4050300101","","","","","","","","","","72","H","0","img/none_selected.jpg","","183","main_expt",""
"","bandit","263","740189","0.0-225.0-0.0","62157056","wem/bandit_party_1","A1DJDT4B5B19Q2","either","3","499","","","","","","","1","0","0","0.4835015011","","0.4","0.2","0.6","0.8","","","","","0.4835015011","0.4105724965","0.05730522946","0.4272992256","","","","","","","","","","72","H","0","img/none_selected.jpg","","184","main_expt",""
"","bandit","264","743051","0.0-226.0-0.0","62157056","wem/bandit_party_1","A1DJDT4B5B19Q2","either","3","1341","","","","","","","0","1","0","","0.4907566516","0.4","0.2","0.6","0.8","0.4907566516","0.4230276401","0.0759668512","0.4213026748","","","","","","","","","","","","","","72","H","0","img/none_selected.jpg","","185","main_expt",""
"","bandit","265","744693","0.0-227.0-0.0","62157056","wem/bandit_party_1","A1DJDT4B5B19Q2","either","3","121","","","","","","","0","0","1","","0.4777100538","0.4","0.2","0.6","0.8","0.4777100538","0.4243078066","0.0736669194","0.3729626057","","","","","","","","","","","","","","72","H","0","img/none_selected.jpg","","186","main_expt",""
"","bandit","266","748201","0.0-228.0-0.0","62157056","wem/bandit_party_1","A1DJDT4B5B19Q2","either","3","1987","","","","","","","1","0","0","0.4751658893","","0.4","0.2","0.6","0.8","","","","","0.4751658893","0.419104652","0.1020870739","0.4022080601","","","","","","","","","","72","H","0","img/none_selected.jpg","","187","main_expt",""
"","bandit","267","750308","0.0-229.0-0.0","62157056","wem/bandit_party_1","A1DJDT4B5B19Q2","either","3","586","","","","","","","0","0","1","","0.4711403756","0.4","0.2","0.6","0.8","0.4711403756","0.3917910895","0.110066606","0.4218987807","","","","","","","","","","","","","","72","H","0","img/none_selected.jpg","","188","main_expt",""
"","bandit","268","753926","0.0-230.0-0.0","62157056","wem/bandit_party_1","A1DJDT4B5B19Q2","either","3","2096","","","","","","","0","0","1","0.4848283219","","0.4","0.2","0.6","0.8","","","","","0.4848283219","0.3696037293","0.1616324423","0.4284519853","","","","","","","","","","72","H","0","img/none_selected.jpg","","189","main_expt",""
"","bandit","269","756956","0.0-231.0-0.0","62157056","wem/bandit_party_1","A1DJDT4B5B19Q2","either","3","1509","","","","","","","0","0","1","","0.4906713727","0.4","0.2","0.6","0.8","0.4906713727","0.3722688899","0.1401199573","0.4104863902","","","","","","","","","","","","","","72","H","0","img/none_selected.jpg","","190","main_expt",""
"","bandit","270","758852","0.0-232.0-0.0","62157056","wem/bandit_party_1","A1DJDT4B5B19Q2","either","3","376","","","","","","","0","1","0","","0.4944082075","0.4","0.2","0.6","0.8","0.4944082075","0.3956575009","0.1782786715","0.4071825693","","","","","","","","","","","","","","72","H","0","img/none_selected.jpg","","191","main_expt",""
"","bandit","271","762211","0.0-233.0-0.0","62157056","wem/bandit_party_1","A1DJDT4B5B19Q2","either","3","1838","","","","","","","1","0","0","0.4922337742","","0.4","0.2","0.6","0.8","","","","","0.4922337742","0.3843500594","0.203517815","0.4172763132","","","","","","","","","","72","H","0","img/none_selected.jpg","","192","main_expt",""
"","bandit","272","765496","0.0-234.0-0.0","62157056","wem/bandit_party_1","A1DJDT4B5B19Q2","either","3","1764","","","","","","","0","1","0","","0.4887356563","0.4","0.2","0.6","0.8","0.4887356563","0.3801723293","0.172030281","0.3965334946","","","","","","","","","","","","","","72","H","0","img/none_selected.jpg","","193","main_expt",""
"","bandit","273","767700","0.0-235.0-0.0","62157056","wem/bandit_party_1","A1DJDT4B5B19Q2","either","3","691","","","","","","","1","0","0","0.4850955297","","0.4","0.2","0.6","0.8","","","","","0.4850955297","0.3871645121","0.1813301739","0.383316574","","","","","","","","","","72","H","0","img/none_selected.jpg","","194","main_expt",""
"","bandit","274","769856","0.0-236.0-0.0","62157056","wem/bandit_party_1","A1DJDT4B5B19Q2","either","3","634","","","","","","","0","1","0","","0.4848341758","0.4","0.2","0.6","0.8","0.4848341758","0.3633903175","0.2284295163","0.3965345796","","","","","","","","","","","","","","72","H","0","img/none_selected.jpg","","195","main_expt",""
"","bandit","275","773258","0.0-237.0-0.0","62157056","wem/bandit_party_1","A1DJDT4B5B19Q2","either","3","1881","","","","","","","0","0","1","0.490049139","","0.4","0.2","0.6","0.8","","","","","0.490049139","0.3811675741","0.2501246714","0.3978469093","","","","","","","","","","72","H","0","img/none_selected.jpg","","196","main_expt",""
"","bandit","276","776531","0.0-238.0-0.0","62157056","wem/bandit_party_1","A1DJDT4B5B19Q2","either","3","1752","","","","","","","0","0","1","0.4912643012","","0.4","0.2","0.6","0.8","","","","","0.4912643012","0.3487868089","0.3150809007","0.3172926233","","","","","","","","","","72","H","0","img/none_selected.jpg","","197","main_expt",""
"","bandit","277","778470","0.0-239.0-0.0","62157056","wem/bandit_party_1","A1DJDT4B5B19Q2","either","3","418","","","","","","","0","0","1","","0.4793615714","0.4","0.2","0.6","0.8","0.4793615714","0.2986771554","0.3442077965","0.3113170709","","","","","","","","","","","","","","72","H","0","img/none_selected.jpg","","198","main_expt",""
"","bandit","278","780512","0.0-240.0-0.0","62157056","wem/bandit_party_1","A1DJDT4B5B19Q2","either","3","521","","","","","","","1","0","0","0.4661622676","","0.4","0.2","0.6","0.8","","","","","0.4661622676","0.3481418533","0.3675051223","0.3066116159","","","","","","","","","","72","H","0","img/none_selected.jpg","","199","main_expt",""
"","bandit","279","793724","0.0-241.0-0.0","62157056","wem/bandit_party_1","A1DJDT4B5B19Q2","either","3","11693","","","","","","","0","1","0","","0.4479238565","0.4","0.2","0.6","0.8","0.4479238565","0.353319573","0.3044821291","0.2521122026","","","","","","","","","","","","","","72","H","0","img/none_selected.jpg","","200","main_expt",""
"","bandit","280","796801","0.0-242.0-0.0","62157056","wem/bandit_party_1","A1DJDT4B5B19Q2","either","3","1555","","","","","","","0","1","0","","0.4429166455","0.4","0.2","0.6","0.8","0.4429166455","0.3676338631","0.3013824411","0.2679963248","","","","","","","","","","","","","","72","H","0","img/none_selected.jpg","","201","main_expt",""
"","bandit","281","799306","0.0-243.0-0.0","62157056","wem/bandit_party_1","A1DJDT4B5B19Q2","either","3","983","","","","","","","0","1","0","","0.442820363","0.4","0.2","0.6","0.8","0.442820363","0.311657493","0.3001954661","0.2076546236","","","","","","","","","","","","","","72","H","0","img/none_selected.jpg","","202","main_expt",""
"","bandit","282","802441","0.0-244.0-0.0","62157056","wem/bandit_party_1","A1DJDT4B5B19Q2","either","3","1613","","","","","","","0","0","1","","0.4539008368","0.4","0.2","0.6","0.8","0.4539008368","0.3364041998","0.3189156814","0.1881707852","","","","","","","","","","","","","","72","H","0","img/none_selected.jpg","","203","main_expt",""
"","bandit","283","805008","0.0-245.0-0.0","62157056","wem/bandit_party_1","A1DJDT4B5B19Q2","either","3","1045","","","","","","","0","0","1","0.4163307037","","0.4","0.2","0.6","0.8","","","","","0.4163307037","0.3148670147","0.3162062407","0.2057853427","","","","","","","","","","72","H","0","img/none_selected.jpg","","204","main_expt",""
"","bandit","284","808166","0.0-246.0-0.0","62157056","wem/bandit_party_1","A1DJDT4B5B19Q2","either","3","1636","","","","","","","0","0","1","","0.4045388199","0.4","0.2","0.6","0.8","0.4045388199","0.3293187519","0.347278619","0.2564451259","","","","","","","","","","","","","","72","H","0","img/none_selected.jpg","","205","main_expt",""
"","bandit","285","813689","0.0-247.0-0.0","62157056","wem/bandit_party_1","A1DJDT4B5B19Q2","either","3","4001","","","","","","","0","0","1","","0.4083422121","0.4","0.2","0.6","0.8","0.4083422121","0.2705077244","0.2970129147","0.3082896296","","","","","","","","","","","","","","72","H","0","img/none_selected.jpg","","206","main_expt",""
"","bandit","286","815928","0.0-248.0-0.0","62157056","wem/bandit_party_1","A1DJDT4B5B19Q2","either","3","717","","","","","","","0","0","1","0.4033585138","","0.4","0.2","0.6","0.8","","","","","0.4033585138","0.3083591011","0.3331481178","0.3235103938","","","","","","","","","","72","H","0","img/none_selected.jpg","","207","main_expt",""
"","bandit","287","820110","0.0-249.0-0.0","62157056","wem/bandit_party_1","A1DJDT4B5B19Q2","either","3","2660","","","","","","","0","0","1","","0.3753320851","0.4","0.2","0.6","0.8","0.3753320851","0.2489273718","0.3195917859","0.3563539536","","","","","","","","","","","","","","72","H","0","img/none_selected.jpg","","208","main_expt",""
"","bandit","288","823757","0.0-250.0-0.0","62157056","wem/bandit_party_1","A1DJDT4B5B19Q2","either","3","2125","","","","","","","0","0","1","0.3864970555","","0.4","0.2","0.6","0.8","","","","","0.3864970555","0.2224321457","0.3642345195","0.3821305916","","","","","","","","","","72","H","0","img/none_selected.jpg","","209","main_expt",""
"","bandit","289","826201","0.0-251.0-0.0","62157056","wem/bandit_party_1","A1DJDT4B5B19Q2","either","3","923","","","","","","","0","0","1","0.3894881908","","0.4","0.2","0.6","0.8","","","","","0.3894881908","0.2184729634","0.3518797164","0.4067483812","","","","","","","","","","72","H","0","img/none_selected.jpg","","210","main_expt",""
"","bandit","290","827734","0.0-252.0-0.0","62157056","wem/bandit_party_1","A1DJDT4B5B19Q2","either","3","7","","","","","","","0","0","1","0.4052823736","","0.4","0.2","0.6","0.8","","","","","0.4052823736","0.2178464352","0.3781537602","0.376825818","","","","","","","","","","72","H","0","img/none_selected.jpg","","211","main_expt",""
"","bandit","291","831455","0.0-253.0-0.0","62157056","wem/bandit_party_1","A1DJDT4B5B19Q2","either","3","2199","","","","","","","0","1","0","","0.3783189977","0.4","0.2","0.6","0.8","0.3783189977","0.1644702768","0.3773353051","0.3481764155","","","","","","","","","","","","","","72","H","0","img/none_selected.jpg","","212","main_expt",""
"","bandit","292","834774","0.0-254.0-0.0","62157056","wem/bandit_party_1","A1DJDT4B5B19Q2","either","3","1797","","","","","","","0","0","1","","0.3804187243","0.4","0.2","0.6","0.8","0.3804187243","0.1271660564","0.3448860985","0.3239198888","","","","","","","","","","","","","","72","H","0","img/none_selected.jpg","","213","main_expt",""
"","bandit","293","839637","0.0-255.0-0.0","62157056","wem/bandit_party_1","A1DJDT4B5B19Q2","either","3","3342","","","","","","","0","0","1","","0.3964056757","0.4","0.2","0.6","0.8","0.3964056757","0.1368129038","0.3622000499","0.3592643085","","","","","","","","","","","","","","72","H","0","img/none_selected.jpg","","214","main_expt",""
"","bandit","294","841322","0.0-256.0-0.0","62157056","wem/bandit_party_1","A1DJDT4B5B19Q2","either","3","163","","","","","","","0","0","1","","0.3939862607","0.4","0.2","0.6","0.8","0.3939862607","0.07615368859","0.3408682726","0.3482739819","","","","","","","","","","","","","","72","H","0","img/none_selected.jpg","","215","main_expt",""
"","bandit","295","844791","0.0-257.0-0.0","62157056","wem/bandit_party_1","A1DJDT4B5B19Q2","either","3","1953","","","","","","","0","0","1","","0.4062496234","0.4","0.2","0.6","0.8","0.4062496234","0.07711559412","0.328819006","0.2972527025","","","","","","","","","","","","","","72","H","0","img/none_selected.jpg","","216","main_expt",""
"","bandit","296","847038","0.0-258.0-0.0","62157056","wem/bandit_party_1","A1DJDT4B5B19Q2","either","3","725","","","","","","","0","0","1","0.3440498305","","0.4","0.2","0.6","0.8","","","","","0.3440498305","0.07728173513","0.3229374792","0.2850944341","","","","","","","","","","72","H","0","img/none_selected.jpg","","217","main_expt",""
"","bandit","297","849238","0.0-259.0-0.0","62157056","wem/bandit_party_1","A1DJDT4B5B19Q2","either","3","677","","","","","","","0","0","1","0.3198020565","","0.4","0.2","0.6","0.8","","","","","0.3198020565","0.07919919155","0.3616220652","0.2483413171","","","","","","","","","","72","H","0","img/none_selected.jpg","","218","main_expt",""
"","bandit","298","851504","0.0-260.0-0.0","62157056","wem/bandit_party_1","A1DJDT4B5B19Q2","either","3","742","","","","","","","1","0","0","0.3078290176","","0.4","0.2","0.6","0.8","","","","","0.3078290176","0.1270410367","0.3591176528","0.2680513607","","","","","","","","","","72","H","0","img/none_selected.jpg","","219","main_expt",""
"","bandit","299","860035","0.0-261.0-0.0","62157056","wem/bandit_party_1","A1DJDT4B5B19Q2","either","3","7008","","","","","","","0","0","1","","0.2961895162","0.4","0.2","0.6","0.8","0.2961895162","0.1117499599","0.2758994579","0.304668496","","","","","","","","","","","","","","72","H","0","img/none_selected.jpg","","220","main_expt",""
"","bandit","300","862245","0.0-262.0-0.0","62157056","wem/bandit_party_1","A1DJDT4B5B19Q2","either","3","686","","","","","","","0","0","1","","0.2658603678","0.4","0.2","0.6","0.8","0.2658603678","0.1186324211","0.3119987931","0.2773284289","","","","","","","","","","","","","","72","H","0","img/none_selected.jpg","","221","main_expt",""
"","bandit","301","865363","0.0-263.0-0.0","62157056","wem/bandit_party_1","A1DJDT4B5B19Q2","either","3","1596","","","","","","","0","0","1","0.3106374463","","0.4","0.2","0.6","0.8","","","","","0.274695037","0.1141050397","0.3106374463","0.2152506718","","","","","","","","","","75","K","2","","","222","main_expt",""
"","bandit","302","867523","0.0-264.0-0.0","62157056","wem/bandit_party_1","A1DJDT4B5B19Q2","either","3","636","","","","","","","0","0","1","","0.2210940289","0.4","0.2","0.6","0.8","0.2210940289","0.1007228699","0.3131570504","0.2445797097","","","","","","","","","","","","","","72","H","0","img/none_selected.jpg","","223","main_expt",""
"","bandit","303","869683","0.0-265.0-0.0","62157056","wem/bandit_party_1","A1DJDT4B5B19Q2","either","3","638","","","","","","","0","0","1","","0.3025994915","0.4","0.2","0.6","0.8","0.1843933297","0.1380584308","0.3025994915","0.2559263424","","","","","","","","","","","","","","75","K","2","","","224","main_expt",""
"","bandit","304","872103","0.0-266.0-0.0","62157056","wem/bandit_party_1","A1DJDT4B5B19Q2","either","3","895","","","","","","","0","1","0","","0.212211923","0.4","0.2","0.6","0.8","0.212211923","0.1393521225","0.2994132709","0.2702522324","","","","","","","","","","","","","","72","H","0","img/none_selected.jpg","","225","main_expt",""
"","bandit","305","875153","0.0-267.0-0.0","62157056","wem/bandit_party_1","A1DJDT4B5B19Q2","either","3","1527","","","","","","","0","0","1","","0.2315036379","0.4","0.2","0.6","0.8","0.2315036379","0.2094269877","0.2866794375","0.2646860425","","","","","","","","","","","","","","72","H","0","img/none_selected.jpg","","226","main_expt",""
"","bandit","306","880144","0.0-268.0-0.0","62157056","wem/bandit_party_1","A1DJDT4B5B19Q2","either","3","3467","","","","","","","0","0","1","0.2646353212","","0.4","0.2","0.6","0.8","","","","","0.2646353212","0.2959232149","0.2299222882","0.269556559","","","","","","","","","","72","H","0","img/none_selected.jpg","","227","main_expt",""
"","bandit","307","884171","0.0-269.0-0.0","62157056","wem/bandit_party_1","A1DJDT4B5B19Q2","either","3","2504","","","","","","","0","0","1","0.2991813551","","0.4","0.2","0.6","0.8","","","","","0.2443517867","0.374355758","0.2991813551","0.2498152532","","","","","","","","","","75","K","2","","","228","main_expt",""
"","bandit","308","886344","0.0-270.0-0.0","62157056","wem/bandit_party_1","A1DJDT4B5B19Q2","either","3","653","","","","","","","0","0","1","","0.2569692975","0.4","0.2","0.6","0.8","0.2569692975","0.3876740502","0.3295538921","0.2495566458","","","","","","","","","","","","","","72","H","0","img/none_selected.jpg","","229","main_expt",""
"","bandit","309","888626","0.0-271.0-0.0","62157056","wem/bandit_party_1","A1DJDT4B5B19Q2","either","3","759","","","","","","","0","1","0","","0.2490290172","0.4","0.2","0.6","0.8","0.2490290172","0.3341674595","0.2713593359","0.2134382902","","","","","","","","","","","","","","72","H","0","img/none_selected.jpg","","230","main_expt",""
"","bandit","310","890804","0.0-272.0-0.0","62157056","wem/bandit_party_1","A1DJDT4B5B19Q2","either","3","655","","","","","","","0","0","1","0.2368643707","","0.4","0.2","0.6","0.8","","","","","0.2368643707","0.3558281537","0.2746975787","0.2099205747","","","","","","","","","","72","H","0","img/none_selected.jpg","","231","main_expt",""
"","bandit","311","892921","0.0-273.0-0.0","62157056","wem/bandit_party_1","A1DJDT4B5B19Q2","either","3","594","","","","","","","0","0","1","","0.2817934899","0.4","0.2","0.6","0.8","0.2857324616","0.3293076861","0.2817934899","0.1598609145","","","","","","","","","","","","","","75","K","2","","","232","main_expt",""
