"consent","trial_type","trial_index","time_elapsed","internal_node_id","subjID","study","MID","cond","drift","rt","responses","button_pressed","key_press","like","value","connected","gems","bombs","no_reward","GemPrChosen","BombPrChosen","GainOverPainPr_0","GainOverPainPr_1","GainOverPainPr_2","GainOverPainPr_3","LosePr_0","LosePr_1","LosePr_2","LosePr_3","WinPr_0","WinPr_1","WinPr_2","WinPr_3","Q0","Q1","Q2","gender","age","ethnicity","label","expt_phase","target","respCharCode","respKey","respChoiceNum","respChoice","practice","trial_counter","trial_label","Q0_index","view_history"
"GDM/GDM_behavioral_consent_30min_online.html","consent","0","26206","0.0-0.0","62240238","wem/bandit_party_1","A1UHNDB2EQ8TK0","either","7","","","","","","","","","","","","","","","","","","","","","","","","","","","","","","","","","","","","","","","","","",""
"","survey-text","1","29014","0.0-1.0","62240238","wem/bandit_party_1","A1UHNDB2EQ8TK0","either","7","1748","{""Q0"":""A1UHNDB2EQ8TK0""}","","","","","","","","","","","","","","","","","","","","","","","","","","","","","","","","","","","","","","","",""
"","button-response","2","31704","0.0-2.0","62240238","wem/bandit_party_1","A1UHNDB2EQ8TK0","either","7","1667","","1","","","","","","","","","","","","","","","","","","","","","","","","","","","","","","","","","","","","","","",""
"","text-replacement","3","38269","0.0-3.0","62240238","wem/bandit_party_1","A1UHNDB2EQ8TK0","either","7","5530","","","32","","","","","","","","","","","","","","","","","","","","","","","","","","","","","","","","","","","","","",""
"","text-replacement","4","39995","0.0-4.0","62240238","wem/bandit_party_1","A1UHNDB2EQ8TK0","either","7","1717","","","32","","","","","","","","","","","","","","","","","","","","","","","","","","","","","","","","","","","","","",""
"","identification","5","45439","0.0-6.0-0.0","62240238","wem/bandit_party_1","A1UHNDB2EQ8TK0","either","7","5302","","","","0","0","0","","","","","","","","","","","","","","","","","","","","","","","","pre","identification_pre","the Republican party","","","","","","","","",""
"","identification","6","49893","0.0-6.0-1.0","62240238","wem/bandit_party_1","A1UHNDB2EQ8TK0","either","7","3280","","","","3","3","3","","","","","","","","","","","","","","","","","","","","","","","","pre","identification_pre","the Democratic Party","","","","","","","","",""
"","text-replacement","7","56906","0.0-7.0","62240238","wem/bandit_party_1","A1UHNDB2EQ8TK0","either","7","5996","","","32","","","","","","","","","","","","","","","","","","","","","","","","","","","","","","","","","","","","","",""
"","text-replacement","8","58878","0.0-8.0","62240238","wem/bandit_party_1","A1UHNDB2EQ8TK0","either","7","1964","","","32","","","","","","","","","","","","","","","","","","","","","","","","","","","","","","","","","","","","","",""
"","text-replacement","9","62335","0.0-9.0","62240238","wem/bandit_party_1","A1UHNDB2EQ8TK0","either","7","3451","","","32","","","","","","","","","","","","","","","","","","","","","","","","","","","","","","","","","","","","","",""
"","text-replacement","10","64265","0.0-10.0","62240238","wem/bandit_party_1","A1UHNDB2EQ8TK0","either","7","1925","","","32","","","","","","","","","","","","","","","","","","","","","","","","","","","","","","","","","","","","","",""
"","text-replacement","11","65120","0.0-11.0","62240238","wem/bandit_party_1","A1UHNDB2EQ8TK0","either","7","841","","","32","","","","","","","","","","","","","","","","","","","","","","","","","","","","","","","","","","","","","",""
"","bandit","12","68639","0.0-12.0-0.0","62240238","wem/bandit_party_1","A1UHNDB2EQ8TK0","either","7","1916","","","","","","","0","0","1","0","0","","","","","0","","","","0","","","","","","","","","","","","","74","J","0","img/none_selected_demo.jpg","true","0","","",""
"","bandit","13","71584","0.0-13.0-0.0","62240238","wem/bandit_party_1","A1UHNDB2EQ8TK0","either","7","1405","","","","","","","0","0","1","0","0","","","","","0","","","","0","","","","","","","","","","","","","75","K","0","img/none_selected_demo.jpg","true","0","","",""
"","text-replacement","14","72527","0.0-14.0","62240238","wem/bandit_party_1","A1UHNDB2EQ8TK0","either","7","929","","","32","","","","","","","","","","","","","","","","","","","","","","","","","","","","","","","","","","","","","",""
"","text-replacement","15","73827","0.0-15.0","62240238","wem/bandit_party_1","A1UHNDB2EQ8TK0","either","7","1256","","","32","","","","","","","","","","","","","","","","","","","","","","","","","","","","","","","","","","","","","",""
"","text-replacement","16","74306","0.0-16.0","62240238","wem/bandit_party_1","A1UHNDB2EQ8TK0","either","7","466","","","32","","","","","","","","","","","","","","","","","","","","","","","","","","","","","","","","","","","","","",""
"","text-replacement","17","74706","0.0-17.0","62240238","wem/bandit_party_1","A1UHNDB2EQ8TK0","either","7","390","","","32","","","","","","","","","","","","","","","","","","","","","","","","","","","","","","","","","","","","","",""
"","bandit","18","78377","0.0-18.0-0.0","62240238","wem/bandit_party_1","A1UHNDB2EQ8TK0","either","7","2135","","","","","","","0","1","0","","0.8","0.5","0.5","","","0.8","0.2","","","","","","","","","","","","","","","","74","J","0","img/none_selected_demo.jpg","true","0","80_20_practice","",""
"","bandit","19","80954","0.0-18.0-1.0","62240238","wem/bandit_party_1","A1UHNDB2EQ8TK0","either","7","1044","","","","","","","1","0","0","0.8","","0.5","0.5","","","","","","","0.8","0.2","","","","","","","","","","","","74","J","0","img/none_selected_demo.jpg","true","0","80_20_practice","",""
"","bandit","20","82975","0.0-18.0-2.0","62240238","wem/bandit_party_1","A1UHNDB2EQ8TK0","either","7","468","","","","","","","0","1","0","","0.8","0.5","0.5","","","0.8","0.2","","","","","","","","","","","","","","","","74","J","0","img/none_selected_demo.jpg","true","0","80_20_practice","",""
"","bandit","21","84809","0.0-18.0-3.0","62240238","wem/bandit_party_1","A1UHNDB2EQ8TK0","either","7","303","","","","","","","1","0","0","0.8","","0.5","0.5","","","","","","","0.8","0.2","","","","","","","","","","","","74","J","0","img/none_selected_demo.jpg","true","0","80_20_practice","",""
"","bandit","22","86776","0.0-18.0-4.0","62240238","wem/bandit_party_1","A1UHNDB2EQ8TK0","either","7","441","","","","","","","1","0","0","0.8","","0.5","0.5","","","","","","","0.8","0.2","","","","","","","","","","","","74","J","0","img/none_selected_demo.jpg","true","0","80_20_practice","",""
"","bandit","23","88846","0.0-18.0-5.0","62240238","wem/bandit_party_1","A1UHNDB2EQ8TK0","either","7","547","","","","","","","1","0","0","0.8","","0.5","0.5","","","","","","","0.8","0.2","","","","","","","","","","","","74","J","0","img/none_selected_demo.jpg","true","0","80_20_practice","",""
"","bandit","24","90796","0.0-18.0-6.0","62240238","wem/bandit_party_1","A1UHNDB2EQ8TK0","either","7","419","","","","","","","1","0","0","0.8","","0.5","0.5","","","","","","","0.8","0.2","","","","","","","","","","","","74","J","0","img/none_selected_demo.jpg","true","0","80_20_practice","",""
"","bandit","25","92504","0.0-18.0-7.0","62240238","wem/bandit_party_1","A1UHNDB2EQ8TK0","either","7","170","","","","","","","1","0","0","0.8","","0.5","0.5","","","","","","","0.8","0.2","","","","","","","","","","","","74","J","0","img/none_selected_demo.jpg","true","0","80_20_practice","",""
"","bandit","26","94210","0.0-18.0-8.0","62240238","wem/bandit_party_1","A1UHNDB2EQ8TK0","either","7","168","","","","","","","0","1","0","","0.8","0.5","0.5","","","0.8","0.2","","","","","","","","","","","","","","","","74","J","0","img/none_selected_demo.jpg","true","0","80_20_practice","",""
"","bandit","27","96263","0.0-18.0-9.0","62240238","wem/bandit_party_1","A1UHNDB2EQ8TK0","either","7","513","","","","","","","1","0","0","0.8","","0.5","0.5","","","","","","","0.8","0.2","","","","","","","","","","","","74","J","0","img/none_selected_demo.jpg","true","0","80_20_practice","",""
"","bandit","28","98483","0.0-18.0-10.0","62240238","wem/bandit_party_1","A1UHNDB2EQ8TK0","either","7","666","","","","","","","0","1","0","","0.8","0.5","0.5","","","0.8","0.2","","","","","","","","","","","","","","","","74","J","0","img/none_selected_demo.jpg","true","0","80_20_practice","",""
"","bandit","29","100671","0.0-18.0-11.0","62240238","wem/bandit_party_1","A1UHNDB2EQ8TK0","either","7","669","","","","","","","0","1","0","","0.8","0.5","0.5","","","0.8","0.2","","","","","","","","","","","","","","","","74","J","0","img/none_selected_demo.jpg","true","0","80_20_practice","",""
"","bandit","30","102564","0.0-18.0-12.0","62240238","wem/bandit_party_1","A1UHNDB2EQ8TK0","either","7","354","","","","","","","1","0","0","0.8","","0.5","0.5","","","","","","","0.8","0.2","","","","","","","","","","","","74","J","0","img/none_selected_demo.jpg","true","0","80_20_practice","",""
"","bandit","31","104751","0.0-18.0-13.0","62240238","wem/bandit_party_1","A1UHNDB2EQ8TK0","either","7","647","","","","","","","0","1","0","","0.8","0.5","0.5","","","0.8","0.2","","","","","","","","","","","","","","","","74","J","0","img/none_selected_demo.jpg","true","0","80_20_practice","",""
"","bandit","32","106721","0.0-18.0-14.0","62240238","wem/bandit_party_1","A1UHNDB2EQ8TK0","either","7","410","","","","","","","0","0","1","0.8","","0.5","0.5","","","","","","","0.8","0.2","","","","","","","","","","","","74","J","0","img/none_selected_demo.jpg","true","0","80_20_practice","",""
"","bandit","33","108323","0.0-18.0-15.0","62240238","wem/bandit_party_1","A1UHNDB2EQ8TK0","either","7","81","","","","","","","1","0","0","0.8","","0.5","0.5","","","","","","","0.8","0.2","","","","","","","","","","","","74","J","0","img/none_selected_demo.jpg","true","0","80_20_practice","",""
"","bandit","34","110256","0.0-18.0-16.0","62240238","wem/bandit_party_1","A1UHNDB2EQ8TK0","either","7","402","","","","","","","0","0","1","0.8","","0.5","0.5","","","","","","","0.8","0.2","","","","","","","","","","","","74","J","0","img/none_selected_demo.jpg","true","0","80_20_practice","",""
"","bandit","35","112623","0.0-18.0-17.0","62240238","wem/bandit_party_1","A1UHNDB2EQ8TK0","either","7","827","","","","","","","0","1","0","","0.8","0.5","0.5","","","0.8","0.2","","","","","","","","","","","","","","","","74","J","0","img/none_selected_demo.jpg","true","0","80_20_practice","",""
"","bandit","36","114149","0.0-18.0-18.0","62240238","wem/bandit_party_1","A1UHNDB2EQ8TK0","either","7","7","","","","","","","1","0","0","0.8","","0.5","0.5","","","","","","","0.8","0.2","","","","","","","","","","","","74","J","0","img/none_selected_demo.jpg","true","0","80_20_practice","",""
"","bandit","37","116207","0.0-18.0-19.0","62240238","wem/bandit_party_1","A1UHNDB2EQ8TK0","either","7","449","","","","","","","0","0","1","","0.8","0.5","0.5","","","0.8","0.2","","","","","","","","","","","","","","","","74","J","0","img/none_selected_demo.jpg","true","0","80_20_practice","",""
"","text-replacement","38","121440","0.0-19.0","62240238","wem/bandit_party_1","A1UHNDB2EQ8TK0","either","7","5224","","","32","","","","","","","","","","","","","","","","","","","","","","","","","","","","","","","","","","","","","",""
"","bandit","39","124581","0.0-20.0-0.0","62240238","wem/bandit_party_1","A1UHNDB2EQ8TK0","either","7","1588","","","","","","","1","0","0","1","0","","","","","0","1","","","1","0","","","","","","","","","","","","74","J","0","img/none_selected_demo.jpg","true","0","","",""
"","text-replacement","40","125926","0.0-21.0","62240238","wem/bandit_party_1","A1UHNDB2EQ8TK0","either","7","1321","","","32","","","","","","","","","","","","","","","","","","","","","","","","","","","","","","","","","","","","","",""
"","text-replacement","41","128088","0.0-22.0","62240238","wem/bandit_party_1","A1UHNDB2EQ8TK0","either","7","2145","","","32","","","","","","","","","","","","","","","","","","","","","","","","","","","","","","","","","","","","","",""
"","text-replacement","42","129805","0.0-23.0","62240238","wem/bandit_party_1","A1UHNDB2EQ8TK0","either","7","1691","","","32","","","","","","","","","","","","","","","","","","","","","","","","","","","","","","","","","","","","","",""
"","text-replacement","43","130218","0.0-24.0","62240238","wem/bandit_party_1","A1UHNDB2EQ8TK0","either","7","399","","","32","","","","","","","","","","","","","","","","","","","","","","","","","","","","","","","","","","","","","",""
"","text-replacement","44","130627","0.0-25.0","62240238","wem/bandit_party_1","A1UHNDB2EQ8TK0","either","7","394","","","32","","","","","","","","","","","","","","","","","","","","","","","","","","","","","","","","","","","","","",""
"","text-replacement","45","131075","0.0-26.0","62240238","wem/bandit_party_1","A1UHNDB2EQ8TK0","either","7","434","","","32","","","","","","","","","","","","","","","","","","","","","","","","","","","","","","","","","","","","","",""
"","text-replacement","46","131477","0.0-27.0","62240238","wem/bandit_party_1","A1UHNDB2EQ8TK0","either","7","395","","","32","","","","","","","","","","","","","","","","","","","","","","","","","","","","","","","","","","","","","",""
"","text-replacement","47","131844","0.0-28.0","62240238","wem/bandit_party_1","A1UHNDB2EQ8TK0","either","7","362","","","32","","","","","","","","","","","","","","","","","","","","","","","","","","","","","","","","","","","","","",""
"","text-replacement","48","132185","0.0-29.0","62240238","wem/bandit_party_1","A1UHNDB2EQ8TK0","either","7","334","","","32","","","","","","","","","","","","","","","","","","","","","","","","","","","","","","","","","","","","","",""
"","text-replacement","49","132670","0.0-30.0","62240238","wem/bandit_party_1","A1UHNDB2EQ8TK0","either","7","476","","","32","","","","","","","","","","","","","","","","","","","","","","","","","","","","","","","","","","","","","",""
"","text-replacement","50","134544","0.0-31.0","62240238","wem/bandit_party_1","A1UHNDB2EQ8TK0","either","7","1859","","","32","","","","","","","","","","","","","","","","","","","","","","","","","","","","","","","","","","","","","",""
"","bandit","51","137698","0.0-32.0-0.0","62240238","wem/bandit_party_1","A1UHNDB2EQ8TK0","either","7","1604","","","","","","","0","0","1","","0.2","0.5","0.5","0.5","0.5","0.8","0.2","0.6","0.2","","","","","","","","","","","","","","74","J","1","","true","0","full_practice","",""
"","bandit","52","140120","0.0-32.0-1.0","62240238","wem/bandit_party_1","A1UHNDB2EQ8TK0","either","7","897","","","","","","","0","0","1","","0.2","0.5","0.5","0.5","0.5","0.8","0.2","0.6","0.2","","","","","","","","","","","","","","74","J","1","","true","0","full_practice","",""
"","bandit","53","142521","0.0-32.0-2.0","62240238","wem/bandit_party_1","A1UHNDB2EQ8TK0","either","7","854","","","","","","","1","0","0","0.8","","0.5","0.5","0.5","0.5","","","","","0.8","0.2","0.6","0.2","","","","","","","","","","72","H","0","img/none_selected.jpg","true","0","full_practice","",""
"","bandit","54","144844","0.0-32.0-3.0","62240238","wem/bandit_party_1","A1UHNDB2EQ8TK0","either","7","775","","","","","","","0","1","0","","0.8","0.5","0.5","0.5","0.5","0.8","0.2","0.6","0.2","","","","","","","","","","","","","","72","H","0","img/none_selected.jpg","true","0","full_practice","",""
"","bandit","55","147422","0.0-32.0-4.0","62240238","wem/bandit_party_1","A1UHNDB2EQ8TK0","either","7","1030","","","","","","","1","0","0","0.8","","0.5","0.5","0.5","0.5","","","","","0.8","0.2","0.6","0.2","","","","","","","","","","72","H","0","img/none_selected.jpg","true","0","full_practice","",""
"","bandit","56","150261","0.0-32.0-5.0","62240238","wem/bandit_party_1","A1UHNDB2EQ8TK0","either","7","1308","","","","","","","0","0","1","0.8","","0.5","0.5","0.5","0.5","","","","","0.8","0.2","0.6","0.2","","","","","","","","","","72","H","0","img/none_selected.jpg","true","0","full_practice","",""
"","bandit","57","152094","0.0-32.0-6.0","62240238","wem/bandit_party_1","A1UHNDB2EQ8TK0","either","7","302","","","","","","","0","0","1","0.8","","0.5","0.5","0.5","0.5","","","","","0.8","0.2","0.6","0.2","","","","","","","","","","72","H","0","img/none_selected.jpg","true","0","full_practice","",""
"","bandit","58","154445","0.0-32.0-7.0","62240238","wem/bandit_party_1","A1UHNDB2EQ8TK0","either","7","801","","","","","","","0","0","1","0.6","","0.5","0.5","0.5","0.5","","","","","0.8","0.2","0.6","0.2","","","","","","","","","","75","K","2","","true","0","full_practice","",""
"","bandit","59","156054","0.0-32.0-8.0","62240238","wem/bandit_party_1","A1UHNDB2EQ8TK0","either","7","68","","","","","","","1","0","0","0.6","","0.5","0.5","0.5","0.5","","","","","0.8","0.2","0.6","0.2","","","","","","","","","","75","K","2","","true","0","full_practice","",""
"","bandit","60","157997","0.0-32.0-9.0","62240238","wem/bandit_party_1","A1UHNDB2EQ8TK0","either","7","427","","","","","","","0","1","0","","0.6","0.5","0.5","0.5","0.5","0.8","0.2","0.6","0.2","","","","","","","","","","","","","","75","K","2","","true","0","full_practice","",""
"","bandit","61","159779","0.0-32.0-10.0","62240238","wem/bandit_party_1","A1UHNDB2EQ8TK0","either","7","254","","","","","","","0","0","1","0.2","","0.5","0.5","0.5","0.5","","","","","0.8","0.2","0.6","0.2","","","","","","","","","","76","L","3","","true","0","full_practice","",""
"","bandit","62","161560","0.0-32.0-11.0","62240238","wem/bandit_party_1","A1UHNDB2EQ8TK0","either","7","219","","","","","","","0","0","1","0.2","","0.5","0.5","0.5","0.5","","","","","0.8","0.2","0.6","0.2","","","","","","","","","","76","L","3","","true","0","full_practice","",""
"","bandit","63","163301","0.0-32.0-12.0","62240238","wem/bandit_party_1","A1UHNDB2EQ8TK0","either","7","167","","","","","","","0","0","1","0.2","","0.5","0.5","0.5","0.5","","","","","0.8","0.2","0.6","0.2","","","","","","","","","","74","J","1","","true","0","full_practice","",""
"","bandit","64","165199","0.0-32.0-13.0","62240238","wem/bandit_party_1","A1UHNDB2EQ8TK0","either","7","370","","","","","","","0","1","0","","0.8","0.5","0.5","0.5","0.5","0.8","0.2","0.6","0.2","","","","","","","","","","","","","","72","H","0","img/none_selected.jpg","true","0","full_practice","",""
"","bandit","65","167057","0.0-32.0-14.0","62240238","wem/bandit_party_1","A1UHNDB2EQ8TK0","either","7","320","","","","","","","0","0","1","","0.8","0.5","0.5","0.5","0.5","0.8","0.2","0.6","0.2","","","","","","","","","","","","","","72","H","0","img/none_selected.jpg","true","0","full_practice","",""
"","bandit","66","168988","0.0-32.0-15.0","62240238","wem/bandit_party_1","A1UHNDB2EQ8TK0","either","7","412","","","","","","","0","0","1","","0.8","0.5","0.5","0.5","0.5","0.8","0.2","0.6","0.2","","","","","","","","","","","","","","72","H","0","img/none_selected.jpg","true","0","full_practice","",""
"","bandit","67","170902","0.0-32.0-16.0","62240238","wem/bandit_party_1","A1UHNDB2EQ8TK0","either","7","387","","","","","","","1","0","0","0.8","","0.5","0.5","0.5","0.5","","","","","0.8","0.2","0.6","0.2","","","","","","","","","","72","H","0","img/none_selected.jpg","true","0","full_practice","",""
"","bandit","68","173022","0.0-32.0-17.0","62240238","wem/bandit_party_1","A1UHNDB2EQ8TK0","either","7","569","","","","","","","0","0","1","","0.8","0.5","0.5","0.5","0.5","0.8","0.2","0.6","0.2","","","","","","","","","","","","","","72","H","0","img/none_selected.jpg","true","0","full_practice","",""
"","bandit","69","175637","0.0-32.0-18.0","62240238","wem/bandit_party_1","A1UHNDB2EQ8TK0","either","7","1068","","","","","","","0","1","0","","0.8","0.5","0.5","0.5","0.5","0.8","0.2","0.6","0.2","","","","","","","","","","","","","","72","H","0","img/none_selected.jpg","true","0","full_practice","",""
"","bandit","70","178946","0.0-32.0-19.0","62240238","wem/bandit_party_1","A1UHNDB2EQ8TK0","either","7","1786","","","","","","","0","1","0","","0.8","0.5","0.5","0.5","0.5","0.8","0.2","0.6","0.2","","","","","","","","","","","","","","72","H","0","img/none_selected.jpg","true","0","full_practice","",""
"","text","71","182736","0.0-33.0","62240238","wem/bandit_party_1","A1UHNDB2EQ8TK0","either","7","3688","","","32","","","","","","","","","","","","","","","","","","","","","","","","","","","","","","","","","","","","","",""
"","text-replacement","72","184733","0.0-34.0","62240238","wem/bandit_party_1","A1UHNDB2EQ8TK0","either","7","978","","","32","","","","","","","","","","","","","","","","","","","","","","","","","","","","","","","","","","","","","",""
"","text-replacement","73","185036","0.0-35.0","62240238","wem/bandit_party_1","A1UHNDB2EQ8TK0","either","7","275","","","32","","","","","","","","","","","","","","","","","","","","","","","","","","","","","","","","","","","","","",""
"","text-replacement","74","185210","0.0-36.0","62240238","wem/bandit_party_1","A1UHNDB2EQ8TK0","either","7","159","","","32","","","","","","","","","","","","","","","","","","","","","","","","","","","","","","","","","","","","","",""
"","text-replacement","75","185447","0.0-37.0","62240238","wem/bandit_party_1","A1UHNDB2EQ8TK0","either","7","216","","","32","","","","","","","","","","","","","","","","","","","","","","","","","","","","","","","","","","","","","",""
"","text-replacement","76","185678","0.0-38.0","62240238","wem/bandit_party_1","A1UHNDB2EQ8TK0","either","7","215","","","32","","","","","","","","","","","","","","","","","","","","","","","","","","","","","","","","","","","","","",""
"","survey-multi-choice-replacement","77","192773","0.0-39.0-0.0","62240238","wem/bandit_party_1","A1UHNDB2EQ8TK0","either","7","7003","","","","","","","","","","","","","","","","","","","","","","","","Money will be added to the pool for <span style='color:blue;'>DEMOCRATS</span>","","","","","","","attn_check","","","","","","","","","0",""
"","survey-multi-choice-replacement","78","201831","0.0-40.0-0.0","62240238","wem/bandit_party_1","A1UHNDB2EQ8TK0","either","7","8000","","","","","","","","","","","","","","","","","","","","","","","","Money will be subtracted from the pool for <span style='color:red;'>REPUBLICANS</span>","","","","","","","attn_check","","","","","","","","","1",""
"","instructions","79","204119","0.0-40.0-1.0-0.0","62240238","wem/bandit_party_1","A1UHNDB2EQ8TK0","either","7","1244","","","","","","","","","","","","","","","","","","","","","","","","","","","","","","","","","","","","","","","","","[{""page_index"":0,""viewing_time"":1242}]"
"","survey-multi-choice-replacement","80","213523","0.0-40.1-0.1","62240238","wem/bandit_party_1","A1UHNDB2EQ8TK0","either","7","8364","","","","","","","","","","","","","","","","","","","","","","","","No money will be added to either pool","","","","","","","attn_check","","","","","","","","","3",""
"","instructions","81","216926","0.0-40.1-1.1-0.1","62240238","wem/bandit_party_1","A1UHNDB2EQ8TK0","either","7","2372","","","","","","","","","","","","","","","","","","","","","","","","","","","","","","","","","","","","","","","","","[{""page_index"":0,""viewing_time"":2371}]"
"","survey-multi-choice-replacement","82","222490","0.0-40.2-0.2","62240238","wem/bandit_party_1","A1UHNDB2EQ8TK0","either","7","4542","","","","","","","","","","","","","","","","","","","","","","","","Equal amounts of money will be added to the pool for <span style='color:blue;'>DEMOCRATS</span> and subtracted from the pool for <span style='color:red;'>REPUBLICANS</span>","","","","","","","attn_check","","","","","","","","","2",""
"","survey-multi-choice-replacement","83","229718","0.0-41.0-0.0","62240238","wem/bandit_party_1","A1UHNDB2EQ8TK0","either","7","6201","","","","","","","","","","","","","","","","","","","","","","","","No money will be added to either pool","","","","","","","attn_check","","","","","","","","","3",""
"","bandit","84","233970","0.0-42.0-0.0","62240238","wem/bandit_party_1","A1UHNDB2EQ8TK0","either","7","1678","","","","","","","0","0","1","","0.1952616071","0.2","0.4","0.6","0.8","0.01738065524","0.1952616071","0.06530018083","0.1480066451","","","","","","","","","","","","","","74","J","1","","","1","main_expt","",""
"","bandit","85","235996","0.0-43.0-0.0","62240238","wem/bandit_party_1","A1UHNDB2EQ8TK0","either","7","474","","","","","","","0","0","1","","0.1652234336","0.2","0.4","0.6","0.8","0.0196943787","0.1652234336","0.1011701763","0.1053714073","","","","","","","","","","","","","","74","J","1","","","2","main_expt","",""
"","bandit","86","238499","0.0-44.0-0.0","62240238","wem/bandit_party_1","A1UHNDB2EQ8TK0","either","7","943","","","","","","","0","0","1","0.09486719381","","0.2","0.4","0.6","0.8","","","","","0.01678573497","0.1347382479","0.09486719381","0.1460078221","","","","","","","","","","75","K","2","","","3","main_expt","",""
"","bandit","87","240466","0.0-45.0-0.0","62240238","wem/bandit_party_1","A1UHNDB2EQ8TK0","either","7","435","","","","","","","0","0","1","","0.02981965743","0.2","0.4","0.6","0.8","0.02981965743","0.1684625442","0.06705802814","0.1866138214","","","","","","","","","","","","","","72","H","0","img/none_selected.jpg","","4","main_expt","",""
"","bandit","88","242293","0.0-46.0-0.0","62240238","wem/bandit_party_1","A1UHNDB2EQ8TK0","either","7","295","","","","","","","0","0","1","0.1792029032","","0.2","0.4","0.6","0.8","","","","","0.02600208211","0.1792029032","0.0822298525","0.2445348717","","","","","","","","","","74","J","1","","","5","main_expt","",""
"","bandit","89","244062","0.0-47.0-0.0","62240238","wem/bandit_party_1","A1UHNDB2EQ8TK0","either","7","202","","","","","","","0","0","1","0.2153873139","","0.2","0.4","0.6","0.8","","","","","0.02332436933","0.2153873139","0.09162209411","0.2546962146","","","","","","","","","","74","J","1","","","6","main_expt","",""
"","bandit","90","245590","0.0-48.0-0.0","62240238","wem/bandit_party_1","A1UHNDB2EQ8TK0","either","7","1","","","","","","","0","0","1","","0.1757762721","0.2","0.4","0.6","0.8","0.02864040813","0.1757762721","0.1028820098","0.2344841702","","","","","","","","","","","","","","74","J","1","","","7","main_expt","",""
"","bandit","91","247139","0.0-49.0-0.0","62240238","wem/bandit_party_1","A1UHNDB2EQ8TK0","either","7","2","","","","","","","1","0","0","0.2241229746","","0.2","0.4","0.6","0.8","","","","","0.02951264166","0.2241229746","0.1532270122","0.2473344203","","","","","","","","","","74","J","1","","","8","main_expt","",""
"","bandit","92","249038","0.0-50.0-0.0","62240238","wem/bandit_party_1","A1UHNDB2EQ8TK0","either","7","372","","","","","","","0","0","1","0.2199426203","","0.2","0.4","0.6","0.8","","","","","0.02997011939","0.2199426203","0.2131450397","0.2642160399","","","","","","","","","","74","J","1","","","9","main_expt","",""
"","bandit","93","250637","0.0-51.0-0.0","62240238","wem/bandit_party_1","A1UHNDB2EQ8TK0","either","7","75","","","","","","","0","0","1","","0.1520686932","0.2","0.4","0.6","0.8","0.02489651457","0.1520686932","0.2985754635","0.2104627424","","","","","","","","","","","","","","74","J","1","","","10","main_expt","",""
"","bandit","94","252231","0.0-52.0-0.0","62240238","wem/bandit_party_1","A1UHNDB2EQ8TK0","either","7","38","","","","","","","0","0","1","0.2013349999","","0.2","0.4","0.6","0.8","","","","","0.01651058827","0.2013349999","0.2924640086","0.219372878","","","","","","","","","","74","J","1","","","11","main_expt","",""
"","bandit","95","253943","0.0-53.0-0.0","62240238","wem/bandit_party_1","A1UHNDB2EQ8TK0","either","7","160","","","","","","","0","0","1","","0.2156800105","0.2","0.4","0.6","0.8","0.02341729431","0.2156800105","0.3264291113","0.2105839871","","","","","","","","","","","","","","74","J","1","","","12","main_expt","",""
"","bandit","96","255496","0.0-54.0-0.0","62240238","wem/bandit_party_1","A1UHNDB2EQ8TK0","either","7","26","","","","","","","0","0","1","0.1833947696","","0.2","0.4","0.6","0.8","","","","","0.0257410372","0.1833947696","0.3254913314","0.2511698571","","","","","","","","","","74","J","1","","","13","main_expt","",""
"","bandit","97","257073","0.0-55.0-0.0","62240238","wem/bandit_party_1","A1UHNDB2EQ8TK0","either","7","54","","","","","","","0","0","1","","0.243643366","0.2","0.4","0.6","0.8","0.02570014082","0.243643366","0.3428504842","0.2158977649","","","","","","","","","","","","","","74","J","1","","","14","main_expt","",""
"","bandit","98","258638","0.0-56.0-0.0","62240238","wem/bandit_party_1","A1UHNDB2EQ8TK0","either","7","45","","","","","","","0","0","1","0.2265365198","","0.2","0.4","0.6","0.8","","","","","0.04268316416","0.2265365198","0.3244047679","0.2762480727","","","","","","","","","","74","J","1","","","15","main_expt","",""
"","bandit","99","260743","0.0-57.0-0.0","62240238","wem/bandit_party_1","A1UHNDB2EQ8TK0","either","7","578","","","","","","","0","0","1","","0.2484951132","0.2","0.4","0.6","0.8","0.04667408308","0.2484951132","0.3025313629","0.3202890724","","","","","","","","","","","","","","74","J","1","","","16","main_expt","",""
"","bandit","100","262779","0.0-58.0-0.0","62240238","wem/bandit_party_1","A1UHNDB2EQ8TK0","either","7","484","","","","","","","0","0","1","","0.2570267238","0.2","0.4","0.6","0.8","0.0506688767","0.2570267238","0.3291216938","0.3680552247","","","","","","","","","","","","","","74","J","1","","","17","main_expt","",""
"","bandit","101","264758","0.0-59.0-0.0","62240238","wem/bandit_party_1","A1UHNDB2EQ8TK0","either","7","437","","","","","","","0","0","1","0.287418789","","0.2","0.4","0.6","0.8","","","","","0.02988526167","0.287418789","0.2987881532","0.3968593921","","","","","","","","","","74","J","1","","","18","main_expt","",""
"","bandit","102","266411","0.0-60.0-0.0","62240238","wem/bandit_party_1","A1UHNDB2EQ8TK0","either","7","102","","","","","","","0","0","1","","0.2338710899","0.2","0.4","0.6","0.8","0.03476350355","0.2338710899","0.281207523","0.4192996399","","","","","","","","","","","","","","74","J","1","","","19","main_expt","",""
"","bandit","103","268660","0.0-61.0-0.0","62240238","wem/bandit_party_1","A1UHNDB2EQ8TK0","either","7","678","","","","","","","0","0","1","","0.2335293464","0.2","0.4","0.6","0.8","0.0233687216","0.2335293464","0.291129981","0.4362768361","","","","","","","","","","","","","","74","J","1","","","20","main_expt","",""
"","bandit","104","270840","0.0-62.0-0.0","62240238","wem/bandit_party_1","A1UHNDB2EQ8TK0","either","7","649","","","","","","","0","0","1","","0.2434826965","0.2","0.4","0.6","0.8","0.01272547494","0.2434826965","0.2729578326","0.4599691003","","","","","","","","","","","","","","74","J","1","","","21","main_expt","",""
"","bandit","105","272698","0.0-63.0-0.0","62240238","wem/bandit_party_1","A1UHNDB2EQ8TK0","either","7","305","","","","","","","0","0","1","","0.2702300591","0.2","0.4","0.6","0.8","0.01739491555","0.2702300591","0.2805141014","0.44353765","","","","","","","","","","","","","","74","J","1","","","22","main_expt","",""
"","bandit","106","274788","0.0-64.0-0.0","62240238","wem/bandit_party_1","A1UHNDB2EQ8TK0","either","7","533","","","","","","","0","0","1","","0.2424740502","0.2","0.4","0.6","0.8","0.006692102231","0.2424740502","0.3016389313","0.4105594395","","","","","","","","","","","","","","74","J","1","","","23","main_expt","",""
"","bandit","107","276604","0.0-65.0-0.0","62240238","wem/bandit_party_1","A1UHNDB2EQ8TK0","either","7","244","","","","","","","0","0","1","0.1754503809","","0.2","0.4","0.6","0.8","","","","","0.01209419849","0.1754503809","0.2475621169","0.4243351486","","","","","","","","","","74","J","1","","","24","main_expt","",""
"","bandit","108","278447","0.0-66.0-0.0","62240238","wem/bandit_party_1","A1UHNDB2EQ8TK0","either","7","279","","","","","","","0","0","1","","0.2023019753","0.2","0.4","0.6","0.8","0.009734580702","0.2023019753","0.2607476102","0.4172780312","","","","","","","","","","","","","","74","J","1","","","25","main_expt","",""
"","bandit","109","279976","0.0-67.0-0.0","62240238","wem/bandit_party_1","A1UHNDB2EQ8TK0","either","7","3","","","","","","","0","0","1","0.1887270612","","0.2","0.4","0.6","0.8","","","","","0.008596148908","0.1887270612","0.292589008","0.3981062588","","","","","","","","","","74","J","1","","","26","main_expt","",""
"","bandit","110","281804","0.0-68.0-0.0","62240238","wem/bandit_party_1","A1UHNDB2EQ8TK0","either","7","272","","","","","","","0","0","1","","0.2526986378","0.2","0.4","0.6","0.8","0.01380650739","0.2526986378","0.2978950393","0.3889188119","","","","","","","","","","","","","","74","J","1","","","27","main_expt","",""
"","bandit","111","283389","0.0-69.0-0.0","62240238","wem/bandit_party_1","A1UHNDB2EQ8TK0","either","7","26","","","","","","","0","0","1","","0.2536033627","0.2","0.4","0.6","0.8","0.01160852189","0.2536033627","0.337392419","0.3699095679","","","","","","","","","","","","","","74","J","1","","","28","main_expt","",""
"","bandit","112","284989","0.0-70.0-0.0","62240238","wem/bandit_party_1","A1UHNDB2EQ8TK0","either","7","72","","","","","","","0","0","1","0.258258936","","0.2","0.4","0.6","0.8","","","","","0.02858314752","0.258258936","0.3830759015","0.4087832773","","","","","","","","","","74","J","1","","","29","main_expt","",""
"","bandit","113","286714","0.0-71.0-0.0","62240238","wem/bandit_party_1","A1UHNDB2EQ8TK0","either","7","175","","","","","","","0","0","1","","0.3152574144","0.2","0.4","0.6","0.8","0.0265596094","0.3152574144","0.3778881599","0.4162513677","","","","","","","","","","","","","","74","J","1","","","30","main_expt","",""
"","bandit","114","288285","0.0-72.0-0.0","62240238","wem/bandit_party_1","A1UHNDB2EQ8TK0","either","7","17","","","","","","","0","0","1","","0.3508579725","0.2","0.4","0.6","0.8","0.02828816112","0.3508579725","0.3585458117","0.43337534","","","","","","","","","","","","","","74","J","1","","","31","main_expt","",""
"","bandit","115","290076","0.0-73.0-0.0","62240238","wem/bandit_party_1","A1UHNDB2EQ8TK0","either","7","271","","","","","","","0","0","1","0.3902021543","","0.2","0.4","0.6","0.8","","","","","0.03857304495","0.3902021543","0.3511664436","0.4399105216","","","","","","","","","","74","J","1","","","32","main_expt","",""
"","bandit","116","291765","0.0-74.0-0.0","62240238","wem/bandit_party_1","A1UHNDB2EQ8TK0","either","7","122","","","","","","","0","0","1","","0.4112626521","0.2","0.4","0.6","0.8","0.02642959278","0.4112626521","0.3924960189","0.3859623535","","","","","","","","","","","","","","74","J","1","","","33","main_expt","",""
"","bandit","117","293487","0.0-75.0-0.0","62240238","wem/bandit_party_1","A1UHNDB2EQ8TK0","either","7","171","","","","","","","0","0","1","0.3912589523","","0.2","0.4","0.6","0.8","","","","","0.06800028167","0.3912589523","0.3713907517","0.4231921331","","","","","","","","","","74","J","1","","","34","main_expt","",""
"","bandit","118","295485","0.0-76.0-0.0","62240238","wem/bandit_party_1","A1UHNDB2EQ8TK0","either","7","471","","","","","","","0","1","0","","0.3663646496","0.2","0.4","0.6","0.8","0.05710280771","0.3663646496","0.3929004689","0.3950458867","","","","","","","","","","","","","","74","J","1","","","35","main_expt","",""
"","bandit","119","297051","0.0-77.0-0.0","62240238","wem/bandit_party_1","A1UHNDB2EQ8TK0","either","7","3","","","","","","","0","0","1","0.3045225128","","0.2","0.4","0.6","0.8","","","","","0.07756943076","0.3045225128","0.3820467604","0.4005306787","","","","","","","","","","74","J","1","","","36","main_expt","",""
"","bandit","120","298620","0.0-78.0-0.0","62240238","wem/bandit_party_1","A1UHNDB2EQ8TK0","either","7","8","","","","","","","0","1","0","","0.3972735937","0.2","0.4","0.6","0.8","0.06074629621","0.2806474599","0.3948022939","0.3972735937","","","","","","","","","","","","","","76","L","3","","","37","main_expt","",""
"","bandit","121","309040","0.0-79.0-0.0","62240238","wem/bandit_party_1","A1UHNDB2EQ8TK0","either","7","8865","","","","","","","0","0","1","0.38339591","","0.2","0.4","0.6","0.8","","","","","0.07063042774","0.3558759705","0.3769579019","0.38339591","","","","","","","","","","76","L","3","","","38","main_expt","",""
"","bandit","122","311322","0.0-80.0-0.0","62240238","wem/bandit_party_1","A1UHNDB2EQ8TK0","either","7","657","","","","","","","0","0","1","","0.3194138052","0.2","0.4","0.6","0.8","0.06209293178","0.3194138052","0.4030344636","0.3906354184","","","","","","","","","","","","","","74","J","1","","","39","main_expt","",""
"","bandit","123","313805","0.0-81.0-0.0","62240238","wem/bandit_party_1","A1UHNDB2EQ8TK0","either","7","643","","","","","","","1","0","0","0.3622335218","","0.2","0.4","0.6","0.8","","","","","0.06952578958","0.3549086085","0.3622335218","0.3623676206","","","","","","","","","","75","K","2","","","40","main_expt","",""
"","bandit","124","401881","0.0-82.0-0.0","62240238","wem/bandit_party_1","A1UHNDB2EQ8TK0","either","7","85754","","","","","","","0","0","1","0.3452113815","","0.2","0.4","0.6","0.8","","","","","0.1291245709","0.3452113815","0.3911596719","0.3873704927","","","","","","","","","","74","J","1","","","41","main_expt","",""
"","bandit","125","404302","0.0-83.0-0.0","62240238","wem/bandit_party_1","A1UHNDB2EQ8TK0","either","7","763","","","","","","","0","0","1","0.3921858285","","0.2","0.4","0.6","0.8","","","","","0.1174523948","0.3522960267","0.3921858285","0.359823116","","","","","","","","","","75","K","2","","","42","main_expt","",""
"","bandit","126","406469","0.0-84.0-0.0","62240238","wem/bandit_party_1","A1UHNDB2EQ8TK0","either","7","594","","","","","","","0","0","1","","0.3710191411","0.2","0.4","0.6","0.8","0.1201484523","0.3093122096","0.3831213528","0.3710191411","","","","","","","","","","","","","","76","L","3","","","43","main_expt","",""
"","bandit","127","408441","0.0-85.0-0.0","62240238","wem/bandit_party_1","A1UHNDB2EQ8TK0","either","7","432","","","","","","","0","0","1","","0.09958360536","0.2","0.4","0.6","0.8","0.09958360536","0.3026159556","0.3518708159","0.3874065465","","","","","","","","","","","","","","72","H","0","img/none_selected.jpg","","44","main_expt","",""
"","bandit","128","410371","0.0-86.0-0.0","62240238","wem/bandit_party_1","A1UHNDB2EQ8TK0","either","7","391","","","","","","","0","1","0","","0.3336294247","0.2","0.4","0.6","0.8","0.05173655998","0.3336294247","0.3122870636","0.3851533971","","","","","","","","","","","","","","74","J","1","","","45","main_expt","",""
"","bandit","129","412396","0.0-87.0-0.0","62240238","wem/bandit_party_1","A1UHNDB2EQ8TK0","either","7","473","","","","","","","0","0","1","","0.3400222736","0.2","0.4","0.6","0.8","0.05945041096","0.3400222736","0.2635721956","0.4055883719","","","","","","","","","","","","","","74","J","1","","","46","main_expt","",""
"","bandit","130","414233","0.0-88.0-0.0","62240238","wem/bandit_party_1","A1UHNDB2EQ8TK0","either","7","296","","","","","","","0","0","1","0.328707825","","0.2","0.4","0.6","0.8","","","","","0.04375763727","0.328707825","0.2856785865","0.3671593179","","","","","","","","","","74","J","1","","","47","main_expt","",""
"","bandit","131","415874","0.0-89.0-0.0","62240238","wem/bandit_party_1","A1UHNDB2EQ8TK0","either","7","83","","","","","","","0","0","1","0.3307690822","","0.2","0.4","0.6","0.8","","","","","0.0666370861","0.3307690822","0.2649087478","0.3198203038","","","","","","","","","","74","J","1","","","48","main_expt","",""
"","bandit","132","419156","0.0-90.0-0.0","62240238","wem/bandit_party_1","A1UHNDB2EQ8TK0","either","7","1721","","","","","","","0","1","0","","0.3438067684","0.2","0.4","0.6","0.8","0.08266213623","0.3438067684","0.2462979357","0.3111357295","","","","","","","","","","","","","","74","J","1","","","49","main_expt","",""
"","bandit","133","421129","0.0-91.0-0.0","62240238","wem/bandit_party_1","A1UHNDB2EQ8TK0","either","7","412","","","","","","","0","1","0","","0.4037002216","0.2","0.4","0.6","0.8","0.08795051988","0.4037002216","0.2490076798","0.3196682981","","","","","","","","","","","","","","74","J","1","","","50","main_expt","",""
"","bandit","134","423106","0.0-92.0-0.0","62240238","wem/bandit_party_1","A1UHNDB2EQ8TK0","either","7","440","","","","","","","1","0","0","0.3557518394","","0.2","0.4","0.6","0.8","","","","","0.07533366945","0.3557518394","0.305209751","0.3088596379","","","","","","","","","","74","J","1","","","51","main_expt","",""
"","bandit","135","425031","0.0-93.0-0.0","62240238","wem/bandit_party_1","A1UHNDB2EQ8TK0","either","7","345","","","","","","","0","1","0","","0.3254324358","0.2","0.4","0.6","0.8","0.06506638851","0.3254324358","0.3087204988","0.3060924957","","","","","","","","","","","","","","74","J","1","","","52","main_expt","",""
"","bandit","136","427689","0.0-94.0-0.0","62240238","wem/bandit_party_1","A1UHNDB2EQ8TK0","either","7","1123","","","","","","","0","0","1","","0.2952150256","0.2","0.4","0.6","0.8","0.06562792832","0.2952150256","0.2984188648","0.3229319808","","","","","","","","","","","","","","74","J","1","","","53","main_expt","",""
"","bandit","137","429596","0.0-95.0-0.0","62240238","wem/bandit_party_1","A1UHNDB2EQ8TK0","either","7","358","","","","","","","0","0","1","","0.300320608","0.2","0.4","0.6","0.8","0.04630081711","0.300320608","0.3353917468","0.3280138586","","","","","","","","","","","","","","74","J","1","","","54","main_expt","",""
"","bandit","138","431549","0.0-96.0-0.0","62240238","wem/bandit_party_1","A1UHNDB2EQ8TK0","either","7","418","","","","","","","0","0","1","","0.2985084879","0.2","0.4","0.6","0.8","0.03868373719","0.2985084879","0.3259144651","0.2777260571","","","","","","","","","","","","","","74","J","1","","","55","main_expt","",""
"","bandit","139","433135","0.0-97.0-0.0","62240238","wem/bandit_party_1","A1UHNDB2EQ8TK0","either","7","17","","","","","","","0","0","1","0.2607009345","","0.2","0.4","0.6","0.8","","","","","0.06235362297","0.2607009345","0.3259049121","0.1791004868","","","","","","","","","","74","J","1","","","56","main_expt","",""
"","bandit","140","435461","0.0-98.0-0.0","62240238","wem/bandit_party_1","A1UHNDB2EQ8TK0","either","7","784","","","","","","","0","0","1","0.2565854794","","0.2","0.4","0.6","0.8","","","","","0.04639461243","0.2565854794","0.3687904078","0.2182265394","","","","","","","","","","74","J","1","","","57","main_expt","",""
"","bandit","141","437421","0.0-99.0-0.0","62240238","wem/bandit_party_1","A1UHNDB2EQ8TK0","either","7","412","","","","","","","0","1","0","","0.319121847","0.2","0.4","0.6","0.8","0.08954448139","0.319121847","0.3422038875","0.2970860181","","","","","","","","","","","","","","74","J","1","","","58","main_expt","",""
"","bandit","142","439644","0.0-100.0-0.0","62240238","wem/bandit_party_1","A1UHNDB2EQ8TK0","either","7","658","","","","","","","0","0","1","0.3771421139","","0.2","0.4","0.6","0.8","","","","","0.07390342289","0.3269923399","0.3771421139","0.3249685468","","","","","","","","","","75","K","2","","","59","main_expt","",""
"","bandit","143","441210","0.0-101.0-0.0","62240238","wem/bandit_party_1","A1UHNDB2EQ8TK0","either","7","2","","","","","","","0","0","1","","0.3150968823","0.2","0.4","0.6","0.8","0.05801548519","0.3150968823","0.3620124399","0.2931470039","","","","","","","","","","","","","","74","J","1","","","60","main_expt","",""
"","bandit","144","454192","0.0-102.0-0.0","62240238","wem/bandit_party_1","A1UHNDB2EQ8TK0","either","7","11358","","","","","","","0","0","1","","0.324539239","0.2","0.4","0.6","0.8","0.07333263924","0.324539239","0.3958116198","0.2646536279","","","","","","","","","","","","","","74","J","1","","","61","main_expt","",""
"","bandit","145","456287","0.0-103.0-0.0","62240238","wem/bandit_party_1","A1UHNDB2EQ8TK0","either","7","548","","","","","","","0","0","1","","0.3066306166","0.2","0.4","0.6","0.8","0.07563430262","0.3066306166","0.3615218546","0.242461968","","","","","","","","","","","","","","74","J","1","","","62","main_expt","",""
"","bandit","146","458010","0.0-104.0-0.0","62240238","wem/bandit_party_1","A1UHNDB2EQ8TK0","either","7","147","","","","","","","0","0","1","","0.3068900116","0.2","0.4","0.6","0.8","0.06826526778","0.3068900116","0.3574266064","0.2206683029","","","","","","","","","","","","","","74","J","1","","","63","main_expt","",""
"","bandit","147","459940","0.0-105.0-0.0","62240238","wem/bandit_party_1","A1UHNDB2EQ8TK0","either","7","394","","","","","","","0","0","1","","0.2936494982","0.2","0.4","0.6","0.8","0.1175271989","0.2936494982","0.3541915859","0.2288959862","","","","","","","","","","","","","","74","J","1","","","64","main_expt","",""
"","bandit","148","462003","0.0-106.0-0.0","62240238","wem/bandit_party_1","A1UHNDB2EQ8TK0","either","7","477","","","","","","","0","1","0","","0.290236101","0.2","0.4","0.6","0.8","0.1273865191","0.290236101","0.3339820985","0.2346523549","","","","","","","","","","","","","","74","J","1","","","65","main_expt","",""
"","bandit","149","482243","0.0-107.0-0.0","62240238","wem/bandit_party_1","A1UHNDB2EQ8TK0","either","7","18326","","","","","","","0","0","1","","0.2512036594","0.2","0.4","0.6","0.8","0.09075088943","0.2512036594","0.3195467083","0.1881688105","","","","","","","","","","","","","","74","J","1","","","66","main_expt","",""
"","bandit","150","485964","0.0-108.0-0.0","62240238","wem/bandit_party_1","A1UHNDB2EQ8TK0","either","7","1359","","","","","","","0","1","0","","0.263747572","0.2","0.4","0.6","0.8","0.08077075725","0.263747572","0.3477383846","0.231043846","","","","","","","","","","","","","","74","J","1","","","67","main_expt","",""
"","bandit","151","538898","0.0-109.0-0.0","62240238","wem/bandit_party_1","A1UHNDB2EQ8TK0","either","7","51252","","","","","","","0","0","1","","0.2892519303","0.2","0.4","0.6","0.8","0.08810311296","0.2892519303","0.3365352069","0.2576664243","","","","","","","","","","","","","","74","J","1","","","68","main_expt","",""
"","bandit","152","540975","0.0-110.0-0.0","62240238","wem/bandit_party_1","A1UHNDB2EQ8TK0","either","7","463","","","","","","","1","0","0","0.2383664846","","0.2","0.4","0.6","0.8","","","","","0.1260156682","0.2383664846","0.3148812039","0.2183283259","","","","","","","","","","74","J","1","","","69","main_expt","",""
"","bandit","153","544279","0.0-111.0-0.0","62240238","wem/bandit_party_1","A1UHNDB2EQ8TK0","either","7","1665","","","","","","","0","0","1","0.2497111545","","0.2","0.4","0.6","0.8","","","","","0.08773951932","0.2497111545","0.3154014692","0.2260484764","","","","","","","","","","74","J","1","","","70","main_expt","",""
"","bandit","154","546571","0.0-112.0-0.0","62240238","wem/bandit_party_1","A1UHNDB2EQ8TK0","either","7","625","","","","","","","0","0","1","","0.2095843002","0.2","0.4","0.6","0.8","0.1154304285","0.2095843002","0.219815459","0.3196469567","","","","","","","","","","","","","","74","J","1","","","71","main_expt","",""
"","bandit","155","549504","0.0-113.0-0.0","62240238","wem/bandit_party_1","A1UHNDB2EQ8TK0","either","7","1359","","","","","","","0","0","1","","0.1972488467","0.2","0.4","0.6","0.8","0.10097247","0.1972488467","0.2623730272","0.3644141189","","","","","","","","","","","","","","74","J","1","","","72","main_expt","",""
"","bandit","156","589071","0.0-114.0-0.0","62240238","wem/bandit_party_1","A1UHNDB2EQ8TK0","either","7","38024","","","","","","","0","0","1","","0.0746930591","0.2","0.4","0.6","0.8","0.0746930591","0.15494396","0.2639805735","0.4081842109","","","","","","","","","","","","","","72","H","0","img/none_selected.jpg","","73","main_expt","",""
"","bandit","157","591205","0.0-115.0-0.0","62240238","wem/bandit_party_1","A1UHNDB2EQ8TK0","either","7","477","","","","","","","0","0","1","","0.1324790415","0.2","0.4","0.6","0.8","0.1124392477","0.1324790415","0.2770925356","0.4506698749","","","","","","","","","","","","","","74","J","1","","","74","main_expt","",""
"","bandit","158","695984","0.0-116.0-0.0","62240238","wem/bandit_party_1","A1UHNDB2EQ8TK0","either","7","103033","","","","","","","1","0","0","0.179195356","","0.2","0.4","0.6","0.8","","","","","0.113494578","0.179195356","0.2796652475","0.454520075","","","","","","","","","","74","J","1","","","75","main_expt","",""
"","bandit","159","698190","0.0-117.0-0.0","62240238","wem/bandit_party_1","A1UHNDB2EQ8TK0","either","7","591","","","","","","","0","0","1","","0.215808919","0.2","0.4","0.6","0.8","0.1469344428","0.215808919","0.3153427244","0.466199952","","","","","","","","","","","","","","74","J","1","","","76","main_expt","",""
"","bandit","160","808878","0.0-118.0-0.0","62240238","wem/bandit_party_1","A1UHNDB2EQ8TK0","either","7","109114","","","","","","","0","0","1","","0.2312347408","0.2","0.4","0.6","0.8","0.2152215887","0.2312347408","0.3676911864","0.4402141775","","","","","","","","","","","","","","74","J","1","","","77","main_expt","",""
"","bandit","161","811069","0.0-119.0-0.0","62240238","wem/bandit_party_1","A1UHNDB2EQ8TK0","either","7","404","","","","","","","0","1","0","","0.2055177618","0.2","0.4","0.6","0.8","0.2055177618","0.2197025874","0.3434277392","0.4525957793","","","","","","","","","","","","","","72","H","0","img/none_selected.jpg","","78","main_expt","",""
"","bandit","162","1072912","0.0-120.0-0.0","62240238","wem/bandit_party_1","A1UHNDB2EQ8TK0","either","7","259888","","","","","","","0","0","1","0.2227420924","","0.2","0.4","0.6","0.8","","","","","0.222262525","0.2227420924","0.3758616161","0.4630799716","","","","","","","","","","74","J","1","","","79","main_expt","",""
"","bandit","163","1164065","0.0-121.0-0.0","62240238","wem/bandit_party_1","A1UHNDB2EQ8TK0","either","7","89549","","","","","","","0","0","1","","0.2283057493","0.2","0.4","0.6","0.8","0.2700860438","0.2283057493","0.3862393514","0.423693353","","","","","","","","","","","","","","74","J","1","","","80","main_expt","",""
"","bandit","164","1166069","0.0-122.0-0.0","62240238","wem/bandit_party_1","A1UHNDB2EQ8TK0","either","7","409","","","","","","","1","0","0","0.2721525977","","0.2","0.4","0.6","0.8","","","","","0.2642688004","0.2721525977","0.3593770893","0.4319112677","","","","","","","","","","74","J","1","","","81","main_expt","",""
"","bandit","165","1168054","0.0-123.0-0.0","62240238","wem/bandit_party_1","A1UHNDB2EQ8TK0","either","7","417","","","","","","","1","0","0","0.2850237184","","0.2","0.4","0.6","0.8","","","","","0.2824164754","0.2850237184","0.4035110645","0.441827487","","","","","","","","","","74","J","1","","","82","main_expt","",""
"","bandit","166","1170081","0.0-124.0-0.0","62240238","wem/bandit_party_1","A1UHNDB2EQ8TK0","either","7","449","","","","","","","0","0","1","0.3236436683","","0.2","0.4","0.6","0.8","","","","","0.2819095575","0.3236436683","0.3719627038","0.4288861504","","","","","","","","","","74","J","1","","","83","main_expt","",""
"","bandit","167","1171719","0.0-125.0-0.0","62240238","wem/bandit_party_1","A1UHNDB2EQ8TK0","either","7","91","","","","","","","0","0","1","0.3339638593","","0.2","0.4","0.6","0.8","","","","","0.2589745902","0.3339638593","0.3349288927","0.4350385517","","","","","","","","","","74","J","1","","","84","main_expt","",""
"","bandit","168","1174446","0.0-126.0-0.0","62240238","wem/bandit_party_1","A1UHNDB2EQ8TK0","either","7","1179","","","","","","","0","0","1","","0.3795022601","0.2","0.4","0.6","0.8","0.3626504113","0.3795022601","0.3247899262","0.4255505645","","","","","","","","","","","","","","74","J","1","","","85","main_expt","",""
"","bandit","169","1176115","0.0-127.0-0.0","62240238","wem/bandit_party_1","A1UHNDB2EQ8TK0","either","7","130","","","","","","","0","0","1","0.3443557019","","0.2","0.4","0.6","0.8","","","","","0.3598915268","0.3835523064","0.3443557019","0.4330938692","","","","","","","","","","75","K","2","","","86","main_expt","",""
"","bandit","170","1178572","0.0-128.0-0.0","62240238","wem/bandit_party_1","A1UHNDB2EQ8TK0","either","7","916","","","","","","","1","0","0","0.4548398529","","0.2","0.4","0.6","0.8","","","","","0.3433052933","0.3772514457","0.3648776167","0.4548398529","","","","","","","","","","76","L","3","","","87","main_expt","",""
"","bandit","171","1180130","0.0-129.0-0.0","62240238","wem/bandit_party_1","A1UHNDB2EQ8TK0","either","7","3","","","","","","","1","0","0","0.4493124031","","0.2","0.4","0.6","0.8","","","","","0.4022938878","0.3766830519","0.3609631839","0.4493124031","","","","","","","","","","76","L","3","","","88","main_expt","",""
"","bandit","172","1181916","0.0-130.0-0.0","62240238","wem/bandit_party_1","A1UHNDB2EQ8TK0","either","7","227","","","","","","","0","0","1","0.4161110063","","0.2","0.4","0.6","0.8","","","","","0.4141493151","0.3537755119","0.3636167192","0.4161110063","","","","","","","","","","76","L","3","","","89","main_expt","",""
"","bandit","173","1183678","0.0-131.0-0.0","62240238","wem/bandit_party_1","A1UHNDB2EQ8TK0","either","7","210","","","","","","","0","1","0","","0.405260856","0.2","0.4","0.6","0.8","0.4136124289","0.3014761449","0.3563441379","0.405260856","","","","","","","","","","","","","","76","L","3","","","90","main_expt","",""
"","bandit","174","1185290","0.0-132.0-0.0","62240238","wem/bandit_party_1","A1UHNDB2EQ8TK0","either","7","39","","","","","","","1","0","0","0.3827048226","","0.2","0.4","0.6","0.8","","","","","0.4184852842","0.2694038268","0.3389138503","0.3827048226","","","","","","","","","","76","L","3","","","91","main_expt","",""
"","bandit","175","1186879","0.0-133.0-0.0","62240238","wem/bandit_party_1","A1UHNDB2EQ8TK0","either","7","17","","","","","","","0","0","1","0.3552182969","","0.2","0.4","0.6","0.8","","","","","0.4456808576","0.2651536323","0.3263360165","0.3552182969","","","","","","","","","","76","L","3","","","92","main_expt","",""
"","bandit","176","1188580","0.0-134.0-0.0","62240238","wem/bandit_party_1","A1UHNDB2EQ8TK0","either","7","162","","","","","","","1","0","0","0.3286897504","","0.2","0.4","0.6","0.8","","","","","0.4355219805","0.1997208586","0.2844131911","0.3286897504","","","","","","","","","","76","L","3","","","93","main_expt","",""
"","bandit","177","1190166","0.0-135.0-0.0","62240238","wem/bandit_party_1","A1UHNDB2EQ8TK0","either","7","55","","","","","","","0","0","1","0.3422490236","","0.2","0.4","0.6","0.8","","","","","0.4609821192","0.2442555344","0.2978465223","0.3422490236","","","","","","","","","","76","L","3","","","94","main_expt","",""
"","bandit","178","1191777","0.0-136.0-0.0","62240238","wem/bandit_party_1","A1UHNDB2EQ8TK0","either","7","76","","","","","","","0","0","1","0.3160161054","","0.2","0.4","0.6","0.8","","","","","0.4419374505","0.2638839348","0.2638723705","0.3160161054","","","","","","","","","","76","L","3","","","95","main_expt","",""
"","bandit","179","1193386","0.0-137.0-0.0","62240238","wem/bandit_party_1","A1UHNDB2EQ8TK0","either","7","54","","","","","","","0","0","1","0.2945538732","","0.2","0.4","0.6","0.8","","","","","0.39438674","0.2265245807","0.2276010735","0.2945538732","","","","","","","","","","76","L","3","","","96","main_expt","",""
"","bandit","180","1195016","0.0-138.0-0.0","62240238","wem/bandit_party_1","A1UHNDB2EQ8TK0","either","7","86","","","","","","","0","0","1","0.393563827","","0.2","0.4","0.6","0.8","","","","","0.3617668419","0.1969189177","0.2045446072","0.393563827","","","","","","","","","","76","L","3","","","97","main_expt","",""
"","bandit","181","1196734","0.0-139.0-0.0","62240238","wem/bandit_party_1","A1UHNDB2EQ8TK0","either","7","142","","","","","","","0","0","1","0.4046254927","","0.2","0.4","0.6","0.8","","","","","0.3737913853","0.1761144245","0.2436418828","0.4046254927","","","","","","","","","","76","L","3","","","98","main_expt","",""
"","bandit","182","1198416","0.0-140.0-0.0","62240238","wem/bandit_party_1","A1UHNDB2EQ8TK0","either","7","116","","","","","","","0","0","1","","0.3659012549","0.2","0.4","0.6","0.8","0.4221129479","0.1211630765","0.2473144087","0.3659012549","","","","","","","","","","","","","","76","L","3","","","99","main_expt","",""
"","bandit","183","1200172","0.0-141.0-0.0","62240238","wem/bandit_party_1","A1UHNDB2EQ8TK0","either","7","202","","","","","","","0","0","1","0.400368336","","0.2","0.4","0.6","0.8","","","","","0.3857893684","0.1257326749","0.2707360286","0.400368336","","","","","","","","","","76","L","3","","","100","main_expt","",""
"","bandit","184","1201961","0.0-142.0-0.0","62240238","wem/bandit_party_1","A1UHNDB2EQ8TK0","either","7","219","","","","","","","0","0","1","0.4367931528","","0.2","0.4","0.6","0.8","","","","","0.3635527264","0.09975532208","0.3250409822","0.4367931528","","","","","","","","","","76","L","3","","","101","main_expt","",""
"","bandit","185","1203555","0.0-143.0-0.0","62240238","wem/bandit_party_1","A1UHNDB2EQ8TK0","either","7","40","","","","","","","0","0","1","0.4371155326","","0.2","0.4","0.6","0.8","","","","","0.3738375489","0.1127414424","0.3088580598","0.4371155326","","","","","","","","","","76","L","3","","","102","main_expt","",""
"","bandit","186","1205141","0.0-144.0-0.0","62240238","wem/bandit_party_1","A1UHNDB2EQ8TK0","either","7","54","","","","","","","0","0","1","0.388648264","","0.2","0.4","0.6","0.8","","","","","0.3860163181","0.1232600734","0.2901001995","0.388648264","","","","","","","","","","76","L","3","","","103","main_expt","",""
"","bandit","187","1206897","0.0-145.0-0.0","62240238","wem/bandit_party_1","A1UHNDB2EQ8TK0","either","7","202","","","","","","","0","0","1","0.3718469433","","0.2","0.4","0.6","0.8","","","","","0.390692362","0.08156843846","0.309645936","0.3718469433","","","","","","","","","","76","L","3","","","104","main_expt","",""
"","bandit","188","1208491","0.0-146.0-0.0","62240238","wem/bandit_party_1","A1UHNDB2EQ8TK0","either","7","42","","","","","","","0","0","1","0.3920304628","","0.2","0.4","0.6","0.8","","","","","0.4139082553","0.08245659199","0.3386062745","0.3920304628","","","","","","","","","","76","L","3","","","105","main_expt","",""
"","bandit","189","1210128","0.0-147.0-0.0","62240238","wem/bandit_party_1","A1UHNDB2EQ8TK0","either","7","56","","","","","","","0","0","1","0.3733497125","","0.2","0.4","0.6","0.8","","","","","0.3295275825","0.1276639339","0.3827539061","0.3733497125","","","","","","","","","","76","L","3","","","106","main_expt","",""
"","bandit","190","1211927","0.0-148.0-0.0","62240238","wem/bandit_party_1","A1UHNDB2EQ8TK0","either","7","241","","","","","","","0","0","1","0.3878439861","","0.2","0.4","0.6","0.8","","","","","0.3499712774","0.1812689745","0.3401355396","0.3878439861","","","","","","","","","","76","L","3","","","107","main_expt","",""
"","bandit","191","1213668","0.0-149.0-0.0","62240238","wem/bandit_party_1","A1UHNDB2EQ8TK0","either","7","176","","","","","","","0","0","1","0.3529013302","","0.2","0.4","0.6","0.8","","","","","0.2666891207","0.2187982558","0.3258039352","0.3529013302","","","","","","","","","","76","L","3","","","108","main_expt","",""
"","bandit","192","1215385","0.0-150.0-0.0","62240238","wem/bandit_party_1","A1UHNDB2EQ8TK0","either","7","107","","","","","","","0","0","1","0.3457683734","","0.2","0.4","0.6","0.8","","","","","0.2575067634","0.2201216928","0.374919859","0.3457683734","","","","","","","","","","76","L","3","","","109","main_expt","",""
"","bandit","193","1217065","0.0-151.0-0.0","62240238","wem/bandit_party_1","A1UHNDB2EQ8TK0","either","7","70","","","","","","","0","0","1","0.3316873257","","0.2","0.4","0.6","0.8","","","","","0.2664913793","0.1789817232","0.3656186065","0.3316873257","","","","","","","","","","76","L","3","","","110","main_expt","",""
"","bandit","194","1218714","0.0-152.0-0.0","62240238","wem/bandit_party_1","A1UHNDB2EQ8TK0","either","7","74","","","","","","","0","0","1","0.3434945318","","0.2","0.4","0.6","0.8","","","","","0.2233446911","0.2404947452","0.3649701027","0.3434945318","","","","","","","","","","76","L","3","","","111","main_expt","",""
"","bandit","195","1220432","0.0-153.0-0.0","62240238","wem/bandit_party_1","A1UHNDB2EQ8TK0","either","7","166","","","","","","","0","0","1","0.2729480053","","0.2","0.4","0.6","0.8","","","","","0.2170082082","0.2959558532","0.3371716456","0.2729480053","","","","","","","","","","76","L","3","","","112","main_expt","",""
"","bandit","196","1222109","0.0-154.0-0.0","62240238","wem/bandit_party_1","A1UHNDB2EQ8TK0","either","7","117","","","","","","","0","0","1","0.2579672073","","0.2","0.4","0.6","0.8","","","","","0.1912277411","0.2966985553","0.2587224119","0.2579672073","","","","","","","","","","76","L","3","","","113","main_expt","",""
"","bandit","197","1223841","0.0-155.0-0.0","62240238","wem/bandit_party_1","A1UHNDB2EQ8TK0","either","7","148","","","","","","","1","0","0","0.24654084","","0.2","0.4","0.6","0.8","","","","","0.1691995451","0.3289730608","0.2384324947","0.24654084","","","","","","","","","","76","L","3","","","114","main_expt","",""
"","bandit","198","1225444","0.0-156.0-0.0","62240238","wem/bandit_party_1","A1UHNDB2EQ8TK0","either","7","41","","","","","","","0","0","1","","0.246649757","0.2","0.4","0.6","0.8","0.1263730162","0.2783705844","0.2705755989","0.246649757","","","","","","","","","","","","","","76","L","3","","","115","main_expt","",""
"","bandit","199","1227087","0.0-157.0-0.0","62240238","wem/bandit_party_1","A1UHNDB2EQ8TK0","either","7","72","","","","","","","0","0","1","0.2190482835","","0.2","0.4","0.6","0.8","","","","","0.1130092975","0.2990421824","0.2666822","0.2190482835","","","","","","","","","","76","L","3","","","116","main_expt","",""
"","bandit","200","1228842","0.0-158.0-0.0","62240238","wem/bandit_party_1","A1UHNDB2EQ8TK0","either","7","183","","","","","","","0","0","1","0.1860086181","","0.2","0.4","0.6","0.8","","","","","0.1317362661","0.3214730448","0.2664749026","0.1860086181","","","","","","","","","","76","L","3","","","117","main_expt","",""
"","bandit","201","1230421","0.0-159.0-0.0","62240238","wem/bandit_party_1","A1UHNDB2EQ8TK0","either","7","12","","","","","","","0","0","1","0.1765749983","","0.2","0.4","0.6","0.8","","","","","0.08460291254","0.3996160597","0.285497096","0.1765749983","","","","","","","","","","76","L","3","","","118","main_expt","",""
"","bandit","202","1232097","0.0-160.0-0.0","62240238","wem/bandit_party_1","A1UHNDB2EQ8TK0","either","7","102","","","","","","","0","0","1","0.1840588368","","0.2","0.4","0.6","0.8","","","","","0.09168363065","0.4143362638","0.3004427434","0.1840588368","","","","","","","","","","76","L","3","","","119","main_expt","",""
"","bandit","203","1234111","0.0-161.0-0.0","62240238","wem/bandit_party_1","A1UHNDB2EQ8TK0","either","7","441","","","","","","","0","0","1","0.1988357929","","0.2","0.4","0.6","0.8","","","","","0.06729372802","0.372340151","0.2419855731","0.1988357929","","","","","","","","","","76","L","3","","","120","main_expt","",""
"","bandit","204","1235797","0.0-162.0-0.0","62240238","wem/bandit_party_1","A1UHNDB2EQ8TK0","either","7","123","","","","","","","1","0","0","0.2315674","","0.2","0.4","0.6","0.8","","","","","0.08346408207","0.3910424524","0.3054132847","0.2315674","","","","","","","","","","76","L","3","","","121","main_expt","",""
"","bandit","205","1237401","0.0-163.0-0.0","62240238","wem/bandit_party_1","A1UHNDB2EQ8TK0","either","7","26","","","","","","","1","0","0","0.2041322171","","0.2","0.4","0.6","0.8","","","","","0.05632743158","0.3813410711","0.2473202095","0.2041322171","","","","","","","","","","76","L","3","","","122","main_expt","",""
"","bandit","206","1239091","0.0-164.0-0.0","62240238","wem/bandit_party_1","A1UHNDB2EQ8TK0","either","7","110","","","","","","","0","0","1","","0.1945268209","0.2","0.4","0.6","0.8","0.05516745574","0.4247291795","0.2909195989","0.1945268209","","","","","","","","","","","","","","76","L","3","","","123","main_expt","",""
"","bandit","207","1240665","0.0-165.0-0.0","62240238","wem/bandit_party_1","A1UHNDB2EQ8TK0","either","7","1","","","","","","","0","0","1","0.2206749142","","0.2","0.4","0.6","0.8","","","","","0.05528311039","0.4311179713","0.3493750294","0.2206749142","","","","","","","","","","76","L","3","","","124","main_expt","",""
"","bandit","208","1242338","0.0-166.0-0.0","62240238","wem/bandit_party_1","A1UHNDB2EQ8TK0","either","7","106","","","","","","","0","0","1","0.212012295","","0.2","0.4","0.6","0.8","","","","","0.07149807259","0.4085782939","0.3883668019","0.212012295","","","","","","","","","","76","L","3","","","125","main_expt","",""
"","bandit","209","1244183","0.0-167.0-0.0","62240238","wem/bandit_party_1","A1UHNDB2EQ8TK0","either","7","276","","","","","","","0","0","1","","0.1656684785","0.2","0.4","0.6","0.8","0.1137803622","0.4110861309","0.3888129637","0.1656684785","","","","","","","","","","","","","","76","L","3","","","126","main_expt","",""
"","bandit","210","1245802","0.0-168.0-0.0","62240238","wem/bandit_party_1","A1UHNDB2EQ8TK0","either","7","71","","","","","","","0","0","1","0.1685301808","","0.2","0.4","0.6","0.8","","","","","0.1003054442","0.4214671818","0.3659195129","0.1685301808","","","","","","","","","","76","L","3","","","127","main_expt","",""
"","bandit","211","1247533","0.0-169.0-0.0","62240238","wem/bandit_party_1","A1UHNDB2EQ8TK0","either","7","169","","","","","","","0","0","1","","0.1703551811","0.2","0.4","0.6","0.8","0.1378169536","0.36889317","0.3689954399","0.1703551811","","","","","","","","","","","","","","76","L","3","","","128","main_expt","",""
"","bandit","212","1249178","0.0-170.0-0.0","62240238","wem/bandit_party_1","A1UHNDB2EQ8TK0","either","7","103","","","","","","","0","0","1","0.1624753709","","0.2","0.4","0.6","0.8","","","","","0.1333081235","0.3840267129","0.3600340942","0.1624753709","","","","","","","","","","76","L","3","","","129","main_expt","",""
"","bandit","213","1250875","0.0-171.0-0.0","62240238","wem/bandit_party_1","A1UHNDB2EQ8TK0","either","7","158","","","","","","","0","0","1","0.2335662737","","0.2","0.4","0.6","0.8","","","","","0.1682212827","0.3809677701","0.3580797835","0.2335662737","","","","","","","","","","76","L","3","","","130","main_expt","",""
"","bandit","214","1252588","0.0-172.0-0.0","62240238","wem/bandit_party_1","A1UHNDB2EQ8TK0","either","7","144","","","","","","","0","0","1","","0.240441026","0.2","0.4","0.6","0.8","0.2193829955","0.3681933818","0.3785893338","0.240441026","","","","","","","","","","","","","","76","L","3","","","131","main_expt","",""
"","bandit","215","1254241","0.0-173.0-0.0","62240238","wem/bandit_party_1","A1UHNDB2EQ8TK0","either","7","83","","","","","","","0","0","1","0.2266699971","","0.2","0.4","0.6","0.8","","","","","0.2693349046","0.3664045944","0.3764735404","0.2266699971","","","","","","","","","","76","L","3","","","132","main_expt","",""
"","bandit","216","1255849","0.0-174.0-0.0","62240238","wem/bandit_party_1","A1UHNDB2EQ8TK0","either","7","67","","","","","","","0","0","1","0.1994193025","","0.2","0.4","0.6","0.8","","","","","0.2576546077","0.4046437197","0.3433534211","0.1994193025","","","","","","","","","","76","L","3","","","133","main_expt","",""
"","bandit","217","1257417","0.0-175.0-0.0","62240238","wem/bandit_party_1","A1UHNDB2EQ8TK0","either","7","3","","","","","","","0","0","1","","0.1891464922","0.2","0.4","0.6","0.8","0.2412372273","0.364490756","0.3606247271","0.1891464922","","","","","","","","","","","","","","76","L","3","","","134","main_expt","",""
"","bandit","218","1259135","0.0-176.0-0.0","62240238","wem/bandit_party_1","A1UHNDB2EQ8TK0","either","7","154","","","","","","","0","0","1","0.1614798668","","0.2","0.4","0.6","0.8","","","","","0.2198641054","0.311914316","0.3268624306","0.1614798668","","","","","","","","","","76","L","3","","","135","main_expt","",""
"","bandit","219","1260899","0.0-177.0-0.0","62240238","wem/bandit_party_1","A1UHNDB2EQ8TK0","either","7","220","","","","","","","0","0","1","","0.1880386222","0.2","0.4","0.6","0.8","0.2504132697","0.2653901568","0.2854606769","0.1880386222","","","","","","","","","","","","","","76","L","3","","","136","main_expt","",""
"","bandit","220","1262460","0.0-178.0-0.0","62240238","wem/bandit_party_1","A1UHNDB2EQ8TK0","either","7","3","","","","","","","0","0","1","","0.3311747399","0.2","0.4","0.6","0.8","0.1912230989","0.2413295316","0.3311747399","0.1961818793","","","","","","","","","","","","","","75","K","2","","","137","main_expt","",""
"","bandit","221","1264296","0.0-179.0-0.0","62240238","wem/bandit_party_1","A1UHNDB2EQ8TK0","either","7","296","","","","","","","0","0","1","","0.2060295423","0.2","0.4","0.6","0.8","0.1576256809","0.2060295423","0.2570785188","0.2857678963","","","","","","","","","","","","","","74","J","1","","","138","main_expt","",""
"","bandit","222","1266082","0.0-180.0-0.0","62240238","wem/bandit_party_1","A1UHNDB2EQ8TK0","either","7","186","","","","","","","1","0","0","0.3449131854","","0.2","0.4","0.6","0.8","","","","","0.1019788138","0.1809645164","0.2858060749","0.3449131854","","","","","","","","","","76","L","3","","","139","main_expt","",""
"","bandit","223","1267822","0.0-181.0-0.0","62240238","wem/bandit_party_1","A1UHNDB2EQ8TK0","either","7","196","","","","","","","0","0","1","0.2537716732","","0.2","0.4","0.6","0.8","","","","","0.07754087054","0.1843216893","0.2975559752","0.2537716732","","","","","","","","","","76","L","3","","","140","main_expt","",""
"","bandit","224","1269400","0.0-182.0-0.0","62240238","wem/bandit_party_1","A1UHNDB2EQ8TK0","either","7","28","","","","","","","0","1","0","","0.2858111263","0.2","0.4","0.6","0.8","0.09489610577","0.1651876155","0.2802168405","0.2858111263","","","","","","","","","","","","","","76","L","3","","","141","main_expt","",""
"","bandit","225","1271071","0.0-183.0-0.0","62240238","wem/bandit_party_1","A1UHNDB2EQ8TK0","either","7","139","","","","","","","1","0","0","0.303049367","","0.2","0.4","0.6","0.8","","","","","0.09601428546","0.1536427928","0.2231986748","0.303049367","","","","","","","","","","76","L","3","","","142","main_expt","",""
"","bandit","226","1272824","0.0-184.0-0.0","62240238","wem/bandit_party_1","A1UHNDB2EQ8TK0","either","7","217","","","","","","","0","0","1","0.2969419413","","0.2","0.4","0.6","0.8","","","","","0.08301142993","0.1546140226","0.2032880393","0.2969419413","","","","","","","","","","76","L","3","","","143","main_expt","",""
"","bandit","227","1274503","0.0-185.0-0.0","62240238","wem/bandit_party_1","A1UHNDB2EQ8TK0","either","7","102","","","","","","","1","0","0","0.3128690494","","0.2","0.4","0.6","0.8","","","","","0.09599686985","0.1746031107","0.1967741464","0.3128690494","","","","","","","","","","76","L","3","","","144","main_expt","",""
"","bandit","228","1276875","0.0-186.0-0.0","62240238","wem/bandit_party_1","A1UHNDB2EQ8TK0","either","7","161","","","","","","","0","0","1","","0.2991796355","0.2","0.4","0.6","0.8","0.07499383622","0.2021387556","0.2283154954","0.2991796355","","","","","","","","","","","","","","76","L","3","","","145","main_expt","",""
"","bandit","229","1335615","0.0-187.0-0.0","62240238","wem/bandit_party_1","A1UHNDB2EQ8TK0","either","7","57154","","","","","","","0","0","1","0.3163763193","","0.2","0.4","0.6","0.8","","","","","0.09566861","0.2504344391","0.2118700154","0.3163763193","","","","","","","","","","76","L","3","","","146","main_expt","",""
"","bandit","230","1338188","0.0-188.0-0.0","62240238","wem/bandit_party_1","A1UHNDB2EQ8TK0","either","7","1003","","","","","","","0","0","1","0.3198025905","","0.2","0.4","0.6","0.8","","","","","0.08578591382","0.2437718569","0.210437557","0.3198025905","","","","","","","","","","76","L","3","","","147","main_expt","",""
"","bandit","231","1346448","0.0-189.0-0.0","62240238","wem/bandit_party_1","A1UHNDB2EQ8TK0","either","7","6675","","","","","","","0","0","1","","0.1147887709","0.2","0.4","0.6","0.8","0.1147887709","0.2446677265","0.2370661354","0.2588245921","","","","","","","","","","","","","","72","H","0","img/none_selected.jpg","","148","main_expt","",""
"","bandit","232","1352316","0.0-190.0-0.0","62240238","wem/bandit_party_1","A1UHNDB2EQ8TK0","either","7","4321","","","","","","","1","0","0","0.2911002833","","0.2","0.4","0.6","0.8","","","","","0.1378203382","0.2911002833","0.2430363771","0.248712437","","","","","","","","","","74","J","1","","","149","main_expt","",""
"","bandit","233","1354756","0.0-191.0-0.0","62240238","wem/bandit_party_1","A1UHNDB2EQ8TK0","either","7","879","","","","","","","0","1","0","","0.3529655025","0.2","0.4","0.6","0.8","0.1414499273","0.3529655025","0.2242182381","0.179144869","","","","","","","","","","","","","","74","J","1","","","150","main_expt","",""
"","bandit","234","1356879","0.0-192.0-0.0","62240238","wem/bandit_party_1","A1UHNDB2EQ8TK0","either","7","526","","","","","","","0","1","0","","0.3885741111","0.2","0.4","0.6","0.8","0.07852348772","0.3885741111","0.1997145133","0.1545669956","","","","","","","","","","","","","","74","J","1","","","151","main_expt","",""
"","bandit","235","1358833","0.0-193.0-0.0","62240238","wem/bandit_party_1","A1UHNDB2EQ8TK0","either","7","398","","","","","","","0","0","1","0.3690499696","","0.2","0.4","0.6","0.8","","","","","0.08485793113","0.3690499696","0.2195927633","0.1651714415","","","","","","","","","","74","J","1","","","152","main_expt","",""
"","bandit","236","1360814","0.0-194.0-0.0","62240238","wem/bandit_party_1","A1UHNDB2EQ8TK0","either","7","409","","","","","","","1","0","0","0.3710492515","","0.2","0.4","0.6","0.8","","","","","0.1083789561","0.3710492515","0.2121816628","0.2396245514","","","","","","","","","","74","J","1","","","153","main_expt","",""
"","bandit","237","1362582","0.0-195.0-0.0","62240238","wem/bandit_party_1","A1UHNDB2EQ8TK0","either","7","196","","","","","","","0","1","0","","0.3483335413","0.2","0.4","0.6","0.8","0.109098481","0.3483335413","0.1830588608","0.2085838567","","","","","","","","","","","","","","74","J","1","","","154","main_expt","",""
"","bandit","238","1364474","0.0-196.0-0.0","62240238","wem/bandit_party_1","A1UHNDB2EQ8TK0","either","7","340","","","","","","","1","0","0","0.3343760247","","0.2","0.4","0.6","0.8","","","","","0.1758262092","0.3343760247","0.2031423662","0.1864274254","","","","","","","","","","74","J","1","","","155","main_expt","",""
"","bandit","239","1366013","0.0-197.0-0.0","62240238","wem/bandit_party_1","A1UHNDB2EQ8TK0","either","7","1","","","","","","","0","0","1","","0.3742013553","0.2","0.4","0.6","0.8","0.2046597001","0.3742013553","0.2022731065","0.1750870897","","","","","","","","","","","","","","74","J","1","","","156","main_expt","",""
"","bandit","240","1368366","0.0-198.0-0.0","62240238","wem/bandit_party_1","A1UHNDB2EQ8TK0","either","7","782","","","","","","","0","0","1","0.3620366094","","0.2","0.4","0.6","0.8","","","","","0.1774751899","0.3620366094","0.1826661219","0.1321985386","","","","","","","","","","74","J","1","","","157","main_expt","",""
"","bandit","241","1371299","0.0-199.0-0.0","62240238","wem/bandit_party_1","A1UHNDB2EQ8TK0","either","7","1378","","","","","","","0","1","0","","0.3671714071","0.2","0.4","0.6","0.8","0.1612033886","0.3671714071","0.1658993888","0.1341899746","","","","","","","","","","","","","","74","J","1","","","158","main_expt","",""
"","bandit","242","1373234","0.0-200.0-0.0","62240238","wem/bandit_party_1","A1UHNDB2EQ8TK0","either","7","389","","","","","","","1","0","0","0.4015988616","","0.2","0.4","0.6","0.8","","","","","0.1586838935","0.4015988616","0.1620079643","0.1567784951","","","","","","","","","","74","J","1","","","159","main_expt","",""
"","bandit","243","1375291","0.0-201.0-0.0","62240238","wem/bandit_party_1","A1UHNDB2EQ8TK0","either","7","522","","","","","","","0","1","0","","0.4004877553","0.2","0.4","0.6","0.8","0.2159944071","0.4004877553","0.2453635642","0.1615549635","","","","","","","","","","","","","","74","J","1","","","160","main_expt","",""
"","bandit","244","1377286","0.0-202.0-0.0","62240238","wem/bandit_party_1","A1UHNDB2EQ8TK0","either","7","408","","","","","","","0","0","1","","0.4095849454","0.2","0.4","0.6","0.8","0.2105769377","0.4095849454","0.2456373749","0.1854631015","","","","","","","","","","","","","","74","J","1","","","161","main_expt","",""
"","bandit","245","1379335","0.0-203.0-0.0","62240238","wem/bandit_party_1","A1UHNDB2EQ8TK0","either","7","427","","","","","","","0","0","1","0.3978002783","","0.2","0.4","0.6","0.8","","","","","0.2006925765","0.3978002783","0.2460125232","0.21229469","","","","","","","","","","74","J","1","","","162","main_expt","",""
"","bandit","246","1381831","0.0-204.0-0.0","62240238","wem/bandit_party_1","A1UHNDB2EQ8TK0","either","7","951","","","","","","","0","1","0","","0.4180552148","0.2","0.4","0.6","0.8","0.2365124807","0.4180552148","0.2013568893","0.162194177","","","","","","","","","","","","","","74","J","1","","","163","main_expt","",""
"","bandit","247","1383792","0.0-205.0-0.0","62240238","wem/bandit_party_1","A1UHNDB2EQ8TK0","either","7","402","","","","","","","0","0","1","0.4407560021","","0.2","0.4","0.6","0.8","","","","","0.2157370886","0.4407560021","0.1933595846","0.1535707797","","","","","","","","","","74","J","1","","","164","main_expt","",""
"","bandit","248","1386012","0.0-206.0-0.0","62240238","wem/bandit_party_1","A1UHNDB2EQ8TK0","either","7","640","","","","","","","1","0","0","0.4582960521","","0.2","0.4","0.6","0.8","","","","","0.2166787898","0.4582960521","0.167552211","0.2315934193","","","","","","","","","","74","J","1","","","165","main_expt","",""
"","bandit","249","1388254","0.0-207.0-0.0","62240238","wem/bandit_party_1","A1UHNDB2EQ8TK0","either","7","670","","","","","","","0","1","0","","0.4337500892","0.2","0.4","0.6","0.8","0.1846262972","0.4337500892","0.1311237951","0.2579087381","","","","","","","","","","","","","","74","J","1","","","166","main_expt","",""
"","bandit","250","1390405","0.0-208.0-0.0","62240238","wem/bandit_party_1","A1UHNDB2EQ8TK0","either","7","571","","","","","","","1","0","0","0.4537582576","","0.2","0.4","0.6","0.8","","","","","0.1888750078","0.4537582576","0.1714029316","0.2496457694","","","","","","","","","","74","J","1","","","167","main_expt","",""
"","bandit","251","1392355","0.0-209.0-0.0","62240238","wem/bandit_party_1","A1UHNDB2EQ8TK0","either","7","349","","","","","","","0","0","1","0.4473485534","","0.2","0.4","0.6","0.8","","","","","0.2315683769","0.4473485534","0.1494402723","0.234558796","","","","","","","","","","74","J","1","","","168","main_expt","",""
"","bandit","252","1394140","0.0-210.0-0.0","62240238","wem/bandit_party_1","A1UHNDB2EQ8TK0","either","7","182","","","","","","","0","1","0","","0.4471591033","0.2","0.4","0.6","0.8","0.2018123945","0.4471591033","0.1819888556","0.2458600006","","","","","","","","","","","","","","74","J","1","","","169","main_expt","",""
"","bandit","253","1395928","0.0-211.0-0.0","62240238","wem/bandit_party_1","A1UHNDB2EQ8TK0","either","7","219","","","","","","","1","0","0","0.4581839475","","0.2","0.4","0.6","0.8","","","","","0.139238222","0.4581839475","0.2329206984","0.2214583157","","","","","","","","","","74","J","1","","","170","main_expt","",""
"","bandit","254","1398003","0.0-212.0-0.0","62240238","wem/bandit_party_1","A1UHNDB2EQ8TK0","either","7","488","","","","","","","0","0","1","","0.4674995421","0.2","0.4","0.6","0.8","0.1466511374","0.4674995421","0.2000607923","0.296208115","","","","","","","","","","","","","","74","J","1","","","171","main_expt","",""
"","bandit","255","1400032","0.0-213.0-0.0","62240238","wem/bandit_party_1","A1UHNDB2EQ8TK0","either","7","470","","","","","","","0","0","1","0.4455620345","","0.2","0.4","0.6","0.8","","","","","0.1348290388","0.4455620345","0.2342957318","0.3062379281","","","","","","","","","","74","J","1","","","172","main_expt","",""
"","bandit","256","1402210","0.0-214.0-0.0","62240238","wem/bandit_party_1","A1UHNDB2EQ8TK0","either","7","570","","","","","","","1","0","0","0.4471610379","","0.2","0.4","0.6","0.8","","","","","0.1521691919","0.4471610379","0.2189308077","0.2498067723","","","","","","","","","","74","J","1","","","173","main_expt","",""
"","bandit","257","1404185","0.0-215.0-0.0","62240238","wem/bandit_party_1","A1UHNDB2EQ8TK0","either","7","391","","","","","","","1","0","0","0.4496576915","","0.2","0.4","0.6","0.8","","","","","0.2191935525","0.4496576915","0.2373932689","0.1803522277","","","","","","","","","","74","J","1","","","174","main_expt","",""
"","bandit","258","1406211","0.0-216.0-0.0","62240238","wem/bandit_party_1","A1UHNDB2EQ8TK0","either","7","445","","","","","","","0","0","1","","0.4715297358","0.2","0.4","0.6","0.8","0.219961305","0.4715297358","0.2160264752","0.2014319342","","","","","","","","","","","","","","74","J","1","","","175","main_expt","",""
"","bandit","259","1408136","0.0-217.0-0.0","62240238","wem/bandit_party_1","A1UHNDB2EQ8TK0","either","7","344","","","","","","","0","1","0","","0.477956151","0.2","0.4","0.6","0.8","0.1882485239","0.477956151","0.1990604306","0.2122003168","","","","","","","","","","","","","","74","J","1","","","176","main_expt","",""
"","bandit","260","1410458","0.0-218.0-0.0","62240238","wem/bandit_party_1","A1UHNDB2EQ8TK0","either","7","693","","","","","","","1","0","0","0.4563721206","","0.2","0.4","0.6","0.8","","","","","0.1644902553","0.4563721206","0.1729978196","0.2629069455","","","","","","","","","","74","J","1","","","177","main_expt","",""
"","bandit","261","1412026","0.0-219.0-0.0","62240238","wem/bandit_party_1","A1UHNDB2EQ8TK0","either","7","2","","","","","","","0","1","0","","0.4409869931","0.2","0.4","0.6","0.8","0.1713669852","0.4409869931","0.1633080779","0.2336104206","","","","","","","","","","","","","","74","J","1","","","178","main_expt","",""
"","bandit","262","1414072","0.0-220.0-0.0","62240238","wem/bandit_party_1","A1UHNDB2EQ8TK0","either","7","469","","","","","","","0","1","0","","0.4243126063","0.2","0.4","0.6","0.8","0.2263400462","0.4243126063","0.1243251356","0.1887504226","","","","","","","","","","","","","","74","J","1","","","179","main_expt","",""
"","bandit","263","1416634","0.0-221.0-0.0","62240238","wem/bandit_party_1","A1UHNDB2EQ8TK0","either","7","981","","","","","","","0","0","1","","0.4312830743","0.2","0.4","0.6","0.8","0.2036870175","0.4312830743","0.1150149055","0.138376641","","","","","","","","","","","","","","74","J","1","","","180","main_expt","",""
"","bandit","264","1418201","0.0-222.0-0.0","62240238","wem/bandit_party_1","A1UHNDB2EQ8TK0","either","7","0","","","","","","","0","0","1","","0.4433127893","0.2","0.4","0.6","0.8","0.1934599198","0.4433127893","0.1407924877","0.1883992559","","","","","","","","","","","","","","74","J","1","","","181","main_expt","",""
"","bandit","265","1419811","0.0-223.0-0.0","62240238","wem/bandit_party_1","A1UHNDB2EQ8TK0","either","7","42","","","","","","","0","0","1","","0.440136403","0.2","0.4","0.6","0.8","0.2424515525","0.440136403","0.09672650852","0.128889003","","","","","","","","","","","","","","74","J","1","","","182","main_expt","",""
"","bandit","266","1421437","0.0-224.0-0.0","62240238","wem/bandit_party_1","A1UHNDB2EQ8TK0","either","7","101","","","","","","","1","0","0","0.4347693449","","0.2","0.4","0.6","0.8","","","","","0.1961777535","0.4347693449","0.09888002855","0.1748769843","","","","","","","","","","74","J","1","","","183","main_expt","",""
"","bandit","267","1423074","0.0-225.0-0.0","62240238","wem/bandit_party_1","A1UHNDB2EQ8TK0","either","7","90","","","","","","","1","0","0","0.4277130926","","0.2","0.4","0.6","0.8","","","","","0.1489283113","0.4277130926","0.07200145298","0.1945994373","","","","","","","","","","74","J","1","","","184","main_expt","",""
"","bandit","268","1424743","0.0-226.0-0.0","62240238","wem/bandit_party_1","A1UHNDB2EQ8TK0","either","7","106","","","","","","","0","1","0","","0.3956248437","0.2","0.4","0.6","0.8","0.1499965078","0.3956248437","0.09476413333","0.1644748654","","","","","","","","","","","","","","74","J","1","","","185","main_expt","",""
"","bandit","269","1426617","0.0-227.0-0.0","62240238","wem/bandit_party_1","A1UHNDB2EQ8TK0","either","7","340","","","","","","","1","0","0","0.3748928266","","0.2","0.4","0.6","0.8","","","","","0.2169832988","0.3748928266","0.06556422103","0.1504635592","","","","","","","","","","74","J","1","","","186","main_expt","",""
"","bandit","270","1428351","0.0-228.0-0.0","62240238","wem/bandit_party_1","A1UHNDB2EQ8TK0","either","7","153","","","","","","","0","0","1","0.3848139325","","0.2","0.4","0.6","0.8","","","","","0.2655186329","0.3848139325","0.08901149072","0.1760039214","","","","","","","","","","74","J","1","","","187","main_expt","",""
"","bandit","271","1429935","0.0-229.0-0.0","62240238","wem/bandit_party_1","A1UHNDB2EQ8TK0","either","7","24","","","","","","","0","0","1","","0.3990176401","0.2","0.4","0.6","0.8","0.2738785118","0.3990176401","0.09471428588","0.1203267588","","","","","","","","","","","","","","74","J","1","","","188","main_expt","",""
"","bandit","272","1431552","0.0-230.0-0.0","62240238","wem/bandit_party_1","A1UHNDB2EQ8TK0","either","7","9","","","","","","","0","0","1","0.3581396838","","0.2","0.4","0.6","0.8","","","","","0.3041874674","0.3581396838","0.05118235823","0.1171540391","","","","","","","","","","74","J","1","","","189","main_expt","",""
"","bandit","273","1433130","0.0-231.0-0.0","62240238","wem/bandit_party_1","A1UHNDB2EQ8TK0","either","7","7","","","","","","","0","0","1","0.2882972244","","0.2","0.4","0.6","0.8","","","","","0.3229453735","0.2882972244","0.05788318751","0.1535230761","","","","","","","","","","74","J","1","","","190","main_expt","",""
"","bandit","274","1434706","0.0-232.0-0.0","62240238","wem/bandit_party_1","A1UHNDB2EQ8TK0","either","7","2","","","","","","","0","1","0","","0.3145326233","0.2","0.4","0.6","0.8","0.3818249757","0.3145326233","0.08736915481","0.1372750947","","","","","","","","","","","","","","74","J","1","","","191","main_expt","",""
"","bandit","275","1447864","0.0-233.0-0.0","62240238","wem/bandit_party_1","A1UHNDB2EQ8TK0","either","7","11623","","","","","","","0","0","1","","0.08251019118","0.2","0.4","0.6","0.8","0.4157726243","0.3270603702","0.08251019118","0.1047771501","","","","","","","","","","","","","","75","K","2","","","192","main_expt","",""
"","bandit","276","1449765","0.0-234.0-0.0","62240238","wem/bandit_party_1","A1UHNDB2EQ8TK0","either","7","351","","","","","","","0","0","1","0.06897628064","","0.2","0.4","0.6","0.8","","","","","0.4611608212","0.3604030797","0.06897628064","0.1100845432","","","","","","","","","","75","K","2","","","193","main_expt","",""
"","bandit","277","1451467","0.0-235.0-0.0","62240238","wem/bandit_party_1","A1UHNDB2EQ8TK0","either","7","167","","","","","","","1","0","0","0.06801266305","","0.2","0.4","0.6","0.8","","","","","0.4508818777","0.357423186","0.06801266305","0.1468163818","","","","","","","","","","75","K","2","","","194","main_expt","",""
"","bandit","278","1453203","0.0-236.0-0.0","62240238","wem/bandit_party_1","A1UHNDB2EQ8TK0","either","7","182","","","","","","","0","0","1","0.09923709358","","0.2","0.4","0.6","0.8","","","","","0.4278921451","0.3697779856","0.09923709358","0.1495594621","","","","","","","","","","75","K","2","","","195","main_expt","",""
"","bandit","279","1454830","0.0-237.0-0.0","62240238","wem/bandit_party_1","A1UHNDB2EQ8TK0","either","7","20","","","","","","","0","1","0","","0.1103063831","0.2","0.4","0.6","0.8","0.4256293003","0.3617177512","0.1103063831","0.2263220537","","","","","","","","","","","","","","75","K","2","","","196","main_expt","",""
"","bandit","280","1456544","0.0-238.0-0.0","62240238","wem/bandit_party_1","A1UHNDB2EQ8TK0","either","7","167","","","","","","","0","0","1","0.07377144043","","0.2","0.4","0.6","0.8","","","","","0.4476975038","0.3775990084","0.07377144043","0.2204718804","","","","","","","","","","75","K","2","","","197","main_expt","",""
"","bandit","281","1458281","0.0-239.0-0.0","62240238","wem/bandit_party_1","A1UHNDB2EQ8TK0","either","7","178","","","","","","","1","0","0","0.2401118457","","0.2","0.4","0.6","0.8","","","","","0.4434357272","0.4144042571","0.08863448313","0.2401118457","","","","","","","","","","76","L","3","","","198","main_expt","",""
"","bandit","282","1460453","0.0-240.0-0.0","62240238","wem/bandit_party_1","A1UHNDB2EQ8TK0","either","7","574","","","","","","","0","0","1","0.2673724497","","0.2","0.4","0.6","0.8","","","","","0.4245114622","0.4081775392","0.1082179128","0.2673724497","","","","","","","","","","76","L","3","","","199","main_expt","",""
"","bandit","283","1462614","0.0-241.0-0.0","62240238","wem/bandit_party_1","A1UHNDB2EQ8TK0","either","7","517","","","","","","","0","0","1","0.3125307902","","0.2","0.4","0.6","0.8","","","","","0.4087100315","0.4166156547","0.09350688576","0.3125307902","","","","","","","","","","76","L","3","","","200","main_expt","",""
"","bandit","284","1464771","0.0-242.0-0.0","62240238","wem/bandit_party_1","A1UHNDB2EQ8TK0","either","7","600","","","","","","","0","0","1","","0.4306537176","0.2","0.4","0.6","0.8","0.4361521275","0.4306537176","0.1036625099","0.2914574258","","","","","","","","","","","","","","74","J","1","","","201","main_expt","",""
"","bandit","285","1521091","0.0-243.0-0.0","62240238","wem/bandit_party_1","A1UHNDB2EQ8TK0","either","7","54765","","","","","","","0","0","1","","0.449382563","0.2","0.4","0.6","0.8","0.3332596158","0.449382563","0.1216733889","0.2550600684","","","","","","","","","","","","","","74","J","1","","","202","main_expt","",""
"","bandit","286","1523334","0.0-244.0-0.0","62240238","wem/bandit_party_1","A1UHNDB2EQ8TK0","either","7","649","","","","","","","0","1","0","","0.4506576586","0.2","0.4","0.6","0.8","0.3581848779","0.4506576586","0.120655788","0.2769745997","","","","","","","","","","","","","","74","J","1","","","203","main_expt","",""
"","bandit","287","1525284","0.0-245.0-0.0","62240238","wem/bandit_party_1","A1UHNDB2EQ8TK0","either","7","399","","","","","","","1","0","0","0.454839243","","0.2","0.4","0.6","0.8","","","","","0.3597133043","0.454839243","0.1082970726","0.2752990059","","","","","","","","","","74","J","1","","","204","main_expt","",""
"","bandit","288","1527122","0.0-246.0-0.0","62240238","wem/bandit_party_1","A1UHNDB2EQ8TK0","either","7","298","","","","","","","1","0","0","0.4512889682","","0.2","0.4","0.6","0.8","","","","","0.3630183988","0.4512889682","0.09143681274","0.2901512169","","","","","","","","","","74","J","1","","","205","main_expt","",""
"","bandit","289","1529556","0.0-247.0-0.0","62240238","wem/bandit_party_1","A1UHNDB2EQ8TK0","either","7","832","","","","","","","0","1","0","","0.4591490044","0.2","0.4","0.6","0.8","0.3737494834","0.4591490044","0.08377413986","0.2823763913","","","","","","","","","","","","","","74","J","1","","","206","main_expt","",""
"","bandit","290","1531297","0.0-248.0-0.0","62240238","wem/bandit_party_1","A1UHNDB2EQ8TK0","either","7","178","","","","","","","0","0","1","","0.4650593633","0.2","0.4","0.6","0.8","0.3668784438","0.4650593633","0.1585073664","0.2708062506","","","","","","","","","","","","","","74","J","1","","","207","main_expt","",""
"","bandit","291","1533240","0.0-249.0-0.0","62240238","wem/bandit_party_1","A1UHNDB2EQ8TK0","either","7","399","","","","","","","0","0","1","0.4641513068","","0.2","0.4","0.6","0.8","","","","","0.4045351895","0.4641513068","0.162299901","0.2641553663","","","","","","","","","","74","J","1","","","208","main_expt","",""
"","bandit","292","1575997","0.0-250.0-0.0","62240238","wem/bandit_party_1","A1UHNDB2EQ8TK0","either","7","41062","","","","","","","0","0","1","0.4567807332","","0.2","0.4","0.6","0.8","","","","","0.4402386934","0.4567807332","0.1542266077","0.2704675845","","","","","","","","","","74","J","1","","","209","main_expt","",""
"","bandit","293","1578313","0.0-251.0-0.0","62240238","wem/bandit_party_1","A1UHNDB2EQ8TK0","either","7","631","","","","","","","1","0","0","0.1890415559","","0.2","0.4","0.6","0.8","","","","","0.4483623408","0.428253188","0.1890415559","0.3420868926","","","","","","","","","","75","K","2","","","210","main_expt","",""
"","bandit","294","1580039","0.0-252.0-0.0","62240238","wem/bandit_party_1","A1UHNDB2EQ8TK0","either","7","107","","","","","","","0","0","1","0.3069688952","","0.2","0.4","0.6","0.8","","","","","0.4471415093","0.410271385","0.1818133019","0.3069688952","","","","","","","","","","76","L","3","","","211","main_expt","",""
"","bandit","295","1582078","0.0-253.0-0.0","62240238","wem/bandit_party_1","A1UHNDB2EQ8TK0","either","7","484","","","","","","","0","0","1","0.4374655127","","0.2","0.4","0.6","0.8","","","","","0.4374655127","0.4065587724","0.1782747956","0.3005379093","","","","","","","","","","72","H","0","img/none_selected.jpg","","212","main_expt","",""
"","bandit","296","1583724","0.0-254.0-0.0","62240238","wem/bandit_party_1","A1UHNDB2EQ8TK0","either","7","87","","","","","","","1","0","0","0.4007116542","","0.2","0.4","0.6","0.8","","","","","0.4381457257","0.4007116542","0.1935195711","0.213882915","","","","","","","","","","74","J","1","","","213","main_expt","",""
"","bandit","297","1585736","0.0-255.0-0.0","62240238","wem/bandit_party_1","A1UHNDB2EQ8TK0","either","7","466","","","","","","","0","0","1","0.4246209323","","0.2","0.4","0.6","0.8","","","","","0.4643769008","0.4246209323","0.2421176173","0.2138557204","","","","","","","","","","74","J","1","","","214","main_expt","",""
"","bandit","298","1587548","0.0-256.0-0.0","62240238","wem/bandit_party_1","A1UHNDB2EQ8TK0","either","7","269","","","","","","","0","0","1","0.2629876012","","0.2","0.4","0.6","0.8","","","","","0.4328812357","0.3993057066","0.2629876012","0.2142566612","","","","","","","","","","75","K","2","","","215","main_expt","",""
"","bandit","299","1589508","0.0-257.0-0.0","62240238","wem/bandit_party_1","A1UHNDB2EQ8TK0","either","7","423","","","","","","","0","0","1","","0.2977714141","0.2","0.4","0.6","0.8","0.4064507999","0.3987772474","0.2977714141","0.1900351118","","","","","","","","","","","","","","75","K","2","","","216","main_expt","",""
"","bandit","300","1591605","0.0-258.0-0.0","62240238","wem/bandit_party_1","A1UHNDB2EQ8TK0","either","7","556","","","","","","","0","0","1","","0.3017601552","0.2","0.4","0.6","0.8","0.4197961641","0.4101433534","0.3017601552","0.2185169477","","","","","","","","","","","","","","75","K","2","","","217","main_expt","",""
"","bandit","301","1593200","0.0-259.0-0.0","62240238","wem/bandit_party_1","A1UHNDB2EQ8TK0","either","7","32","","","","","","","0","0","1","","0.2888566207","0.2","0.4","0.6","0.8","0.4167397569","0.4448029092","0.2888566207","0.2240895604","","","","","","","","","","","","","","75","K","2","","","218","main_expt","",""
"","bandit","302","1595865","0.0-260.0-0.0","62240238","wem/bandit_party_1","A1UHNDB2EQ8TK0","either","7","336","","","","","","","1","0","0","0.2844008008","","0.2","0.4","0.6","0.8","","","","","0.4250944588","0.4454766299","0.2844008008","0.1990808675","","","","","","","","","","75","K","2","","","219","main_expt","",""
"","bandit","303","1613505","0.0-261.0-0.0","62240238","wem/bandit_party_1","A1UHNDB2EQ8TK0","either","7","16078","","","","","","","0","0","1","","0.4610997771","0.2","0.4","0.6","0.8","0.4173336587","0.4610997771","0.2225062479","0.266602996","","","","","","","","","","","","","","74","J","1","","","220","main_expt","",""
"","bandit","304","1615540","0.0-262.0-0.0","62240238","wem/bandit_party_1","A1UHNDB2EQ8TK0","either","7","489","","","","","","","0","0","1","0.2409900116","","0.2","0.4","0.6","0.8","","","","","0.3944711005","0.4642289789","0.2409900116","0.2443661227","","","","","","","","","","75","K","2","","","221","main_expt","",""
"","bandit","305","1618069","0.0-263.0-0.0","62240238","wem/bandit_party_1","A1UHNDB2EQ8TK0","either","7","842","","","","","","","0","0","1","0.4641270597","","0.2","0.4","0.6","0.8","","","","","0.3619306912","0.4641270597","0.1989678636","0.2205922116","","","","","","","","","","74","J","1","","","222","main_expt","",""
"","bandit","306","1619833","0.0-264.0-0.0","62240238","wem/bandit_party_1","A1UHNDB2EQ8TK0","either","7","206","","","","","","","0","0","1","","0.1902867071","0.2","0.4","0.6","0.8","0.4117842179","0.4697433819","0.1902867071","0.1861223506","","","","","","","","","","","","","","75","K","2","","","223","main_expt","",""
"","bandit","307","1622037","0.0-265.0-0.0","62240238","wem/bandit_party_1","A1UHNDB2EQ8TK0","either","7","641","","","","","","","0","0","1","0.2076415522","","0.2","0.4","0.6","0.8","","","","","0.3965092367","0.460898083","0.2076415522","0.1668884863","","","","","","","","","","75","K","2","","","224","main_expt","",""
"","bandit","308","1623941","0.0-266.0-0.0","62240238","wem/bandit_party_1","A1UHNDB2EQ8TK0","either","7","370","","","","","","","0","0","1","","0.4394890665","0.2","0.4","0.6","0.8","0.4084477862","0.4394890665","0.2393469174","0.1481472712","","","","","","","","","","","","","","74","J","1","","","225","main_expt","",""
"","bandit","309","1626009","0.0-267.0-0.0","62240238","wem/bandit_party_1","A1UHNDB2EQ8TK0","either","7","494","","","","","","","0","0","1","0.4520955237","","0.2","0.4","0.6","0.8","","","","","0.4104601526","0.4520955237","0.2425440376","0.1140846591","","","","","","","","","","74","J","1","","","226","main_expt","",""
"","bandit","310","1627594","0.0-268.0-0.0","62240238","wem/bandit_party_1","A1UHNDB2EQ8TK0","either","7","40","","","","","","","0","0","1","0.4324220164","","0.2","0.4","0.6","0.8","","","","","0.3899733519","0.4324220164","0.2365603363","0.1074218354","","","","","","","","","","74","J","1","","","227","main_expt","",""
"","bandit","311","1629507","0.0-269.0-0.0","62240238","wem/bandit_party_1","A1UHNDB2EQ8TK0","either","7","381","","","","","","","0","0","1","","0.4220482421","0.2","0.4","0.6","0.8","0.3796730737","0.4220482421","0.2127958296","0.08065165665","","","","","","","","","","","","","","74","J","1","","","228","main_expt","",""
"","bandit","312","1631406","0.0-270.0-0.0","62240238","wem/bandit_party_1","A1UHNDB2EQ8TK0","either","7","300","","","","","","","0","0","1","","0.3885749154","0.2","0.4","0.6","0.8","0.4046866514","0.3885749154","0.2207861463","0.07774059362","","","","","","","","","","","","","","74","J","1","","","229","main_expt","",""
"","bandit","313","1634110","0.0-271.0-0.0","62240238","wem/bandit_party_1","A1UHNDB2EQ8TK0","either","7","1161","","","","","","","0","0","1","","0.4023755806","0.2","0.4","0.6","0.8","0.3988793555","0.4023755806","0.2589226453","0.1109483114","","","","","","","","","","","","","","74","J","1","","","230","main_expt","",""
"","bandit","314","1636396","0.0-272.0-0.0","62240238","wem/bandit_party_1","A1UHNDB2EQ8TK0","either","7","688","","","","","","","0","0","1","0.3768725222","","0.2","0.4","0.6","0.8","","","","","0.3981898202","0.3768725222","0.2956158432","0.05902300203","","","","","","","","","","74","J","1","","","231","main_expt","",""
"","bandit","315","1638343","0.0-273.0-0.0","62240238","wem/bandit_party_1","A1UHNDB2EQ8TK0","either","7","363","","","","","","","0","0","1","","0.3202484073","0.2","0.4","0.6","0.8","0.4411941832","0.3619917427","0.3202484073","0.06675855664","","","","","","","","","","","","","","75","K","2","","","232","main_expt","",""
