"consent","trial_type","trial_index","time_elapsed","internal_node_id","subjID","study","MID","cond","drift","rt","responses","button_pressed","key_press","like","value","connected","gems","bombs","no_reward","GemPrChosen","BombPrChosen","GainOverPainPr_0","GainOverPainPr_1","GainOverPainPr_2","GainOverPainPr_3","LosePr_0","LosePr_1","LosePr_2","LosePr_3","WinPr_0","WinPr_1","WinPr_2","WinPr_3","Q0","Q1","Q2","gender","age","ethnicity","label","expt_phase","target","respCharCode","respKey","respChoiceNum","respChoice","practice","trial_counter","trial_label","Q0_index","view_history"
"GDM/GDM_behavioral_consent_30min_online.html","consent","0","108482","0.0-0.0","64191008","wem/bandit_party_1","A2H6RIWM50KWA4","either","5","","","","","","","","","","","","","","","","","","","","","","","","","","","","","","","","","","","","","","","","","",""
"","survey-text","1","114793","0.0-1.0","64191008","wem/bandit_party_1","A2H6RIWM50KWA4","either","5","5306","{""Q0"":""A2H6RIWM50KWA4""}","","","","","","","","","","","","","","","","","","","","","","","","","","","","","","","","","","","","","","","",""
"","button-response","2","118047","0.0-2.0","64191008","wem/bandit_party_1","A2H6RIWM50KWA4","either","5","2250","","1","","","","","","","","","","","","","","","","","","","","","","","","","","","","","","","","","","","","","","",""
"","text-replacement","3","131057","0.0-3.0","64191008","wem/bandit_party_1","A2H6RIWM50KWA4","either","5","12007","","","32","","","","","","","","","","","","","","","","","","","","","","","","","","","","","","","","","","","","","",""
"","text-replacement","4","141696","0.0-4.0","64191008","wem/bandit_party_1","A2H6RIWM50KWA4","either","5","10638","","","32","","","","","","","","","","","","","","","","","","","","","","","","","","","","","","","","","","","","","",""
"","identification","5","149713","0.0-6.0-0.0","64191008","wem/bandit_party_1","A2H6RIWM50KWA4","either","5","8005","","","","0","0","0","","","","","","","","","","","","","","","","","","","","","","","","pre","identification_pre","the Republican party","","","","","","","","",""
"","identification","6","155184","0.0-6.0-1.0","64191008","wem/bandit_party_1","A2H6RIWM50KWA4","either","5","4461","","","","6","6","6","","","","","","","","","","","","","","","","","","","","","","","","pre","identification_pre","the Democratic Party","","","","","","","","",""
"","text-replacement","7","171464","0.0-7.0","64191008","wem/bandit_party_1","A2H6RIWM50KWA4","either","5","15280","","","32","","","","","","","","","","","","","","","","","","","","","","","","","","","","","","","","","","","","","",""
"","text-replacement","8","179418","0.0-8.0","64191008","wem/bandit_party_1","A2H6RIWM50KWA4","either","5","7952","","","32","","","","","","","","","","","","","","","","","","","","","","","","","","","","","","","","","","","","","",""
"","text-replacement","9","190313","0.0-9.0","64191008","wem/bandit_party_1","A2H6RIWM50KWA4","either","5","10893","","","32","","","","","","","","","","","","","","","","","","","","","","","","","","","","","","","","","","","","","",""
"","text-replacement","10","195809","0.0-10.0","64191008","wem/bandit_party_1","A2H6RIWM50KWA4","either","5","5494","","","32","","","","","","","","","","","","","","","","","","","","","","","","","","","","","","","","","","","","","",""
"","text-replacement","11","202713","0.0-11.0","64191008","wem/bandit_party_1","A2H6RIWM50KWA4","either","5","6903","","","32","","","","","","","","","","","","","","","","","","","","","","","","","","","","","","","","","","","","","",""
"","bandit","12","209268","0.0-12.0-0.0","64191008","wem/bandit_party_1","A2H6RIWM50KWA4","either","5","5052","","","","","","","0","0","1","0","0","","","","","0","","","","0","","","","","","","","","","","","","74","J","0","img/none_selected_demo.jpg","true","0","","",""
"","bandit","13","211940","0.0-13.0-0.0","64191008","wem/bandit_party_1","A2H6RIWM50KWA4","either","5","1169","","","","","","","0","0","1","0","0","","","","","0","","","","0","","","","","","","","","","","","","75","K","0","img/none_selected_demo.jpg","true","0","","",""
"","text-replacement","14","218209","0.0-14.0","64191008","wem/bandit_party_1","A2H6RIWM50KWA4","either","5","6268","","","32","","","","","","","","","","","","","","","","","","","","","","","","","","","","","","","","","","","","","",""
"","text-replacement","15","223128","0.0-15.0","64191008","wem/bandit_party_1","A2H6RIWM50KWA4","either","5","4917","","","32","","","","","","","","","","","","","","","","","","","","","","","","","","","","","","","","","","","","","",""
"","text-replacement","16","232432","0.0-16.0","64191008","wem/bandit_party_1","A2H6RIWM50KWA4","either","5","9303","","","32","","","","","","","","","","","","","","","","","","","","","","","","","","","","","","","","","","","","","",""
"","text-replacement","17","236223","0.0-17.0","64191008","wem/bandit_party_1","A2H6RIWM50KWA4","either","5","3790","","","32","","","","","","","","","","","","","","","","","","","","","","","","","","","","","","","","","","","","","",""
"","bandit","18","239411","0.0-18.0-0.0","64191008","wem/bandit_party_1","A2H6RIWM50KWA4","either","5","1686","","","","","","","0","0","1","","0.2","0.5","0.5","","","0.8","0.2","","","","","","","","","","","","","","","","75","K","1","","true","0","80_20_practice","",""
"","bandit","19","243299","0.0-18.0-1.0","64191008","wem/bandit_party_1","A2H6RIWM50KWA4","either","5","2384","","","","","","","1","0","0","0.2","","0.5","0.5","","","","","","","0.8","0.2","","","","","","","","","","","","75","K","1","","true","0","80_20_practice","",""
"","bandit","20","245996","0.0-18.0-2.0","64191008","wem/bandit_party_1","A2H6RIWM50KWA4","either","5","1194","","","","","","","0","0","1","","0.2","0.5","0.5","","","0.8","0.2","","","","","","","","","","","","","","","","75","K","1","","true","0","80_20_practice","",""
"","bandit","21","248603","0.0-18.0-3.0","64191008","wem/bandit_party_1","A2H6RIWM50KWA4","either","5","1104","","","","","","","0","1","0","","0.8","0.5","0.5","","","0.8","0.2","","","","","","","","","","","","","","","","74","J","0","img/none_selected_demo.jpg","true","0","80_20_practice","",""
"","bandit","22","251803","0.0-18.0-4.0","64191008","wem/bandit_party_1","A2H6RIWM50KWA4","either","5","1698","","","","","","","0","1","0","","0.8","0.5","0.5","","","0.8","0.2","","","","","","","","","","","","","","","","74","J","0","img/none_selected_demo.jpg","true","0","80_20_practice","",""
"","bandit","23","254475","0.0-18.0-5.0","64191008","wem/bandit_party_1","A2H6RIWM50KWA4","either","5","1170","","","","","","","0","0","1","","0.2","0.5","0.5","","","0.8","0.2","","","","","","","","","","","","","","","","75","K","1","","true","0","80_20_practice","",""
"","bandit","24","256701","0.0-18.0-6.0","64191008","wem/bandit_party_1","A2H6RIWM50KWA4","either","5","723","","","","","","","0","0","1","","0.8","0.5","0.5","","","0.8","0.2","","","","","","","","","","","","","","","","74","J","0","img/none_selected_demo.jpg","true","0","80_20_practice","",""
"","bandit","25","258819","0.0-18.0-7.0","64191008","wem/bandit_party_1","A2H6RIWM50KWA4","either","5","616","","","","","","","0","0","1","","0.8","0.5","0.5","","","0.8","0.2","","","","","","","","","","","","","","","","74","J","0","img/none_selected_demo.jpg","true","0","80_20_practice","",""
"","bandit","26","261283","0.0-18.0-8.0","64191008","wem/bandit_party_1","A2H6RIWM50KWA4","either","5","961","","","","","","","1","0","0","0.8","","0.5","0.5","","","","","","","0.8","0.2","","","","","","","","","","","","74","J","0","img/none_selected_demo.jpg","true","0","80_20_practice","",""
"","bandit","27","263211","0.0-18.0-9.0","64191008","wem/bandit_party_1","A2H6RIWM50KWA4","either","5","424","","","","","","","0","1","0","","0.2","0.5","0.5","","","0.8","0.2","","","","","","","","","","","","","","","","75","K","1","","true","0","80_20_practice","",""
"","bandit","28","265709","0.0-18.0-10.0","64191008","wem/bandit_party_1","A2H6RIWM50KWA4","either","5","993","","","","","","","1","0","0","0.8","","0.5","0.5","","","","","","","0.8","0.2","","","","","","","","","","","","74","J","0","img/none_selected_demo.jpg","true","0","80_20_practice","",""
"","bandit","29","267964","0.0-18.0-11.0","64191008","wem/bandit_party_1","A2H6RIWM50KWA4","either","5","754","","","","","","","1","0","0","0.2","","0.5","0.5","","","","","","","0.8","0.2","","","","","","","","","","","","75","K","1","","true","0","80_20_practice","",""
"","bandit","30","269931","0.0-18.0-12.0","64191008","wem/bandit_party_1","A2H6RIWM50KWA4","either","5","465","","","","","","","0","0","1","0.8","","0.5","0.5","","","","","","","0.8","0.2","","","","","","","","","","","","74","J","0","img/none_selected_demo.jpg","true","0","80_20_practice","",""
"","bandit","31","271787","0.0-18.0-13.0","64191008","wem/bandit_party_1","A2H6RIWM50KWA4","either","5","354","","","","","","","0","0","1","","0.8","0.5","0.5","","","0.8","0.2","","","","","","","","","","","","","","","","74","J","0","img/none_selected_demo.jpg","true","0","80_20_practice","",""
"","bandit","32","273675","0.0-18.0-14.0","64191008","wem/bandit_party_1","A2H6RIWM50KWA4","either","5","386","","","","","","","1","0","0","0.2","","0.5","0.5","","","","","","","0.8","0.2","","","","","","","","","","","","75","K","1","","true","0","80_20_practice","",""
"","bandit","33","275516","0.0-18.0-15.0","64191008","wem/bandit_party_1","A2H6RIWM50KWA4","either","5","338","","","","","","","0","0","1","","0.2","0.5","0.5","","","0.8","0.2","","","","","","","","","","","","","","","","75","K","1","","true","0","80_20_practice","",""
"","bandit","34","277363","0.0-18.0-16.0","64191008","wem/bandit_party_1","A2H6RIWM50KWA4","either","5","345","","","","","","","0","1","0","","0.8","0.5","0.5","","","0.8","0.2","","","","","","","","","","","","","","","","74","J","0","img/none_selected_demo.jpg","true","0","80_20_practice","",""
"","bandit","35","279508","0.0-18.0-17.0","64191008","wem/bandit_party_1","A2H6RIWM50KWA4","either","5","642","","","","","","","1","0","0","0.8","","0.5","0.5","","","","","","","0.8","0.2","","","","","","","","","","","","74","J","0","img/none_selected_demo.jpg","true","0","80_20_practice","",""
"","bandit","36","281403","0.0-18.0-18.0","64191008","wem/bandit_party_1","A2H6RIWM50KWA4","either","5","391","","","","","","","0","1","0","","0.8","0.5","0.5","","","0.8","0.2","","","","","","","","","","","","","","","","74","J","0","img/none_selected_demo.jpg","true","0","80_20_practice","",""
"","bandit","37","283539","0.0-18.0-19.0","64191008","wem/bandit_party_1","A2H6RIWM50KWA4","either","5","633","","","","","","","1","0","0","0.8","","0.5","0.5","","","","","","","0.8","0.2","","","","","","","","","","","","74","J","0","img/none_selected_demo.jpg","true","0","80_20_practice","",""
"","text-replacement","38","291016","0.0-19.0","64191008","wem/bandit_party_1","A2H6RIWM50KWA4","either","5","7474","","","32","","","","","","","","","","","","","","","","","","","","","","","","","","","","","","","","","","","","","",""
"","bandit","39","295661","0.0-20.0-0.0","64191008","wem/bandit_party_1","A2H6RIWM50KWA4","either","5","3141","","","","","","","1","0","0","1","0","","","","","0","1","","","1","0","","","","","","","","","","","","74","J","0","img/none_selected_demo.jpg","true","0","","",""
"","text-replacement","40","304449","0.0-21.0","64191008","wem/bandit_party_1","A2H6RIWM50KWA4","either","5","8786","","","32","","","","","","","","","","","","","","","","","","","","","","","","","","","","","","","","","","","","","",""
"","text-replacement","41","307288","0.0-22.0","64191008","wem/bandit_party_1","A2H6RIWM50KWA4","either","5","2838","","","32","","","","","","","","","","","","","","","","","","","","","","","","","","","","","","","","","","","","","",""
"","text-replacement","42","310160","0.0-23.0","64191008","wem/bandit_party_1","A2H6RIWM50KWA4","either","5","2871","","","32","","","","","","","","","","","","","","","","","","","","","","","","","","","","","","","","","","","","","",""
"","text-replacement","43","313640","0.0-24.0","64191008","wem/bandit_party_1","A2H6RIWM50KWA4","either","5","3478","","","32","","","","","","","","","","","","","","","","","","","","","","","","","","","","","","","","","","","","","",""
"","text-replacement","44","323793","0.0-25.0","64191008","wem/bandit_party_1","A2H6RIWM50KWA4","either","5","10152","","","32","","","","","","","","","","","","","","","","","","","","","","","","","","","","","","","","","","","","","",""
"","text-replacement","45","329008","0.0-26.0","64191008","wem/bandit_party_1","A2H6RIWM50KWA4","either","5","5213","","","32","","","","","","","","","","","","","","","","","","","","","","","","","","","","","","","","","","","","","",""
"","text-replacement","46","334521","0.0-27.0","64191008","wem/bandit_party_1","A2H6RIWM50KWA4","either","5","5511","","","32","","","","","","","","","","","","","","","","","","","","","","","","","","","","","","","","","","","","","",""
"","text-replacement","47","339712","0.0-28.0","64191008","wem/bandit_party_1","A2H6RIWM50KWA4","either","5","5190","","","32","","","","","","","","","","","","","","","","","","","","","","","","","","","","","","","","","","","","","",""
"","text-replacement","48","345201","0.0-29.0","64191008","wem/bandit_party_1","A2H6RIWM50KWA4","either","5","5487","","","32","","","","","","","","","","","","","","","","","","","","","","","","","","","","","","","","","","","","","",""
"","text-replacement","49","349544","0.0-30.0","64191008","wem/bandit_party_1","A2H6RIWM50KWA4","either","5","4341","","","32","","","","","","","","","","","","","","","","","","","","","","","","","","","","","","","","","","","","","",""
"","text-replacement","50","352736","0.0-31.0","64191008","wem/bandit_party_1","A2H6RIWM50KWA4","either","5","3190","","","32","","","","","","","","","","","","","","","","","","","","","","","","","","","","","","","","","","","","","",""
"","bandit","51","357292","0.0-32.0-0.0","64191008","wem/bandit_party_1","A2H6RIWM50KWA4","either","5","3054","","","","","","","0","0","1","","0.8","0.5","0.5","0.5","0.5","0.8","0.2","0.6","0.2","","","","","","","","","","","","","","72","H","0","img/none_selected.jpg","true","0","full_practice","",""
"","bandit","52","360163","0.0-32.0-1.0","64191008","wem/bandit_party_1","A2H6RIWM50KWA4","either","5","1368","","","","","","","0","0","1","0.2","","0.5","0.5","0.5","0.5","","","","","0.8","0.2","0.6","0.2","","","","","","","","","","76","L","3","","true","0","full_practice","",""
"","bandit","53","362139","0.0-32.0-2.0","64191008","wem/bandit_party_1","A2H6RIWM50KWA4","either","5","473","","","","","","","0","0","1","","0.2","0.5","0.5","0.5","0.5","0.8","0.2","0.6","0.2","","","","","","","","","","","","","","74","J","1","","true","0","full_practice","",""
"","bandit","54","364403","0.0-32.0-3.0","64191008","wem/bandit_party_1","A2H6RIWM50KWA4","either","5","761","","","","","","","0","1","0","","0.6","0.5","0.5","0.5","0.5","0.8","0.2","0.6","0.2","","","","","","","","","","","","","","75","K","2","","true","0","full_practice","",""
"","bandit","55","366851","0.0-32.0-4.0","64191008","wem/bandit_party_1","A2H6RIWM50KWA4","either","5","944","","","","","","","1","0","0","0.6","","0.5","0.5","0.5","0.5","","","","","0.8","0.2","0.6","0.2","","","","","","","","","","75","K","2","","true","0","full_practice","",""
"","bandit","56","369396","0.0-32.0-5.0","64191008","wem/bandit_party_1","A2H6RIWM50KWA4","either","5","1041","","","","","","","0","0","1","0.2","","0.5","0.5","0.5","0.5","","","","","0.8","0.2","0.6","0.2","","","","","","","","","","74","J","1","","true","0","full_practice","",""
"","bandit","57","371331","0.0-32.0-6.0","64191008","wem/bandit_party_1","A2H6RIWM50KWA4","either","5","431","","","","","","","1","0","0","0.6","","0.5","0.5","0.5","0.5","","","","","0.8","0.2","0.6","0.2","","","","","","","","","","75","K","2","","true","0","full_practice","",""
"","bandit","58","373516","0.0-32.0-7.0","64191008","wem/bandit_party_1","A2H6RIWM50KWA4","either","5","681","","","","","","","1","0","0","0.6","","0.5","0.5","0.5","0.5","","","","","0.8","0.2","0.6","0.2","","","","","","","","","","75","K","2","","true","0","full_practice","",""
"","bandit","59","376291","0.0-32.0-8.0","64191008","wem/bandit_party_1","A2H6RIWM50KWA4","either","5","1272","","","","","","","0","0","1","0.2","","0.5","0.5","0.5","0.5","","","","","0.8","0.2","0.6","0.2","","","","","","","","","","76","L","3","","true","0","full_practice","",""
"","bandit","60","378355","0.0-32.0-9.0","64191008","wem/bandit_party_1","A2H6RIWM50KWA4","either","5","561","","","","","","","0","1","0","","0.6","0.5","0.5","0.5","0.5","0.8","0.2","0.6","0.2","","","","","","","","","","","","","","75","K","2","","true","0","full_practice","",""
"","bandit","61","380420","0.0-32.0-10.0","64191008","wem/bandit_party_1","A2H6RIWM50KWA4","either","5","561","","","","","","","1","0","0","0.6","","0.5","0.5","0.5","0.5","","","","","0.8","0.2","0.6","0.2","","","","","","","","","","75","K","2","","true","0","full_practice","",""
"","bandit","62","382356","0.0-32.0-11.0","64191008","wem/bandit_party_1","A2H6RIWM50KWA4","either","5","432","","","","","","","1","0","0","0.6","","0.5","0.5","0.5","0.5","","","","","0.8","0.2","0.6","0.2","","","","","","","","","","75","K","2","","true","0","full_practice","",""
"","bandit","63","384379","0.0-32.0-12.0","64191008","wem/bandit_party_1","A2H6RIWM50KWA4","either","5","519","","","","","","","1","0","0","0.6","","0.5","0.5","0.5","0.5","","","","","0.8","0.2","0.6","0.2","","","","","","","","","","75","K","2","","true","0","full_practice","",""
"","bandit","64","386515","0.0-32.0-13.0","64191008","wem/bandit_party_1","A2H6RIWM50KWA4","either","5","632","","","","","","","0","1","0","","0.6","0.5","0.5","0.5","0.5","0.8","0.2","0.6","0.2","","","","","","","","","","","","","","75","K","2","","true","0","full_practice","",""
"","bandit","65","388533","0.0-32.0-14.0","64191008","wem/bandit_party_1","A2H6RIWM50KWA4","either","5","512","","","","","","","0","0","1","","0.6","0.5","0.5","0.5","0.5","0.8","0.2","0.6","0.2","","","","","","","","","","","","","","75","K","2","","true","0","full_practice","",""
"","bandit","66","390620","0.0-32.0-15.0","64191008","wem/bandit_party_1","A2H6RIWM50KWA4","either","5","585","","","","","","","0","0","1","0.2","","0.5","0.5","0.5","0.5","","","","","0.8","0.2","0.6","0.2","","","","","","","","","","74","J","1","","true","0","full_practice","",""
"","bandit","67","392347","0.0-32.0-16.0","64191008","wem/bandit_party_1","A2H6RIWM50KWA4","either","5","224","","","","","","","1","0","0","0.8","","0.5","0.5","0.5","0.5","","","","","0.8","0.2","0.6","0.2","","","","","","","","","","72","H","0","img/none_selected.jpg","true","0","full_practice","",""
"","bandit","68","394331","0.0-32.0-17.0","64191008","wem/bandit_party_1","A2H6RIWM50KWA4","either","5","481","","","","","","","0","1","0","","0.8","0.5","0.5","0.5","0.5","0.8","0.2","0.6","0.2","","","","","","","","","","","","","","72","H","0","img/none_selected.jpg","true","0","full_practice","",""
"","bandit","69","396236","0.0-32.0-18.0","64191008","wem/bandit_party_1","A2H6RIWM50KWA4","either","5","401","","","","","","","1","0","0","0.8","","0.5","0.5","0.5","0.5","","","","","0.8","0.2","0.6","0.2","","","","","","","","","","72","H","0","img/none_selected.jpg","true","0","full_practice","",""
"","bandit","70","398547","0.0-32.0-19.0","64191008","wem/bandit_party_1","A2H6RIWM50KWA4","either","5","808","","","","","","","0","1","0","","0.8","0.5","0.5","0.5","0.5","0.8","0.2","0.6","0.2","","","","","","","","","","","","","","72","H","0","img/none_selected.jpg","true","0","full_practice","",""
"","text","71","403471","0.0-33.0","64191008","wem/bandit_party_1","A2H6RIWM50KWA4","either","5","4916","","","32","","","","","","","","","","","","","","","","","","","","","","","","","","","","","","","","","","","","","",""
"","text-replacement","72","420961","0.0-34.0","64191008","wem/bandit_party_1","A2H6RIWM50KWA4","either","5","16488","","","32","","","","","","","","","","","","","","","","","","","","","","","","","","","","","","","","","","","","","",""
"","text-replacement","73","435337","0.0-35.0","64191008","wem/bandit_party_1","A2H6RIWM50KWA4","either","5","14374","","","32","","","","","","","","","","","","","","","","","","","","","","","","","","","","","","","","","","","","","",""
"","text-replacement","74","443153","0.0-36.0","64191008","wem/bandit_party_1","A2H6RIWM50KWA4","either","5","7814","","","32","","","","","","","","","","","","","","","","","","","","","","","","","","","","","","","","","","","","","",""
"","text-replacement","75","450929","0.0-37.0","64191008","wem/bandit_party_1","A2H6RIWM50KWA4","either","5","7774","","","32","","","","","","","","","","","","","","","","","","","","","","","","","","","","","","","","","","","","","",""
"","text-replacement","76","455624","0.0-38.0","64191008","wem/bandit_party_1","A2H6RIWM50KWA4","either","5","4692","","","32","","","","","","","","","","","","","","","","","","","","","","","","","","","","","","","","","","","","","",""
"","survey-multi-choice-replacement","77","463226","0.0-39.0-0.0","64191008","wem/bandit_party_1","A2H6RIWM50KWA4","either","5","7595","","","","","","","","","","","","","","","","","","","","","","","","Money will be added to the pool for <span style='color:blue;'>DEMOCRATS</span>","","","","","","","attn_check","","","","","","","","","0",""
"","survey-multi-choice-replacement","78","471792","0.0-40.0-0.0","64191008","wem/bandit_party_1","A2H6RIWM50KWA4","either","5","7559","","","","","","","","","","","","","","","","","","","","","","","","Money will be subtracted from the pool for <span style='color:red;'>REPUBLICANS</span>","","","","","","","attn_check","","","","","","","","","1",""
"","instructions","79","474639","0.0-40.0-1.0-0.0","64191008","wem/bandit_party_1","A2H6RIWM50KWA4","either","5","1844","","","","","","","","","","","","","","","","","","","","","","","","","","","","","","","","","","","","","","","","","[{""page_index"":0,""viewing_time"":1844}]"
"","survey-multi-choice-replacement","80","486584","0.0-40.1-0.1","64191008","wem/bandit_party_1","A2H6RIWM50KWA4","either","5","10937","","","","","","","","","","","","","","","","","","","","","","","","Equal amounts of money will be added to the pool for <span style='color:blue;'>DEMOCRATS</span> and subtracted from the pool for <span style='color:red;'>REPUBLICANS</span>","","","","","","","attn_check","","","","","","","","","2",""
"","survey-multi-choice-replacement","81","492736","0.0-41.0-0.0","64191008","wem/bandit_party_1","A2H6RIWM50KWA4","either","5","5144","","","","","","","","","","","","","","","","","","","","","","","","No money will be added to either pool","","","","","","","attn_check","","","","","","","","","3",""
"","bandit","82","500013","0.0-42.0-0.0","64191008","wem/bandit_party_1","A2H6RIWM50KWA4","either","5","4772","","","","","","","1","0","0","0.3340388524","","0.8","0.4","0.6","0.2","","","","","0.4265570961","0.1165465043","0.3340388524","0.3897275569","","","","","","","","","","75","K","2","","","1","main_expt","",""
"","bandit","83","502044","0.0-43.0-0.0","64191008","wem/bandit_party_1","A2H6RIWM50KWA4","either","5","528","","","","","","","0","0","1","","0.3223834482","0.8","0.4","0.6","0.2","0.4177099958","0.08371899021","0.3223834482","0.3911966266","","","","","","","","","","","","","","75","K","2","","","2","main_expt","",""
"","bandit","84","504660","0.0-44.0-0.0","64191008","wem/bandit_party_1","A2H6RIWM50KWA4","either","5","1112","","","","","","","0","0","1","","0.04339790364","0.8","0.4","0.6","0.2","0.4192185534","0.04339790364","0.3585509001","0.4074861021","","","","","","","","","","","","","","74","J","1","","","3","main_expt","",""
"","bandit","85","506620","0.0-45.0-0.0","64191008","wem/bandit_party_1","A2H6RIWM50KWA4","either","5","456","","","","","","","0","1","0","","0.3965638453","0.8","0.4","0.6","0.2","0.4241610434","0.04073472785","0.3416436242","0.3965638453","","","","","","","","","","","","","","76","L","3","","","4","main_expt","",""
"","bandit","86","508524","0.0-46.0-0.0","64191008","wem/bandit_party_1","A2H6RIWM50KWA4","either","5","400","","","","","","","0","0","1","","0.3688269119","0.8","0.4","0.6","0.2","0.4284837315","0.04731773769","0.3444758892","0.3688269119","","","","","","","","","","","","","","76","L","3","","","5","main_expt","",""
"","bandit","87","510780","0.0-47.0-0.0","64191008","wem/bandit_party_1","A2H6RIWM50KWA4","either","5","752","","","","","","","0","0","1","","0.4328708062","0.8","0.4","0.6","0.2","0.4328708062","0.05617088868","0.3574177426","0.3865867917","","","","","","","","","","","","","","72","H","0","img/none_selected.jpg","","6","main_expt","",""
"","bandit","88","513141","0.0-48.0-0.0","64191008","wem/bandit_party_1","A2H6RIWM50KWA4","either","5","855","","","","","","","1","0","0","0.3634052143","","0.8","0.4","0.6","0.2","","","","","0.4176545671","0.05606577856","0.3634052143","0.4294719924","","","","","","","","","","75","K","2","","","7","main_expt","",""
"","bandit","89","515260","0.0-49.0-0.0","64191008","wem/bandit_party_1","A2H6RIWM50KWA4","either","5","616","","","","","","","0","0","1","","0.3675420607","0.8","0.4","0.6","0.2","0.4022395488","0.09244853328","0.3675420607","0.4210378118","","","","","","","","","","","","","","75","K","2","","","8","main_expt","",""
"","bandit","90","517212","0.0-50.0-0.0","64191008","wem/bandit_party_1","A2H6RIWM50KWA4","either","5","448","","","","","","","0","0","1","","0.4502112583","0.8","0.4","0.6","0.2","0.3929004949","0.1271341085","0.3921196104","0.4502112583","","","","","","","","","","","","","","76","L","3","","","9","main_expt","",""
"","bandit","91","519380","0.0-51.0-0.0","64191008","wem/bandit_party_1","A2H6RIWM50KWA4","either","5","665","","","","","","","0","0","1","0.4026182126","","0.8","0.4","0.6","0.2","","","","","0.3863711448","0.1370717255","0.4026182126","0.4452653155","","","","","","","","","","75","K","2","","","10","main_expt","",""
"","bandit","92","522021","0.0-52.0-0.0","64191008","wem/bandit_party_1","A2H6RIWM50KWA4","either","5","1137","","","","","","","0","0","1","","0.1275050207","0.8","0.4","0.6","0.2","0.4205849279","0.1275050207","0.3543069494","0.4352349267","","","","","","","","","","","","","","74","J","1","","","11","main_expt","",""
"","bandit","93","524124","0.0-53.0-0.0","64191008","wem/bandit_party_1","A2H6RIWM50KWA4","either","5","598","","","","","","","1","0","0","0.3504097904","","0.8","0.4","0.6","0.2","","","","","0.4525069231","0.122317004","0.3504097904","0.4029030639","","","","","","","","","","75","K","2","","","12","main_expt","",""
"","bandit","94","526652","0.0-54.0-0.0","64191008","wem/bandit_party_1","A2H6RIWM50KWA4","either","5","1024","","","","","","","0","1","0","","0.2787441393","0.8","0.4","0.6","0.2","0.4485799753","0.1251711411","0.2787441393","0.4198147105","","","","","","","","","","","","","","75","K","2","","","13","main_expt","",""
"","bandit","95","528965","0.0-55.0-0.0","64191008","wem/bandit_party_1","A2H6RIWM50KWA4","either","5","808","","","","","","","0","0","1","","0.2723245106","0.8","0.4","0.6","0.2","0.4504049656","0.1380641988","0.2723245106","0.3761312174","","","","","","","","","","","","","","75","K","2","","","14","main_expt","",""
"","bandit","96","531565","0.0-56.0-0.0","64191008","wem/bandit_party_1","A2H6RIWM50KWA4","either","5","1095","","","","","","","0","0","1","","0.4281165459","0.8","0.4","0.6","0.2","0.4281165459","0.2010812313","0.3687644442","0.4017507227","","","","","","","","","","","","","","72","H","0","img/none_selected.jpg","","15","main_expt","",""
"","bandit","97","533485","0.0-57.0-0.0","64191008","wem/bandit_party_1","A2H6RIWM50KWA4","either","5","417","","","","","","","0","0","1","0.3992289848","","0.8","0.4","0.6","0.2","","","","","0.4035101098","0.1747275657","0.3992289848","0.3859888637","","","","","","","","","","75","K","2","","","16","main_expt","",""
"","bandit","98","535460","0.0-58.0-0.0","64191008","wem/bandit_party_1","A2H6RIWM50KWA4","either","5","471","","","","","","","0","0","1","","0.1816524112","0.8","0.4","0.6","0.2","0.4063691663","0.1816524112","0.4067061876","0.3706978481","","","","","","","","","","","","","","74","J","1","","","17","main_expt","",""
"","bandit","99","537444","0.0-59.0-0.0","64191008","wem/bandit_party_1","A2H6RIWM50KWA4","either","5","480","","","","","","","0","0","1","0.3969002131","","0.8","0.4","0.6","0.2","","","","","0.4201618032","0.1700798448","0.3969002131","0.3323991027","","","","","","","","","","75","K","2","","","18","main_expt","",""
"","bandit","100","539364","0.0-60.0-0.0","64191008","wem/bandit_party_1","A2H6RIWM50KWA4","either","5","417","","","","","","","0","0","1","0.3301718366","","0.8","0.4","0.6","0.2","","","","","0.3868389751","0.1998500639","0.3930099592","0.3301718366","","","","","","","","","","76","L","3","","","19","main_expt","",""
"","bandit","101","541244","0.0-61.0-0.0","64191008","wem/bandit_party_1","A2H6RIWM50KWA4","either","5","376","","","","","","","1","0","0","0.3791602553","","0.8","0.4","0.6","0.2","","","","","0.3868875991","0.2418808817","0.3791602553","0.3714618997","","","","","","","","","","75","K","2","","","20","main_expt","",""
"","bandit","102","543460","0.0-62.0-0.0","64191008","wem/bandit_party_1","A2H6RIWM50KWA4","either","5","711","","","","","","","1","0","0","0.4127515201","","0.8","0.4","0.6","0.2","","","","","0.4253770554","0.2293341009","0.4127515201","0.3621694591","","","","","","","","","","75","K","2","","","21","main_expt","",""
"","bandit","103","545596","0.0-63.0-0.0","64191008","wem/bandit_party_1","A2H6RIWM50KWA4","either","5","633","","","","","","","0","1","0","","0.4164833055","0.8","0.4","0.6","0.2","0.4285762007","0.2074184163","0.4164833055","0.3648829928","","","","","","","","","","","","","","75","K","2","","","22","main_expt","",""
"","bandit","104","547812","0.0-64.0-0.0","64191008","wem/bandit_party_1","A2H6RIWM50KWA4","either","5","712","","","","","","","0","0","1","","0.4143027846","0.8","0.4","0.6","0.2","0.4082522222","0.1832507358","0.4143027846","0.2856994719","","","","","","","","","","","","","","75","K","2","","","23","main_expt","",""
"","bandit","105","549972","0.0-65.0-0.0","64191008","wem/bandit_party_1","A2H6RIWM50KWA4","either","5","656","","","","","","","0","0","1","","0.1469425149","0.8","0.4","0.6","0.2","0.4027270218","0.1469425149","0.3649270698","0.3152516524","","","","","","","","","","","","","","74","J","1","","","24","main_expt","",""
"","bandit","106","551883","0.0-66.0-0.0","64191008","wem/bandit_party_1","A2H6RIWM50KWA4","either","5","408","","","","","","","1","0","0","0.392676409","","0.8","0.4","0.6","0.2","","","","","0.4100212433","0.102794739","0.392676409","0.2778145345","","","","","","","","","","75","K","2","","","25","main_expt","",""
"","bandit","107","554187","0.0-67.0-0.0","64191008","wem/bandit_party_1","A2H6RIWM50KWA4","either","5","800","","","","","","","0","1","0","","0.4031565401","0.8","0.4","0.6","0.2","0.4190791169","0.1173732637","0.4031565401","0.3170506137","","","","","","","","","","","","","","75","K","2","","","26","main_expt","",""
"","bandit","108","556172","0.0-68.0-0.0","64191008","wem/bandit_party_1","A2H6RIWM50KWA4","either","5","481","","","","","","","1","0","0","0.4245959001","","0.8","0.4","0.6","0.2","","","","","0.4527212376","0.08835016803","0.4245959001","0.3223143746","","","","","","","","","","75","K","2","","","27","main_expt","",""
"","bandit","109","558164","0.0-69.0-0.0","64191008","wem/bandit_party_1","A2H6RIWM50KWA4","either","5","488","","","","","","","0","0","1","","0.4232885055","0.8","0.4","0.6","0.2","0.4480998813","0.1134440288","0.4232885055","0.3234472479","","","","","","","","","","","","","","75","K","2","","","28","main_expt","",""
"","bandit","110","560027","0.0-70.0-0.0","64191008","wem/bandit_party_1","A2H6RIWM50KWA4","either","5","358","","","","","","","1","0","0","0.2881425904","","0.8","0.4","0.6","0.2","","","","","0.4628669208","0.1982905849","0.4495512981","0.2881425904","","","","","","","","","","76","L","3","","","29","main_expt","",""
"","bandit","111","562139","0.0-71.0-0.0","64191008","wem/bandit_party_1","A2H6RIWM50KWA4","either","5","608","","","","","","","0","1","0","","0.2326555855","0.8","0.4","0.6","0.2","0.4565655028","0.2366655967","0.4485299892","0.2326555855","","","","","","","","","","","","","","76","L","3","","","30","main_expt","",""
"","bandit","112","564196","0.0-72.0-0.0","64191008","wem/bandit_party_1","A2H6RIWM50KWA4","either","5","551","","","","","","","0","1","0","","0.2364604256","0.8","0.4","0.6","0.2","0.4686031056","0.1622470467","0.4599237238","0.2364604256","","","","","","","","","","","","","","76","L","3","","","31","main_expt","",""
"","bandit","113","567140","0.0-73.0-0.0","64191008","wem/bandit_party_1","A2H6RIWM50KWA4","either","5","1441","","","","","","","0","1","0","","0.2451982598","0.8","0.4","0.6","0.2","0.4659582456","0.1771911602","0.4508116693","0.2451982598","","","","","","","","","","","","","","76","L","3","","","32","main_expt","",""
"","bandit","114","569443","0.0-74.0-0.0","64191008","wem/bandit_party_1","A2H6RIWM50KWA4","either","5","799","","","","","","","0","0","1","","0.2360369815","0.8","0.4","0.6","0.2","0.4810757035","0.1622836308","0.45101727","0.2360369815","","","","","","","","","","","","","","76","L","3","","","33","main_expt","",""
"","bandit","115","571459","0.0-75.0-0.0","64191008","wem/bandit_party_1","A2H6RIWM50KWA4","either","5","512","","","","","","","0","0","1","","0.1655985557","0.8","0.4","0.6","0.2","0.4842727378","0.1655985557","0.4340174653","0.2317763892","","","","","","","","","","","","","","74","J","1","","","34","main_expt","",""
"","bandit","116","573755","0.0-76.0-0.0","64191008","wem/bandit_party_1","A2H6RIWM50KWA4","either","5","792","","","","","","","0","0","1","","0.4040147441","0.8","0.4","0.6","0.2","0.4745470136","0.1492797185","0.4040147441","0.2527891731","","","","","","","","","","","","","","75","K","2","","","35","main_expt","",""
"","bandit","117","576283","0.0-77.0-0.0","64191008","wem/bandit_party_1","A2H6RIWM50KWA4","either","5","1023","","","","","","","0","0","1","","0.2641283143","0.8","0.4","0.6","0.2","0.4440965139","0.1504543003","0.4268829696","0.2641283143","","","","","","","","","","","","","","76","L","3","","","36","main_expt","",""
"","bandit","118","578740","0.0-78.0-0.0","64191008","wem/bandit_party_1","A2H6RIWM50KWA4","either","5","952","","","","","","","1","0","0","0.4544425755","","0.8","0.4","0.6","0.2","","","","","0.4544425755","0.1064249526","0.4562327564","0.2309310423","","","","","","","","","","72","H","0","img/none_selected.jpg","","37","main_expt","",""
"","bandit","119","581195","0.0-79.0-0.0","64191008","wem/bandit_party_1","A2H6RIWM50KWA4","either","5","950","","","","","","","0","0","1","","0.4700138218","0.8","0.4","0.6","0.2","0.4700138218","0.1346530267","0.4481627861","0.2093170459","","","","","","","","","","","","","","72","H","0","img/none_selected.jpg","","38","main_expt","",""
"","bandit","120","583260","0.0-80.0-0.0","64191008","wem/bandit_party_1","A2H6RIWM50KWA4","either","5","560","","","","","","","0","0","1","0.4475890948","","0.8","0.4","0.6","0.2","","","","","0.466948448","0.1303494481","0.4475890948","0.1398625959","","","","","","","","","","75","K","2","","","39","main_expt","",""
"","bandit","121","585147","0.0-81.0-0.0","64191008","wem/bandit_party_1","A2H6RIWM50KWA4","either","5","383","","","","","","","0","0","1","0.4679256248","","0.8","0.4","0.6","0.2","","","","","0.4679256248","0.1492074344","0.4501575696","0.09690087606","","","","","","","","","","72","H","0","img/none_selected.jpg","","40","main_expt","",""
"","bandit","122","587339","0.0-82.0-0.0","64191008","wem/bandit_party_1","A2H6RIWM50KWA4","either","5","688","","","","","","","1","0","0","0.445537573","","0.8","0.4","0.6","0.2","","","","","0.445537573","0.1370672299","0.4121884666","0.1129569356","","","","","","","","","","72","H","0","img/none_selected.jpg","","41","main_expt","",""
"","bandit","123","589748","0.0-83.0-0.0","64191008","wem/bandit_party_1","A2H6RIWM50KWA4","either","5","904","","","","","","","0","1","0","","0.4521531226","0.8","0.4","0.6","0.2","0.4521531226","0.08144147181","0.4379939247","0.1227033228","","","","","","","","","","","","","","72","H","0","img/none_selected.jpg","","42","main_expt","",""
"","bandit","124","591907","0.0-84.0-0.0","64191008","wem/bandit_party_1","A2H6RIWM50KWA4","either","5","655","","","","","","","0","0","1","0.4695072217","","0.8","0.4","0.6","0.2","","","","","0.4695072217","0.06793865388","0.4271747655","0.08393287497","","","","","","","","","","72","H","0","img/none_selected.jpg","","43","main_expt","",""
"","bandit","125","594123","0.0-85.0-0.0","64191008","wem/bandit_party_1","A2H6RIWM50KWA4","either","5","711","","","","","","","1","0","0","0.4807409838","","0.8","0.4","0.6","0.2","","","","","0.4807409838","0.05295344446","0.4480494518","0.06260074275","","","","","","","","","","72","H","0","img/none_selected.jpg","","44","main_expt","",""
"","bandit","126","596371","0.0-86.0-0.0","64191008","wem/bandit_party_1","A2H6RIWM50KWA4","either","5","743","","","","","","","0","0","1","","0.4507048108","0.8","0.4","0.6","0.2","0.4507048108","0.02744239742","0.4269729589","0.08062123592","","","","","","","","","","","","","","72","H","0","img/none_selected.jpg","","45","main_expt","",""
"","bandit","127","598293","0.0-87.0-0.0","64191008","wem/bandit_party_1","A2H6RIWM50KWA4","either","5","415","","","","","","","0","0","1","0.4382321206","","0.8","0.4","0.6","0.2","","","","","0.4382321206","0.02347437243","0.4475746277","0.1110847749","","","","","","","","","","72","H","0","img/none_selected.jpg","","46","main_expt","",""
"","bandit","128","600196","0.0-88.0-0.0","64191008","wem/bandit_party_1","A2H6RIWM50KWA4","either","5","400","","","","","","","0","0","1","0.02418160198","","0.8","0.4","0.6","0.2","","","","","0.4393937913","0.02418160198","0.4295618238","0.05346849493","","","","","","","","","","74","J","1","","","47","main_expt","",""
"","bandit","129","602043","0.0-89.0-0.0","64191008","wem/bandit_party_1","A2H6RIWM50KWA4","either","5","343","","","","","","","1","0","0","0.4431907244","","0.8","0.4","0.6","0.2","","","","","0.440318131","0.01182676654","0.4431907244","0.04499733497","","","","","","","","","","75","K","2","","","48","main_expt","",""
"","bandit","130","604027","0.0-90.0-0.0","64191008","wem/bandit_party_1","A2H6RIWM50KWA4","either","5","480","","","","","","","1","0","0","0.4187732916","","0.8","0.4","0.6","0.2","","","","","0.4362102412","0.0186287842","0.4187732916","0.07378534534","","","","","","","","","","75","K","2","","","49","main_expt","",""
"","bandit","131","605571","0.0-91.0-0.0","64191008","wem/bandit_party_1","A2H6RIWM50KWA4","either","5","40","","","","","","","0","1","0","","0.356579213","0.8","0.4","0.6","0.2","0.44488671","0.02550629551","0.356579213","0.06168845619","","","","","","","","","","","","","","75","K","2","","","50","main_expt","",""
"","bandit","132","607771","0.0-92.0-0.0","64191008","wem/bandit_party_1","A2H6RIWM50KWA4","either","5","696","","","","","","","0","1","0","","0.2629404955","0.8","0.4","0.6","0.2","0.4633405548","0.04366809707","0.2629404955","0.1062028567","","","","","","","","","","","","","","75","K","2","","","51","main_expt","",""
"","bandit","133","610317","0.0-93.0-0.0","64191008","wem/bandit_party_1","A2H6RIWM50KWA4","either","5","1041","","","","","","","1","0","0","0.2919747068","","0.8","0.4","0.6","0.2","","","","","0.4528043762","0.04357168116","0.2919747068","0.1379608546","","","","","","","","","","75","K","2","","","52","main_expt","",""
"","bandit","134","613076","0.0-94.0-0.0","64191008","wem/bandit_party_1","A2H6RIWM50KWA4","either","5","1254","","","","","","","0","0","1","","0.3809901122","0.8","0.4","0.6","0.2","0.4390431751","0.03899227154","0.3809901122","0.1356826849","","","","","","","","","","","","","","75","K","2","","","53","main_expt","",""
"","bandit","135","615124","0.0-95.0-0.0","64191008","wem/bandit_party_1","A2H6RIWM50KWA4","either","5","542","","","","","","","0","0","1","","0.1038772241","0.8","0.4","0.6","0.2","0.4549270822","0.04009146386","0.3452518694","0.1038772241","","","","","","","","","","","","","","76","L","3","","","54","main_expt","",""
"","bandit","136","617277","0.0-96.0-0.0","64191008","wem/bandit_party_1","A2H6RIWM50KWA4","either","5","648","","","","","","","0","0","1","","0.1689791829","0.8","0.4","0.6","0.2","0.4710341864","0.0155768565","0.3263112327","0.1689791829","","","","","","","","","","","","","","76","L","3","","","55","main_expt","",""
"","bandit","137","619765","0.0-97.0-0.0","64191008","wem/bandit_party_1","A2H6RIWM50KWA4","either","5","983","","","","","","","0","0","1","0.3308963945","","0.8","0.4","0.6","0.2","","","","","0.4745834276","0.02112461672","0.3308963945","0.1108888145","","","","","","","","","","75","K","2","","","56","main_expt","",""
"","bandit","138","621933","0.0-98.0-0.0","64191008","wem/bandit_party_1","A2H6RIWM50KWA4","either","5","664","","","","","","","0","0","1","","0.3150326571","0.8","0.4","0.6","0.2","0.489318572","0.0126553198","0.3150326571","0.1206542402","","","","","","","","","","","","","","75","K","2","","","57","main_expt","",""
"","bandit","139","624820","0.0-99.0-0.0","64191008","wem/bandit_party_1","A2H6RIWM50KWA4","either","5","1382","","","","","","","0","0","1","","0.01131359515","0.8","0.4","0.6","0.2","0.480037986","0.01131359515","0.3049116772","0.09707343937","","","","","","","","","","","","","","74","J","1","","","58","main_expt","",""
"","bandit","140","626844","0.0-100.0-0.0","64191008","wem/bandit_party_1","A2H6RIWM50KWA4","either","5","520","","","","","","","1","0","0","0.4593461039","","0.8","0.4","0.6","0.2","","","","","0.4593461039","0.01030075821","0.3050987947","0.1044384952","","","","","","","","","","72","H","0","img/none_selected.jpg","","59","main_expt","",""
"","bandit","141","630396","0.0-101.0-0.0","64191008","wem/bandit_party_1","A2H6RIWM50KWA4","either","5","2047","","","","","","","0","0","1","0.446051488","","0.8","0.4","0.6","0.2","","","","","0.446051488","0.005868957973","0.3274009355","0.08890369623","","","","","","","","","","72","H","0","img/none_selected.jpg","","60","main_expt","",""
"","bandit","142","632557","0.0-102.0-0.0","64191008","wem/bandit_party_1","A2H6RIWM50KWA4","either","5","655","","","","","","","0","0","1","0.4391285327","","0.8","0.4","0.6","0.2","","","","","0.4391285327","0.004361943215","0.3428943983","0.08921221942","","","","","","","","","","72","H","0","img/none_selected.jpg","","61","main_expt","",""
"","bandit","143","634677","0.0-103.0-0.0","64191008","wem/bandit_party_1","A2H6RIWM50KWA4","either","5","615","","","","","","","0","0","1","","0.4063883723","0.8","0.4","0.6","0.2","0.4063883723","0.005208412743","0.3549763931","0.09812025034","","","","","","","","","","","","","","72","H","0","img/none_selected.jpg","","62","main_expt","",""
"","bandit","144","637573","0.0-104.0-0.0","64191008","wem/bandit_party_1","A2H6RIWM50KWA4","either","5","1390","","","","","","","0","0","1","0.09006279409","","0.8","0.4","0.6","0.2","","","","","0.4330387396","0.006461011255","0.3496678451","0.09006279409","","","","","","","","","","76","L","3","","","63","main_expt","",""
"","bandit","145","639572","0.0-105.0-0.0","64191008","wem/bandit_party_1","A2H6RIWM50KWA4","either","5","495","","","","","","","0","0","1","","0.1118976224","0.8","0.4","0.6","0.2","0.4207902426","0.01267926231","0.3188537263","0.1118976224","","","","","","","","","","","","","","76","L","3","","","64","main_expt","",""
"","bandit","146","641444","0.0-106.0-0.0","64191008","wem/bandit_party_1","A2H6RIWM50KWA4","either","5","367","","","","","","","1","0","0","0.3191795336","","0.8","0.4","0.6","0.2","","","","","0.3719582347","0.009732787917","0.3191795336","0.1053817613","","","","","","","","","","75","K","2","","","65","main_expt","",""
"","bandit","147","643413","0.0-107.0-0.0","64191008","wem/bandit_party_1","A2H6RIWM50KWA4","either","5","464","","","","","","","0","0","1","0.268616347","","0.8","0.4","0.6","0.2","","","","","0.3748569955","0.01092542651","0.268616347","0.1307356695","","","","","","","","","","75","K","2","","","66","main_expt","",""
"","bandit","148","645580","0.0-108.0-0.0","64191008","wem/bandit_party_1","A2H6RIWM50KWA4","either","5","662","","","","","","","0","1","0","","0.259194563","0.8","0.4","0.6","0.2","0.335252031","0.02125534741","0.259194563","0.1418436428","","","","","","","","","","","","","","75","K","2","","","67","main_expt","",""
"","bandit","149","647484","0.0-109.0-0.0","64191008","wem/bandit_party_1","A2H6RIWM50KWA4","either","5","399","","","","","","","0","0","1","0.2281204868","","0.8","0.4","0.6","0.2","","","","","0.3199157278","0.02360283027","0.2281204868","0.1459089566","","","","","","","","","","75","K","2","","","68","main_expt","",""
"","bandit","150","649308","0.0-110.0-0.0","64191008","wem/bandit_party_1","A2H6RIWM50KWA4","either","5","318","","","","","","","0","0","1","","0.2195844169","0.8","0.4","0.6","0.2","0.3068525281","0.02539305756","0.2195844169","0.1809721424","","","","","","","","","","","","","","75","K","2","","","69","main_expt","",""
"","bandit","151","652989","0.0-111.0-0.0","64191008","wem/bandit_party_1","A2H6RIWM50KWA4","either","5","2176","","","","","","","0","0","1","","0.05014388586","0.8","0.4","0.6","0.2","0.3181076016","0.05014388586","0.1883338509","0.1784068974","","","","","","","","","","","","","","74","J","1","","","70","main_expt","",""
"","bandit","152","654845","0.0-112.0-0.0","64191008","wem/bandit_party_1","A2H6RIWM50KWA4","either","5","351","","","","","","","0","0","1","0.2926426422","","0.8","0.4","0.6","0.2","","","","","0.2926426422","0.04209054697","0.1639708178","0.1973023396","","","","","","","","","","72","H","0","img/none_selected.jpg","","71","main_expt","",""
"","bandit","153","656684","0.0-113.0-0.0","64191008","wem/bandit_party_1","A2H6RIWM50KWA4","either","5","334","","","","","","","0","0","1","","0.2380263643","0.8","0.4","0.6","0.2","0.2380263643","0.05611199342","0.1312842785","0.2436342847","","","","","","","","","","","","","","72","H","0","img/none_selected.jpg","","72","main_expt","",""
"","bandit","154","659132","0.0-114.0-0.0","64191008","wem/bandit_party_1","A2H6RIWM50KWA4","either","5","944","","","","","","","0","0","1","0.1992173182","","0.8","0.4","0.6","0.2","","","","","0.2407197948","0.05293238473","0.1805041857","0.1992173182","","","","","","","","","","76","L","3","","","73","main_expt","",""
"","bandit","155","661076","0.0-115.0-0.0","64191008","wem/bandit_party_1","A2H6RIWM50KWA4","either","5","439","","","","","","","0","0","1","","0.2347098304","0.8","0.4","0.6","0.2","0.2317468449","0.0318456884","0.1739557812","0.2347098304","","","","","","","","","","","","","","76","L","3","","","74","main_expt","",""
"","bandit","156","663004","0.0-116.0-0.0","64191008","wem/bandit_party_1","A2H6RIWM50KWA4","either","5","424","","","","","","","0","0","1","","0.2434916027","0.8","0.4","0.6","0.2","0.2545997551","0.03873230677","0.2434916027","0.2641442137","","","","","","","","","","","","","","75","K","2","","","75","main_expt","",""
"","bandit","157","664941","0.0-117.0-0.0","64191008","wem/bandit_party_1","A2H6RIWM50KWA4","either","5","431","","","","","","","0","0","1","","0.2438468568","0.8","0.4","0.6","0.2","0.2890845388","0.03304947682","0.2438468568","0.3192644053","","","","","","","","","","","","","","75","K","2","","","76","main_expt","",""
"","bandit","158","666492","0.0-118.0-0.0","64191008","wem/bandit_party_1","A2H6RIWM50KWA4","either","5","46","","","","","","","0","0","1","","0.02607887458","0.8","0.4","0.6","0.2","0.2386362654","0.02607887458","0.2425324642","0.3351132613","","","","","","","","","","","","","","74","J","1","","","77","main_expt","",""
"","bandit","159","668382","0.0-119.0-0.0","64191008","wem/bandit_party_1","A2H6RIWM50KWA4","either","5","382","","","","","","","0","0","1","0.2673679704","","0.8","0.4","0.6","0.2","","","","","0.2673679704","0.02492981692","0.205588479","0.3086784207","","","","","","","","","","72","H","0","img/none_selected.jpg","","78","main_expt","",""
"","bandit","160","670548","0.0-120.0-0.0","64191008","wem/bandit_party_1","A2H6RIWM50KWA4","either","5","661","","","","","","","0","0","1","0.2813811921","","0.8","0.4","0.6","0.2","","","","","0.2813811921","0.01824110002","0.213062191","0.3076482073","","","","","","","","","","72","H","0","img/none_selected.jpg","","79","main_expt","",""
"","bandit","161","673563","0.0-121.0-0.0","64191008","wem/bandit_party_1","A2H6RIWM50KWA4","either","5","1510","","","","","","","0","0","1","0.1852926048","","0.8","0.4","0.6","0.2","","","","","0.2419447949","0.0202176162","0.1852926048","0.3605025214","","","","","","","","","","75","K","2","","","80","main_expt","",""
"","bandit","162","675388","0.0-122.0-0.0","64191008","wem/bandit_party_1","A2H6RIWM50KWA4","either","5","321","","","","","","","0","1","0","","0.2332942271","0.8","0.4","0.6","0.2","0.323481111","0.0252752587","0.2332942271","0.3286166321","","","","","","","","","","","","","","75","K","2","","","81","main_expt","",""
"","bandit","163","677467","0.0-123.0-0.0","64191008","wem/bandit_party_1","A2H6RIWM50KWA4","either","5","573","","","","","","","0","0","1","0.2087797338","","0.8","0.4","0.6","0.2","","","","","0.3097244961","0.05668457717","0.2087797338","0.3459677762","","","","","","","","","","75","K","2","","","82","main_expt","",""
"","bandit","164","679883","0.0-124.0-0.0","64191008","wem/bandit_party_1","A2H6RIWM50KWA4","either","5","912","","","","","","","0","1","0","","0.2049979043","0.8","0.4","0.6","0.2","0.2787498647","0.07760530004","0.2049979043","0.3092751195","","","","","","","","","","","","","","75","K","2","","","83","main_expt","",""
"","bandit","165","682691","0.0-125.0-0.0","64191008","wem/bandit_party_1","A2H6RIWM50KWA4","either","5","1303","","","","","","","0","0","1","","0.2151780091","0.8","0.4","0.6","0.2","0.2589524449","0.03696005566","0.2151780091","0.3044630387","","","","","","","","","","","","","","75","K","2","","","84","main_expt","",""
"","bandit","166","685923","0.0-126.0-0.0","64191008","wem/bandit_party_1","A2H6RIWM50KWA4","either","5","1727","","","","","","","0","0","1","0.1497615914","","0.8","0.4","0.6","0.2","","","","","0.2769318636","0.04177257934","0.1497615914","0.2812480587","","","","","","","","","","75","K","2","","","85","main_expt","",""
"","bandit","167","689596","0.0-127.0-0.0","64191008","wem/bandit_party_1","A2H6RIWM50KWA4","either","5","2166","","","","","","","0","0","1","0.1223687677","","0.8","0.4","0.6","0.2","","","","","0.2849222391","0.0385770192","0.1223687677","0.2506532223","","","","","","","","","","75","K","2","","","86","main_expt","",""
"","bandit","168","693563","0.0-128.0-0.0","64191008","wem/bandit_party_1","A2H6RIWM50KWA4","either","5","2462","","","","","","","0","1","0","","0.1472857413","0.8","0.4","0.6","0.2","0.3131087309","0.03720252147","0.1472857413","0.2269900387","","","","","","","","","","","","","","75","K","2","","","87","main_expt","",""
"","bandit","169","697988","0.0-129.0-0.0","64191008","wem/bandit_party_1","A2H6RIWM50KWA4","either","5","2919","","","","","","","0","0","1","","0.1252586248","0.8","0.4","0.6","0.2","0.3038587512","0.06746059371","0.1252586248","0.1504729919","","","","","","","","","","","","","","75","K","2","","","88","main_expt","",""
"","bandit","170","703683","0.0-130.0-0.0","64191008","wem/bandit_party_1","A2H6RIWM50KWA4","either","5","4187","","","","","","","0","0","1","","0.1194927994","0.8","0.4","0.6","0.2","0.3308022157","0.04069757945","0.1194927994","0.1382070302","","","","","","","","","","","","","","75","K","2","","","89","main_expt","",""
"","bandit","171","708372","0.0-131.0-0.0","64191008","wem/bandit_party_1","A2H6RIWM50KWA4","either","5","3185","","","","","","","0","0","1","0.1589750007","","0.8","0.4","0.6","0.2","","","","","0.3574922351","0.07325379503","0.1589750007","0.1364765349","","","","","","","","","","75","K","2","","","90","main_expt","",""
"","bandit","172","710875","0.0-132.0-0.0","64191008","wem/bandit_party_1","A2H6RIWM50KWA4","either","5","996","","","","","","","0","0","1","","0.1859960426","0.8","0.4","0.6","0.2","0.3729517688","0.06877471811","0.1859960426","0.09318196272","","","","","","","","","","","","","","75","K","2","","","91","main_expt","",""
"","bandit","173","713251","0.0-133.0-0.0","64191008","wem/bandit_party_1","A2H6RIWM50KWA4","either","5","871","","","","","","","0","1","0","","0.192419488","0.8","0.4","0.6","0.2","0.398352994","0.04115987362","0.192419488","0.06946097624","","","","","","","","","","","","","","75","K","2","","","92","main_expt","",""
"","bandit","174","716643","0.0-134.0-0.0","64191008","wem/bandit_party_1","A2H6RIWM50KWA4","either","5","1886","","","","","","","0","0","1","0.1716033463","","0.8","0.4","0.6","0.2","","","","","0.4135860398","0.07078892783","0.1716033463","0.08102832817","","","","","","","","","","75","K","2","","","93","main_expt","",""
"","bandit","175","719460","0.0-135.0-0.0","64191008","wem/bandit_party_1","A2H6RIWM50KWA4","either","5","1310","","","","","","","0","0","1","","0.1935897604","0.8","0.4","0.6","0.2","0.3786880174","0.05572868433","0.1935897604","0.1271360848","","","","","","","","","","","","","","75","K","2","","","94","main_expt","",""
"","bandit","176","722012","0.0-136.0-0.0","64191008","wem/bandit_party_1","A2H6RIWM50KWA4","either","5","1046","","","","","","","1","0","0","0.1097592989","","0.8","0.4","0.6","0.2","","","","","0.3823424718","0.05056929995","0.2193228015","0.1097592989","","","","","","","","","","76","L","3","","","95","main_expt","",""
"","bandit","177","723988","0.0-137.0-0.0","64191008","wem/bandit_party_1","A2H6RIWM50KWA4","either","5","470","","","","","","","0","0","1","","0.1085490834","0.8","0.4","0.6","0.2","0.3642725552","0.04159874267","0.3262643469","0.1085490834","","","","","","","","","","","","","","76","L","3","","","96","main_expt","",""
"","bandit","178","726483","0.0-138.0-0.0","64191008","wem/bandit_party_1","A2H6RIWM50KWA4","either","5","990","","","","","","","0","0","1","0.1049812554","","0.8","0.4","0.6","0.2","","","","","0.3197717944","0.03654451862","0.3207405496","0.1049812554","","","","","","","","","","76","L","3","","","97","main_expt","",""
"","bandit","179","728699","0.0-139.0-0.0","64191008","wem/bandit_party_1","A2H6RIWM50KWA4","either","5","710","","","","","","","0","0","1","0.3712856991","","0.8","0.4","0.6","0.2","","","","","0.2514424369","0.04190300095","0.3712856991","0.08177978443","","","","","","","","","","75","K","2","","","98","main_expt","",""
"","bandit","180","730717","0.0-140.0-0.0","64191008","wem/bandit_party_1","A2H6RIWM50KWA4","either","5","511","","","","","","","1","0","0","0.3740145378","","0.8","0.4","0.6","0.2","","","","","0.2926772137","0.08742990617","0.3740145378","0.07574087804","","","","","","","","","","75","K","2","","","99","main_expt","",""
"","bandit","181","733228","0.0-141.0-0.0","64191008","wem/bandit_party_1","A2H6RIWM50KWA4","either","5","1006","","","","","","","1","0","0","0.3776295542","","0.8","0.4","0.6","0.2","","","","","0.234485335","0.08966523481","0.3776295542","0.07829319678","","","","","","","","","","75","K","2","","","100","main_expt","",""
"","bandit","182","735820","0.0-142.0-0.0","64191008","wem/bandit_party_1","A2H6RIWM50KWA4","either","5","1086","","","","","","","0","0","1","0.3592666398","","0.8","0.4","0.6","0.2","","","","","0.250352175","0.07849065771","0.3592666398","0.07919243683","","","","","","","","","","75","K","2","","","101","main_expt","",""
"","bandit","183","737854","0.0-143.0-0.0","64191008","wem/bandit_party_1","A2H6RIWM50KWA4","either","5","526","","","","","","","0","0","1","","0.3412191773","0.8","0.4","0.6","0.2","0.2139972863","0.1054267613","0.3412191773","0.1052753188","","","","","","","","","","","","","","75","K","2","","","102","main_expt","",""
"","bandit","184","742373","0.0-144.0-0.0","64191008","wem/bandit_party_1","A2H6RIWM50KWA4","either","5","3015","","","","","","","1","0","0","0.3133100433","","0.8","0.4","0.6","0.2","","","","","0.20092706","0.1120981937","0.3133100433","0.1248526142","","","","","","","","","","75","K","2","","","103","main_expt","",""
"","bandit","185","753693","0.0-145.0-0.0","64191008","wem/bandit_party_1","A2H6RIWM50KWA4","either","5","9814","","","","","","","0","0","1","","0.3219148419","0.8","0.4","0.6","0.2","0.2305366804","0.1034740879","0.3219148419","0.142969925","","","","","","","","","","","","","","75","K","2","","","104","main_expt","",""
"","bandit","186","756557","0.0-146.0-0.0","64191008","wem/bandit_party_1","A2H6RIWM50KWA4","either","5","1357","","","","","","","0","1","0","","0.3300892518","0.8","0.4","0.6","0.2","0.2102135581","0.07597240327","0.3300892518","0.13947254","","","","","","","","","","","","","","75","K","2","","","105","main_expt","",""
"","bandit","187","760373","0.0-147.0-0.0","64191008","wem/bandit_party_1","A2H6RIWM50KWA4","either","5","2307","","","","","","","0","0","1","","0.3401839058","0.8","0.4","0.6","0.2","0.2219457329","0.1124257427","0.3401839058","0.1329526997","","","","","","","","","","","","","","75","K","2","","","106","main_expt","",""
"","bandit","188","763837","0.0-148.0-0.0","64191008","wem/bandit_party_1","A2H6RIWM50KWA4","either","5","1958","","","","","","","0","0","1","0.3784706915","","0.8","0.4","0.6","0.2","","","","","0.3048423019","0.1133168519","0.3784706915","0.1727290233","","","","","","","","","","75","K","2","","","107","main_expt","",""
"","bandit","189","767476","0.0-149.0-0.0","64191008","wem/bandit_party_1","A2H6RIWM50KWA4","either","5","2134","","","","","","","0","0","1","0.3945753887","","0.8","0.4","0.6","0.2","","","","","0.258150515","0.1752395656","0.3945753887","0.1864487031","","","","","","","","","","75","K","2","","","108","main_expt","",""
"","bandit","190","770252","0.0-150.0-0.0","64191008","wem/bandit_party_1","A2H6RIWM50KWA4","either","5","1270","","","","","","","0","0","1","0.2463216238","","0.8","0.4","0.6","0.2","","","","","0.1859129148","0.1862973424","0.356827327","0.2463216238","","","","","","","","","","76","L","3","","","109","main_expt","",""
"","bandit","191","772260","0.0-151.0-0.0","64191008","wem/bandit_party_1","A2H6RIWM50KWA4","either","5","502","","","","","","","0","0","1","","0.2431522628","0.8","0.4","0.6","0.2","0.1371624404","0.2015845776","0.2344179837","0.2431522628","","","","","","","","","","","","","","76","L","3","","","110","main_expt","",""
"","bandit","192","775077","0.0-152.0-0.0","64191008","wem/bandit_party_1","A2H6RIWM50KWA4","either","5","1312","","","","","","","0","0","1","","0.2644823096","0.8","0.4","0.6","0.2","0.1258232978","0.2003651753","0.2644823096","0.1757476643","","","","","","","","","","","","","","75","K","2","","","111","main_expt","",""
"","bandit","193","777060","0.0-153.0-0.0","64191008","wem/bandit_party_1","A2H6RIWM50KWA4","either","5","477","","","","","","","0","0","1","0.21392293","","0.8","0.4","0.6","0.2","","","","","0.1529967373","0.21392293","0.28311182","0.2451518953","","","","","","","","","","74","J","1","","","112","main_expt","",""
"","bandit","194","778932","0.0-154.0-0.0","64191008","wem/bandit_party_1","A2H6RIWM50KWA4","either","5","367","","","","","","","1","0","0","0.148248117","","0.8","0.4","0.6","0.2","","","","","0.148248117","0.1606798039","0.2413269532","0.2407836715","","","","","","","","","","72","H","0","img/none_selected.jpg","","113","main_expt","",""
"","bandit","195","781652","0.0-155.0-0.0","64191008","wem/bandit_party_1","A2H6RIWM50KWA4","either","5","1215","","","","","","","0","0","1","0.1562208239","","0.8","0.4","0.6","0.2","","","","","0.1562208239","0.2095980235","0.3100969134","0.3099317417","","","","","","","","","","72","H","0","img/none_selected.jpg","","114","main_expt","",""
"","bandit","196","786061","0.0-156.0-0.0","64191008","wem/bandit_party_1","A2H6RIWM50KWA4","either","5","2902","","","","","","","1","0","0","0.2138032898","","0.8","0.4","0.6","0.2","","","","","0.2138032898","0.2550279667","0.329842252","0.3180754701","","","","","","","","","","72","H","0","img/none_selected.jpg","","115","main_expt","",""
"","bandit","197","789092","0.0-157.0-0.0","64191008","wem/bandit_party_1","A2H6RIWM50KWA4","either","5","1525","","","","","","","0","0","1","0.2331260325","","0.8","0.4","0.6","0.2","","","","","0.2331260325","0.2471764387","0.3223706096","0.2919742107","","","","","","","","","","72","H","0","img/none_selected.jpg","","116","main_expt","",""
"","bandit","198","791293","0.0-158.0-0.0","64191008","wem/bandit_party_1","A2H6RIWM50KWA4","either","5","694","","","","","","","0","0","1","0.1826309729","","0.8","0.4","0.6","0.2","","","","","0.1826309729","0.2730878341","0.3098408215","0.2799774295","","","","","","","","","","72","H","0","img/none_selected.jpg","","117","main_expt","",""
"","bandit","199","793421","0.0-159.0-0.0","64191008","wem/bandit_party_1","A2H6RIWM50KWA4","either","5","621","","","","","","","0","0","1","0.1511269107","","0.8","0.4","0.6","0.2","","","","","0.1511269107","0.2071462199","0.2974554567","0.2646714695","","","","","","","","","","72","H","0","img/none_selected.jpg","","118","main_expt","",""
"","bandit","200","796453","0.0-160.0-0.0","64191008","wem/bandit_party_1","A2H6RIWM50KWA4","either","5","1527","","","","","","","0","0","1","0.3598468986","","0.8","0.4","0.6","0.2","","","","","0.1559979654","0.2275232499","0.3598468986","0.3179839519","","","","","","","","","","75","K","2","","","119","main_expt","",""
"","bandit","201","798572","0.0-161.0-0.0","64191008","wem/bandit_party_1","A2H6RIWM50KWA4","either","5","613","","","","","","","0","0","1","","0.3302262658","0.8","0.4","0.6","0.2","0.1463004055","0.2767559596","0.2984373086","0.3302262658","","","","","","","","","","","","","","76","L","3","","","120","main_expt","",""
"","bandit","202","800476","0.0-162.0-0.0","64191008","wem/bandit_party_1","A2H6RIWM50KWA4","either","5","399","","","","","","","0","1","0","","0.3500549905","0.8","0.4","0.6","0.2","0.1418195479","0.3448590315","0.2973090059","0.3500549905","","","","","","","","","","","","","","76","L","3","","","121","main_expt","",""
"","bandit","203","802980","0.0-163.0-0.0","64191008","wem/bandit_party_1","A2H6RIWM50KWA4","either","5","998","","","","","","","0","1","0","","0.2686616284","0.8","0.4","0.6","0.2","0.1270782113","0.3593301016","0.3382791822","0.2686616284","","","","","","","","","","","","","","76","L","3","","","122","main_expt","",""
"","bandit","204","805348","0.0-164.0-0.0","64191008","wem/bandit_party_1","A2H6RIWM50KWA4","either","5","861","","","","","","","0","0","1","0.2277230314","","0.8","0.4","0.6","0.2","","","","","0.1207154071","0.3680529171","0.3154347028","0.2277230314","","","","","","","","","","76","L","3","","","123","main_expt","",""
"","bandit","205","807679","0.0-165.0-0.0","64191008","wem/bandit_party_1","A2H6RIWM50KWA4","either","5","823","","","","","","","0","0","1","","0.3287090939","0.8","0.4","0.6","0.2","0.1229329119","0.3476523483","0.2966737815","0.3287090939","","","","","","","","","","","","","","76","L","3","","","124","main_expt","",""
"","bandit","206","809781","0.0-166.0-0.0","64191008","wem/bandit_party_1","A2H6RIWM50KWA4","either","5","596","","","","","","","0","0","1","0.3094831126","","0.8","0.4","0.6","0.2","","","","","0.09241122996","0.3564603465","0.3094831126","0.3687339586","","","","","","","","","","75","K","2","","","125","main_expt","",""
"","bandit","207","813828","0.0-167.0-0.0","64191008","wem/bandit_party_1","A2H6RIWM50KWA4","either","5","2541","","","","","","","0","0","1","0.2488993205","","0.8","0.4","0.6","0.2","","","","","0.08418962236","0.3550684458","0.2488993205","0.3836195774","","","","","","","","","","75","K","2","","","126","main_expt","",""
"","bandit","208","817725","0.0-168.0-0.0","64191008","wem/bandit_party_1","A2H6RIWM50KWA4","either","5","2391","","","","","","","0","0","1","","0.154715772","0.8","0.4","0.6","0.2","0.154715772","0.3235559827","0.1953487027","0.3617365958","","","","","","","","","","","","","","72","H","0","img/none_selected.jpg","","127","main_expt","",""
"","bandit","209","820396","0.0-169.0-0.0","64191008","wem/bandit_party_1","A2H6RIWM50KWA4","either","5","1165","","","","","","","0","0","1","","0.3235283493","0.8","0.4","0.6","0.2","0.1556709078","0.312087491","0.2171889907","0.3235283493","","","","","","","","","","","","","","76","L","3","","","128","main_expt","",""
"","bandit","210","822372","0.0-170.0-0.0","64191008","wem/bandit_party_1","A2H6RIWM50KWA4","either","5","470","","","","","","","0","0","1","","0.3453830546","0.8","0.4","0.6","0.2","0.1214200615","0.2843272188","0.2467699801","0.3453830546","","","","","","","","","","","","","","76","L","3","","","129","main_expt","",""
"","bandit","211","824204","0.0-171.0-0.0","64191008","wem/bandit_party_1","A2H6RIWM50KWA4","either","5","325","","","","","","","0","0","1","0.2814443482","","0.8","0.4","0.6","0.2","","","","","0.1377283829","0.2128416856","0.2814443482","0.3242747857","","","","","","","","","","75","K","2","","","130","main_expt","",""
"","bandit","212","826076","0.0-172.0-0.0","64191008","wem/bandit_party_1","A2H6RIWM50KWA4","either","5","366","","","","","","","0","0","1","0.2834176508","","0.8","0.4","0.6","0.2","","","","","0.1397421628","0.2403879813","0.2834176508","0.3417201858","","","","","","","","","","75","K","2","","","131","main_expt","",""
"","bandit","213","829213","0.0-173.0-0.0","64191008","wem/bandit_party_1","A2H6RIWM50KWA4","either","5","1631","","","","","","","0","0","1","","0.2429908031","0.8","0.4","0.6","0.2","0.1061875113","0.2811421594","0.2429908031","0.3498614837","","","","","","","","","","","","","","75","K","2","","","132","main_expt","",""
"","bandit","214","831316","0.0-174.0-0.0","64191008","wem/bandit_party_1","A2H6RIWM50KWA4","either","5","596","","","","","","","0","0","1","0.07774811701","","0.8","0.4","0.6","0.2","","","","","0.07774811701","0.3002858371","0.3053559495","0.3134828643","","","","","","","","","","72","H","0","img/none_selected.jpg","","133","main_expt","",""
"","bandit","215","833412","0.0-175.0-0.0","64191008","wem/bandit_party_1","A2H6RIWM50KWA4","either","5","590","","","","","","","0","0","1","0.08211281178","","0.8","0.4","0.6","0.2","","","","","0.08211281178","0.277406375","0.2693478067","0.3554593188","","","","","","","","","","72","H","0","img/none_selected.jpg","","134","main_expt","",""
"","bandit","216","836084","0.0-176.0-0.0","64191008","wem/bandit_party_1","A2H6RIWM50KWA4","either","5","1167","","","","","","","0","0","1","","0.2897147582","0.8","0.4","0.6","0.2","0.1123817552","0.2897147582","0.3369166079","0.3150900126","","","","","","","","","","","","","","74","J","1","","","135","main_expt","",""
"","bandit","217","837988","0.0-177.0-0.0","64191008","wem/bandit_party_1","A2H6RIWM50KWA4","either","5","398","","","","","","","0","0","1","","0.3590576628","0.8","0.4","0.6","0.2","0.1478339482","0.3590576628","0.268603144","0.3199395785","","","","","","","","","","","","","","74","J","1","","","136","main_expt","",""
"","bandit","218","840269","0.0-178.0-0.0","64191008","wem/bandit_party_1","A2H6RIWM50KWA4","either","5","775","","","","","","","0","0","1","","0.2373427956","0.8","0.4","0.6","0.2","0.1374936615","0.3822427384","0.2373427956","0.33362357","","","","","","","","","","","","","","75","K","2","","","137","main_expt","",""
"","bandit","219","842348","0.0-179.0-0.0","64191008","wem/bandit_party_1","A2H6RIWM50KWA4","either","5","572","","","","","","","0","0","1","0.2206869265","","0.8","0.4","0.6","0.2","","","","","0.159761955","0.3410071165","0.2206869265","0.3611324022","","","","","","","","","","75","K","2","","","138","main_expt","",""
"","bandit","220","844341","0.0-180.0-0.0","64191008","wem/bandit_party_1","A2H6RIWM50KWA4","either","5","486","","","","","","","1","0","0","0.3504145086","","0.8","0.4","0.6","0.2","","","","","0.1363721132","0.3738014659","0.2177966349","0.3504145086","","","","","","","","","","76","L","3","","","139","main_expt","",""
"","bandit","221","846357","0.0-181.0-0.0","64191008","wem/bandit_party_1","A2H6RIWM50KWA4","either","5","509","","","","","","","0","0","1","","0.309774603","0.8","0.4","0.6","0.2","0.1031445192","0.422575493","0.2387685432","0.309774603","","","","","","","","","","","","","","76","L","3","","","140","main_expt","",""
"","bandit","222","848628","0.0-182.0-0.0","64191008","wem/bandit_party_1","A2H6RIWM50KWA4","either","5","765","","","","","","","0","0","1","","0.3506531288","0.8","0.4","0.6","0.2","0.09805286369","0.4439129864","0.2575087366","0.3506531288","","","","","","","","","","","","","","76","L","3","","","141","main_expt","",""
"","bandit","223","850733","0.0-183.0-0.0","64191008","wem/bandit_party_1","A2H6RIWM50KWA4","either","5","599","","","","","","","0","0","1","","0.2965027242","0.8","0.4","0.6","0.2","0.1149002948","0.4323802182","0.2392038972","0.2965027242","","","","","","","","","","","","","","76","L","3","","","142","main_expt","",""
"","bandit","224","852852","0.0-184.0-0.0","64191008","wem/bandit_party_1","A2H6RIWM50KWA4","either","5","613","","","","","","","0","0","1","0.2087517366","","0.8","0.4","0.6","0.2","","","","","0.1209542099","0.4358412593","0.2216470548","0.2087517366","","","","","","","","","","76","L","3","","","143","main_expt","",""
"","bandit","225","855588","0.0-185.0-0.0","64191008","wem/bandit_party_1","A2H6RIWM50KWA4","either","5","1230","","","","","","","0","0","1","0.2224896139","","0.8","0.4","0.6","0.2","","","","","0.1202521083","0.4407373256","0.2224896139","0.2313605626","","","","","","","","","","75","K","2","","","144","main_expt","",""
"","bandit","226","857868","0.0-186.0-0.0","64191008","wem/bandit_party_1","A2H6RIWM50KWA4","either","5","773","","","","","","","0","0","1","","0.1925605464","0.8","0.4","0.6","0.2","0.1619743669","0.4661091035","0.1925605464","0.1785565547","","","","","","","","","","","","","","75","K","2","","","145","main_expt","",""
"","bandit","227","859508","0.0-187.0-0.0","64191008","wem/bandit_party_1","A2H6RIWM50KWA4","either","5","133","","","","","","","0","0","1","","0.2069800611","0.8","0.4","0.6","0.2","0.1664631043","0.4637097668","0.2069800611","0.1770660648","","","","","","","","","","","","","","75","K","2","","","146","main_expt","",""
"","bandit","228","862045","0.0-188.0-0.0","64191008","wem/bandit_party_1","A2H6RIWM50KWA4","either","5","1032","","","","","","","0","0","1","0.1669241763","","0.8","0.4","0.6","0.2","","","","","0.1669241763","0.4700491642","0.2489662189","0.1063371611","","","","","","","","","","72","H","0","img/none_selected.jpg","","147","main_expt","",""
"","bandit","229","864181","0.0-189.0-0.0","64191008","wem/bandit_party_1","A2H6RIWM50KWA4","either","5","629","","","","","","","0","0","1","0.1581456949","","0.8","0.4","0.6","0.2","","","","","0.1581456949","0.4648109734","0.1946464158","0.1216370817","","","","","","","","","","72","H","0","img/none_selected.jpg","","148","main_expt","",""
"","bandit","230","866676","0.0-190.0-0.0","64191008","wem/bandit_party_1","A2H6RIWM50KWA4","either","5","990","","","","","","","0","0","1","","0.1024256959","0.8","0.4","0.6","0.2","0.1698392466","0.4635511513","0.1826562491","0.1024256959","","","","","","","","","","","","","","76","L","3","","","149","main_expt","",""
"","bandit","231","869236","0.0-191.0-0.0","64191008","wem/bandit_party_1","A2H6RIWM50KWA4","either","5","1054","","","","","","","0","0","1","","0.1371094633","0.8","0.4","0.6","0.2","0.2140114634","0.4445017148","0.1750473563","0.1371094633","","","","","","","","","","","","","","76","L","3","","","150","main_expt","",""
"","bandit","232","872957","0.0-192.0-0.0","64191008","wem/bandit_party_1","A2H6RIWM50KWA4","either","5","2214","","","","","","","0","0","1","0.1702433702","","0.8","0.4","0.6","0.2","","","","","0.2392960001","0.4434799742","0.1109536645","0.1702433702","","","","","","","","","","76","L","3","","","151","main_expt","",""
"","bandit","233","874996","0.0-193.0-0.0","64191008","wem/bandit_party_1","A2H6RIWM50KWA4","either","5","532","","","","","","","0","0","1","0.1143086707","","0.8","0.4","0.6","0.2","","","","","0.2095863317","0.4451665291","0.1143086707","0.1860489046","","","","","","","","","","75","K","2","","","152","main_expt","",""
"","bandit","234","877846","0.0-194.0-0.0","64191008","wem/bandit_party_1","A2H6RIWM50KWA4","either","5","1341","","","","","","","1","0","0","0.1236290712","","0.8","0.4","0.6","0.2","","","","","0.2543258611","0.4401532833","0.1236290712","0.2117094388","","","","","","","","","","75","K","2","","","153","main_expt","",""
"","bandit","235","880796","0.0-195.0-0.0","64191008","wem/bandit_party_1","A2H6RIWM50KWA4","either","5","1444","","","","","","","0","0","1","0.1600695342","","0.8","0.4","0.6","0.2","","","","","0.2602259906","0.4516855879","0.1600695342","0.2072389033","","","","","","","","","","75","K","2","","","154","main_expt","",""
"","bandit","236","884333","0.0-196.0-0.0","64191008","wem/bandit_party_1","A2H6RIWM50KWA4","either","5","2031","","","","","","","0","0","1","","0.1770288166","0.8","0.4","0.6","0.2","0.2750581274","0.4480264808","0.1770288166","0.1986333914","","","","","","","","","","","","","","75","K","2","","","155","main_expt","",""
"","bandit","237","887596","0.0-197.0-0.0","64191008","wem/bandit_party_1","A2H6RIWM50KWA4","either","5","1757","","","","","","","0","0","1","0.1761817894","","0.8","0.4","0.6","0.2","","","","","0.2438045727","0.4260414265","0.1761817894","0.2054640346","","","","","","","","","","75","K","2","","","156","main_expt","",""
"","bandit","238","890148","0.0-198.0-0.0","64191008","wem/bandit_party_1","A2H6RIWM50KWA4","either","5","1046","","","","","","","0","0","1","0.1998830888","","0.8","0.4","0.6","0.2","","","","","0.2857025143","0.4365201507","0.1998830888","0.1810715383","","","","","","","","","","75","K","2","","","157","main_expt","",""
"","bandit","239","892468","0.0-199.0-0.0","64191008","wem/bandit_party_1","A2H6RIWM50KWA4","either","5","813","","","","","","","0","0","1","","0.2118906364","0.8","0.4","0.6","0.2","0.2887719476","0.4076244479","0.2150354531","0.2118906364","","","","","","","","","","","","","","76","L","3","","","158","main_expt","",""
"","bandit","240","894869","0.0-200.0-0.0","64191008","wem/bandit_party_1","A2H6RIWM50KWA4","either","5","894","","","","","","","0","1","0","","0.2293976715","0.8","0.4","0.6","0.2","0.2859462397","0.403953851","0.2221069796","0.2293976715","","","","","","","","","","","","","","76","L","3","","","159","main_expt","",""
"","bandit","241","897197","0.0-201.0-0.0","64191008","wem/bandit_party_1","A2H6RIWM50KWA4","either","5","820","","","","","","","0","0","1","","0.2186051381","0.8","0.4","0.6","0.2","0.207432816","0.4282135537","0.2627335039","0.2186051381","","","","","","","","","","","","","","76","L","3","","","160","main_expt","",""
"","bandit","242","900108","0.0-202.0-0.0","64191008","wem/bandit_party_1","A2H6RIWM50KWA4","either","5","1405","","","","","","","0","0","1","0.2175927206","","0.8","0.4","0.6","0.2","","","","","0.1611694724","0.4479073124","0.2922457848","0.2175927206","","","","","","","","","","76","L","3","","","161","main_expt","",""
"","bandit","243","902572","0.0-203.0-0.0","64191008","wem/bandit_party_1","A2H6RIWM50KWA4","either","5","957","","","","","","","0","0","1","0.2370404117","","0.8","0.4","0.6","0.2","","","","","0.14378348","0.4456201243","0.3040212123","0.2370404117","","","","","","","","","","76","L","3","","","162","main_expt","",""
"","bandit","244","904868","0.0-204.0-0.0","64191008","wem/bandit_party_1","A2H6RIWM50KWA4","either","5","788","","","","","","","0","0","1","0.2933359027","","0.8","0.4","0.6","0.2","","","","","0.1707099899","0.4384930657","0.2933359027","0.2778780432","","","","","","","","","","75","K","2","","","163","main_expt","",""
"","bandit","245","907077","0.0-205.0-0.0","64191008","wem/bandit_party_1","A2H6RIWM50KWA4","either","5","702","","","","","","","0","0","1","0.1933693166","","0.8","0.4","0.6","0.2","","","","","0.1933693166","0.4231568034","0.2388203062","0.2643388611","","","","","","","","","","72","H","0","img/none_selected.jpg","","164","main_expt","",""
"","bandit","246","909012","0.0-206.0-0.0","64191008","wem/bandit_party_1","A2H6RIWM50KWA4","either","5","428","","","","","","","0","0","1","0.2406324952","","0.8","0.4","0.6","0.2","","","","","0.2406324952","0.4412535734","0.2646204916","0.1967204453","","","","","","","","","","72","H","0","img/none_selected.jpg","","165","main_expt","",""
"","bandit","247","912308","0.0-207.0-0.0","64191008","wem/bandit_party_1","A2H6RIWM50KWA4","either","5","1789","","","","","","","0","0","1","0.2650462377","","0.8","0.4","0.6","0.2","","","","","0.2650462377","0.438364003","0.2591758032","0.1567937345","","","","","","","","","","72","H","0","img/none_selected.jpg","","166","main_expt","",""
"","bandit","248","914461","0.0-208.0-0.0","64191008","wem/bandit_party_1","A2H6RIWM50KWA4","either","5","646","","","","","","","0","0","1","","0.4290991351","0.8","0.4","0.6","0.2","0.245875583","0.4290991351","0.1955934818","0.1201482918","","","","","","","","","","","","","","74","J","1","","","167","main_expt","",""
"","bandit","249","916381","0.0-209.0-0.0","64191008","wem/bandit_party_1","A2H6RIWM50KWA4","either","5","413","","","","","","","0","1","0","","0.4510860662","0.8","0.4","0.6","0.2","0.257303599","0.4510860662","0.2090603634","0.0936051119","","","","","","","","","","","","","","74","J","1","","","168","main_expt","",""
"","bandit","250","922085","0.0-210.0-0.0","64191008","wem/bandit_party_1","A2H6RIWM50KWA4","either","5","4198","","","","","","","0","0","1","","0.4491424364","0.8","0.4","0.6","0.2","0.2993732043","0.4491424364","0.2678479696","0.08775096918","","","","","","","","","","","","","","74","J","1","","","169","main_expt","",""
"","bandit","251","926044","0.0-211.0-0.0","64191008","wem/bandit_party_1","A2H6RIWM50KWA4","either","5","2453","","","","","","","0","0","1","","0.4332244901","0.8","0.4","0.6","0.2","0.3388977639","0.4332244901","0.2532125956","0.06743429675","","","","","","","","","","","","","","74","J","1","","","170","main_expt","",""
"","bandit","252","928812","0.0-212.0-0.0","64191008","wem/bandit_party_1","A2H6RIWM50KWA4","either","5","1260","","","","","","","0","0","1","0.4405036994","","0.8","0.4","0.6","0.2","","","","","0.2947926635","0.4405036994","0.2568627054","0.05979118822","","","","","","","","","","74","J","1","","","171","main_expt","",""
"","bandit","253","933278","0.0-213.0-0.0","64191008","wem/bandit_party_1","A2H6RIWM50KWA4","either","5","2959","","","","","","","0","0","1","0.2451563353","","0.8","0.4","0.6","0.2","","","","","0.2892529657","0.4358521759","0.2451563353","0.03200499914","","","","","","","","","","75","K","2","","","172","main_expt","",""
"","bandit","254","936845","0.0-214.0-0.0","64191008","wem/bandit_party_1","A2H6RIWM50KWA4","either","5","2059","","","","","","","0","0","1","0.3003395367","","0.8","0.4","0.6","0.2","","","","","0.2571917514","0.4471617722","0.3003395367","0.04613358223","","","","","","","","","","75","K","2","","","173","main_expt","",""
"","bandit","255","940284","0.0-215.0-0.0","64191008","wem/bandit_party_1","A2H6RIWM50KWA4","either","5","1933","","","","","","","0","0","1","","0.2545998681","0.8","0.4","0.6","0.2","0.244173221","0.4560251174","0.2545998681","0.05969677181","","","","","","","","","","","","","","75","K","2","","","174","main_expt","",""
"","bandit","256","943637","0.0-216.0-0.0","64191008","wem/bandit_party_1","A2H6RIWM50KWA4","either","5","1845","","","","","","","0","0","1","0.05930066603","","0.8","0.4","0.6","0.2","","","","","0.2038098688","0.4379349024","0.3383135611","0.05930066603","","","","","","","","","","76","L","3","","","175","main_expt","",""
"","bandit","257","946396","0.0-217.0-0.0","64191008","wem/bandit_party_1","A2H6RIWM50KWA4","either","5","1251","","","","","","","0","0","1","","0.08110879181","0.8","0.4","0.6","0.2","0.2053823003","0.4328841116","0.3880627729","0.08110879181","","","","","","","","","","","","","","76","L","3","","","176","main_expt","",""
"","bandit","258","949004","0.0-218.0-0.0","64191008","wem/bandit_party_1","A2H6RIWM50KWA4","either","5","1099","","","","","","","0","0","1","","0.07611568943","0.8","0.4","0.6","0.2","0.2193083282","0.3965365967","0.3920994557","0.07611568943","","","","","","","","","","","","","","76","L","3","","","177","main_expt","",""
"","bandit","259","954149","0.0-219.0-0.0","64191008","wem/bandit_party_1","A2H6RIWM50KWA4","either","5","3637","","","","","","","0","0","1","","0.1220467165","0.8","0.4","0.6","0.2","0.1904263594","0.3899234309","0.3882277994","0.1220467165","","","","","","","","","","","","","","76","L","3","","","178","main_expt","",""
"","bandit","260","957380","0.0-220.0-0.0","64191008","wem/bandit_party_1","A2H6RIWM50KWA4","either","5","1724","","","","","","","1","0","0","0.3939691408","","0.8","0.4","0.6","0.2","","","","","0.2212788648","0.4238443777","0.3939691408","0.1698853315","","","","","","","","","","75","K","2","","","179","main_expt","",""
"","bandit","261","962300","0.0-221.0-0.0","64191008","wem/bandit_party_1","A2H6RIWM50KWA4","either","5","3412","","","","","","","1","0","0","0.4074656662","","0.8","0.4","0.6","0.2","","","","","0.2640717145","0.4487400994","0.4074656662","0.1374762061","","","","","","","","","","75","K","2","","","180","main_expt","",""
"","bandit","262","965559","0.0-222.0-0.0","64191008","wem/bandit_party_1","A2H6RIWM50KWA4","either","5","1748","","","","","","","0","0","1","","0.3724421945","0.8","0.4","0.6","0.2","0.2426483564","0.4314573438","0.3724421945","0.09961924189","","","","","","","","","","","","","","75","K","2","","","181","main_expt","",""
"","bandit","263","968599","0.0-223.0-0.0","64191008","wem/bandit_party_1","A2H6RIWM50KWA4","either","5","1531","","","","","","","0","0","1","","0.4458059303","0.8","0.4","0.6","0.2","0.2001563476","0.4458059303","0.2998177931","0.1391043194","","","","","","","","","","","","","","74","J","1","","","182","main_expt","",""
"","bandit","264","972691","0.0-224.0-0.0","64191008","wem/bandit_party_1","A2H6RIWM50KWA4","either","5","2586","","","","","","","0","0","1","","0.3629728763","0.8","0.4","0.6","0.2","0.2167094124","0.4485460149","0.3629728763","0.1336424596","","","","","","","","","","","","","","75","K","2","","","183","main_expt","",""
"","bandit","265","976988","0.0-225.0-0.0","64191008","wem/bandit_party_1","A2H6RIWM50KWA4","either","5","2789","","","","","","","0","0","1","0.3763603645","","0.8","0.4","0.6","0.2","","","","","0.2402813617","0.4078350507","0.3763603645","0.115911235","","","","","","","","","","75","K","2","","","184","main_expt","",""
"","bandit","266","979867","0.0-226.0-0.0","64191008","wem/bandit_party_1","A2H6RIWM50KWA4","either","5","1371","","","","","","","0","0","1","","0.3472982705","0.8","0.4","0.6","0.2","0.2745112141","0.3805788675","0.3472982705","0.1394203739","","","","","","","","","","","","","","75","K","2","","","185","main_expt","",""
"","bandit","267","994836","0.0-227.0-0.0","64191008","wem/bandit_party_1","A2H6RIWM50KWA4","either","5","13461","","","","","","","0","0","1","","0.1557479742","0.8","0.4","0.6","0.2","0.2774566956","0.4236809331","0.3095995051","0.1557479742","","","","","","","","","","","","","","76","L","3","","","186","main_expt","",""
"","bandit","268","997587","0.0-228.0-0.0","64191008","wem/bandit_party_1","A2H6RIWM50KWA4","either","5","1243","","","","","","","0","0","1","","0.1823611596","0.8","0.4","0.6","0.2","0.2876011691","0.4058627081","0.2567332284","0.1823611596","","","","","","","","","","","","","","76","L","3","","","187","main_expt","",""
"","bandit","269","1000363","0.0-229.0-0.0","64191008","wem/bandit_party_1","A2H6RIWM50KWA4","either","5","1268","","","","","","","0","0","1","","0.1854179297","0.8","0.4","0.6","0.2","0.2947112378","0.3913346521","0.2555256861","0.1854179297","","","","","","","","","","","","","","76","L","3","","","188","main_expt","",""
"","bandit","270","1003268","0.0-230.0-0.0","64191008","wem/bandit_party_1","A2H6RIWM50KWA4","either","5","1397","","","","","","","0","0","1","0.2009875262","","0.8","0.4","0.6","0.2","","","","","0.2581494","0.3760164219","0.2009875262","0.1875645599","","","","","","","","","","75","K","2","","","189","main_expt","",""
"","bandit","271","1005764","0.0-231.0-0.0","64191008","wem/bandit_party_1","A2H6RIWM50KWA4","either","5","989","","","","","","","0","0","1","0.2055488595","","0.8","0.4","0.6","0.2","","","","","0.1756323468","0.3327352817","0.2055488595","0.2018323604","","","","","","","","","","75","K","2","","","190","main_expt","",""
"","bandit","272","1008283","0.0-232.0-0.0","64191008","wem/bandit_party_1","A2H6RIWM50KWA4","either","5","1012","","","","","","","0","0","1","","0.3015177445","0.8","0.4","0.6","0.2","0.2521570866","0.3015177445","0.1506387864","0.221094727","","","","","","","","","","","","","","74","J","1","","","191","main_expt","",""
"","bandit","273","1010123","0.0-233.0-0.0","64191008","wem/bandit_party_1","A2H6RIWM50KWA4","either","5","333","","","","","","","1","0","0","0.2964739449","","0.8","0.4","0.6","0.2","","","","","0.2964739449","0.2773298268","0.2027442266","0.2320570195","","","","","","","","","","72","H","0","img/none_selected.jpg","","192","main_expt","",""
"","bandit","274","1012979","0.0-234.0-0.0","64191008","wem/bandit_party_1","A2H6RIWM50KWA4","either","5","1349","","","","","","","0","0","1","0.2612966838","","0.8","0.4","0.6","0.2","","","","","0.2612966838","0.2836613797","0.1969137872","0.2948950962","","","","","","","","","","72","H","0","img/none_selected.jpg","","193","main_expt","",""
"","bandit","275","1016716","0.0-235.0-0.0","64191008","wem/bandit_party_1","A2H6RIWM50KWA4","either","5","2228","","","","","","","0","0","1","0.3292914436","","0.8","0.4","0.6","0.2","","","","","0.3292914436","0.2799350415","0.2114994946","0.2602906927","","","","","","","","","","72","H","0","img/none_selected.jpg","","194","main_expt","",""
"","bandit","276","1018844","0.0-236.0-0.0","64191008","wem/bandit_party_1","A2H6RIWM50KWA4","either","5","618","","","","","","","0","0","1","0.4070308407","","0.8","0.4","0.6","0.2","","","","","0.4070308407","0.2068597772","0.2467939011","0.1771499101","","","","","","","","","","72","H","0","img/none_selected.jpg","","195","main_expt","",""
"","bandit","277","1021444","0.0-237.0-0.0","64191008","wem/bandit_party_1","A2H6RIWM50KWA4","either","5","1092","","","","","","","0","0","1","0.2731811988","","0.8","0.4","0.6","0.2","","","","","0.3494820729","0.2679469531","0.2731811988","0.1746274925","","","","","","","","","","75","K","2","","","196","main_expt","",""
"","bandit","278","1023059","0.0-238.0-0.0","64191008","wem/bandit_party_1","A2H6RIWM50KWA4","either","5","108","","","","","","","1","0","0","0.2512114903","","0.8","0.4","0.6","0.2","","","","","0.3571939809","0.2448078588","0.2512114903","0.193224684","","","","","","","","","","75","K","2","","","197","main_expt","",""
"","bandit","279","1025155","0.0-239.0-0.0","64191008","wem/bandit_party_1","A2H6RIWM50KWA4","either","5","589","","","","","","","0","0","1","0.190651112","","0.8","0.4","0.6","0.2","","","","","0.382430028","0.2433987968","0.190651112","0.1771509929","","","","","","","","","","75","K","2","","","198","main_expt","",""
"","bandit","280","1027092","0.0-240.0-0.0","64191008","wem/bandit_party_1","A2H6RIWM50KWA4","either","5","429","","","","","","","0","0","1","","0.2466668772","0.8","0.4","0.6","0.2","0.3353474301","0.2653624242","0.1701189695","0.2466668772","","","","","","","","","","","","","","76","L","3","","","199","main_expt","",""
"","bandit","281","1028995","0.0-241.0-0.0","64191008","wem/bandit_party_1","A2H6RIWM50KWA4","either","5","396","","","","","","","0","1","0","","0.2477816141","0.8","0.4","0.6","0.2","0.3321976498","0.2551376492","0.1656975488","0.2477816141","","","","","","","","","","","","","","76","L","3","","","200","main_expt","",""
"","bandit","282","1031011","0.0-242.0-0.0","64191008","wem/bandit_party_1","A2H6RIWM50KWA4","either","5","507","","","","","","","0","1","0","","0.2744817861","0.8","0.4","0.6","0.2","0.3218117355","0.2660639347","0.1647298582","0.2744817861","","","","","","","","","","","","","","76","L","3","","","201","main_expt","",""
"","bandit","283","1033268","0.0-243.0-0.0","64191008","wem/bandit_party_1","A2H6RIWM50KWA4","either","5","748","","","","","","","0","0","1","","0.3043062986","0.8","0.4","0.6","0.2","0.2949214693","0.2220900594","0.1242041815","0.3043062986","","","","","","","","","","","","","","76","L","3","","","202","main_expt","",""
"","bandit","284","1035492","0.0-244.0-0.0","64191008","wem/bandit_party_1","A2H6RIWM50KWA4","either","5","715","","","","","","","0","0","1","","0.272185569","0.8","0.4","0.6","0.2","0.300077299","0.1543353204","0.1684487429","0.272185569","","","","","","","","","","","","","","76","L","3","","","203","main_expt","",""
"","bandit","285","1037941","0.0-245.0-0.0","64191008","wem/bandit_party_1","A2H6RIWM50KWA4","either","5","941","","","","","","","0","1","0","","0.2610767704","0.8","0.4","0.6","0.2","0.2866085977","0.1605482003","0.1666409686","0.2610767704","","","","","","","","","","","","","","76","L","3","","","204","main_expt","",""
"","bandit","286","1040429","0.0-246.0-0.0","64191008","wem/bandit_party_1","A2H6RIWM50KWA4","either","5","980","","","","","","","0","1","0","","0.2832615928","0.8","0.4","0.6","0.2","0.2695546272","0.1406914754","0.2197286508","0.2832615928","","","","","","","","","","","","","","76","L","3","","","205","main_expt","",""
"","bandit","287","1042684","0.0-247.0-0.0","64191008","wem/bandit_party_1","A2H6RIWM50KWA4","either","5","747","","","","","","","0","0","1","","0.300913322","0.8","0.4","0.6","0.2","0.2622178416","0.1138947463","0.2754509052","0.300913322","","","","","","","","","","","","","","76","L","3","","","206","main_expt","",""
"","bandit","288","1044668","0.0-248.0-0.0","64191008","wem/bandit_party_1","A2H6RIWM50KWA4","either","5","476","","","","","","","0","0","1","","0.3260258847","0.8","0.4","0.6","0.2","0.2498186578","0.1096702189","0.2664869377","0.3260258847","","","","","","","","","","","","","","76","L","3","","","207","main_expt","",""
"","bandit","289","1046588","0.0-249.0-0.0","64191008","wem/bandit_party_1","A2H6RIWM50KWA4","either","5","412","","","","","","","0","0","1","","0.3173829003","0.8","0.4","0.6","0.2","0.2335358635","0.09922356593","0.2686565688","0.3173829003","","","","","","","","","","","","","","76","L","3","","","208","main_expt","",""
"","bandit","290","1048445","0.0-250.0-0.0","64191008","wem/bandit_party_1","A2H6RIWM50KWA4","either","5","348","","","","","","","1","0","0","0.3153846937","","0.8","0.4","0.6","0.2","","","","","0.2638942681","0.101567507","0.2380255957","0.3153846937","","","","","","","","","","76","L","3","","","209","main_expt","",""
"","bandit","291","1050324","0.0-251.0-0.0","64191008","wem/bandit_party_1","A2H6RIWM50KWA4","either","5","370","","","","","","","0","1","0","","0.3010876552","0.8","0.4","0.6","0.2","0.2526926237","0.08675379402","0.2507768727","0.3010876552","","","","","","","","","","","","","","76","L","3","","","210","main_expt","",""
"","bandit","292","1052156","0.0-252.0-0.0","64191008","wem/bandit_party_1","A2H6RIWM50KWA4","either","5","323","","","","","","","0","0","1","","0.2864900033","0.8","0.4","0.6","0.2","0.2740367769","0.07512021269","0.2685142319","0.2864900033","","","","","","","","","","","","","","76","L","3","","","211","main_expt","",""
"","bandit","293","1053989","0.0-253.0-0.0","64191008","wem/bandit_party_1","A2H6RIWM50KWA4","either","5","325","","","","","","","0","0","1","","0.3163372434","0.8","0.4","0.6","0.2","0.2440836191","0.08144254236","0.260511483","0.3163372434","","","","","","","","","","","","","","76","L","3","","","212","main_expt","",""
"","bandit","294","1055765","0.0-254.0-0.0","64191008","wem/bandit_party_1","A2H6RIWM50KWA4","either","5","267","","","","","","","0","0","1","","0.2701305136","0.8","0.4","0.6","0.2","0.2341903104","0.06585574052","0.2579605047","0.2701305136","","","","","","","","","","","","","","76","L","3","","","213","main_expt","",""
"","bandit","295","1057620","0.0-255.0-0.0","64191008","wem/bandit_party_1","A2H6RIWM50KWA4","either","5","347","","","","","","","0","0","1","","0.302599165","0.8","0.4","0.6","0.2","0.2097526345","0.08686614453","0.2470456849","0.302599165","","","","","","","","","","","","","","76","L","3","","","214","main_expt","",""
"","bandit","296","1059453","0.0-256.0-0.0","64191008","wem/bandit_party_1","A2H6RIWM50KWA4","either","5","325","","","","","","","1","0","0","0.3285383036","","0.8","0.4","0.6","0.2","","","","","0.1796882487","0.1068548489","0.3285383036","0.2968005471","","","","","","","","","","75","K","2","","","215","main_expt","",""
"","bandit","297","1061860","0.0-257.0-0.0","64191008","wem/bandit_party_1","A2H6RIWM50KWA4","either","5","899","","","","","","","0","0","1","","0.1211736082","0.8","0.4","0.6","0.2","0.2237900511","0.1211736082","0.3780044773","0.2835536598","","","","","","","","","","","","","","74","J","1","","","216","main_expt","",""
"","bandit","298","1063740","0.0-258.0-0.0","64191008","wem/bandit_party_1","A2H6RIWM50KWA4","either","5","372","","","","","","","0","0","1","0.2265358539","","0.8","0.4","0.6","0.2","","","","","0.2265358539","0.09343701815","0.3939228946","0.2520762718","","","","","","","","","","72","H","0","img/none_selected.jpg","","217","main_expt","",""
"","bandit","299","1065660","0.0-259.0-0.0","64191008","wem/bandit_party_1","A2H6RIWM50KWA4","either","5","412","","","","","","","0","0","1","0.2364013437","","0.8","0.4","0.6","0.2","","","","","0.2364013437","0.1001055386","0.3198270803","0.2562699476","","","","","","","","","","72","H","0","img/none_selected.jpg","","218","main_expt","",""
"","bandit","300","1067500","0.0-260.0-0.0","64191008","wem/bandit_party_1","A2H6RIWM50KWA4","either","5","331","","","","","","","0","1","0","","0.3502502288","0.8","0.4","0.6","0.2","0.2810560361","0.09524874014","0.3502502288","0.3002431464","","","","","","","","","","","","","","75","K","2","","","219","main_expt","",""
"","bandit","301","1070191","0.0-261.0-0.0","64191008","wem/bandit_party_1","A2H6RIWM50KWA4","either","5","1180","","","","","","","0","0","1","","0.3402456168","0.8","0.4","0.6","0.2","0.3027429446","0.1304899995","0.3402456168","0.3365413303","","","","","","","","","","","","","","75","K","2","","","220","main_expt","",""
"","bandit","302","1071861","0.0-262.0-0.0","64191008","wem/bandit_party_1","A2H6RIWM50KWA4","either","5","161","","","","","","","0","1","0","","0.2946103072","0.8","0.4","0.6","0.2","0.3132134988","0.1272814923","0.3770059732","0.2946103072","","","","","","","","","","","","","","76","L","3","","","221","main_expt","",""
"","bandit","303","1073749","0.0-263.0-0.0","64191008","wem/bandit_party_1","A2H6RIWM50KWA4","either","5","378","","","","","","","0","0","1","","0.3864421123","0.8","0.4","0.6","0.2","0.2424821827","0.1654407056","0.3864421123","0.3267284332","","","","","","","","","","","","","","75","K","2","","","222","main_expt","",""
"","bandit","304","1076436","0.0-264.0-0.0","64191008","wem/bandit_party_1","A2H6RIWM50KWA4","either","5","1179","","","","","","","0","0","1","","0.3175152631","0.8","0.4","0.6","0.2","0.2595367495","0.1788325852","0.4205211408","0.3175152631","","","","","","","","","","","","","","76","L","3","","","223","main_expt","",""
"","bandit","305","1078580","0.0-265.0-0.0","64191008","wem/bandit_party_1","A2H6RIWM50KWA4","either","5","636","","","","","","","0","1","0","","0.3192400935","0.8","0.4","0.6","0.2","0.328819141","0.1736623033","0.4131889957","0.3192400935","","","","","","","","","","","","","","76","L","3","","","224","main_expt","",""
"","bandit","306","1081357","0.0-266.0-0.0","64191008","wem/bandit_party_1","A2H6RIWM50KWA4","either","5","1267","","","","","","","0","1","0","","0.3096750449","0.8","0.4","0.6","0.2","0.356121412","0.1721911447","0.4001513574","0.3096750449","","","","","","","","","","","","","","76","L","3","","","225","main_expt","",""
"","bandit","307","1083852","0.0-267.0-0.0","64191008","wem/bandit_party_1","A2H6RIWM50KWA4","either","5","986","","","","","","","0","1","0","","0.3142833063","0.8","0.4","0.6","0.2","0.3394019192","0.2133818582","0.3963688582","0.3142833063","","","","","","","","","","","","","","76","L","3","","","226","main_expt","",""
"","bandit","308","1086348","0.0-268.0-0.0","64191008","wem/bandit_party_1","A2H6RIWM50KWA4","either","5","987","","","","","","","0","0","1","","0.3096885674","0.8","0.4","0.6","0.2","0.2860553004","0.2620007467","0.3979714495","0.3096885674","","","","","","","","","","","","","","76","L","3","","","227","main_expt","",""
"","bandit","309","1088356","0.0-269.0-0.0","64191008","wem/bandit_party_1","A2H6RIWM50KWA4","either","5","499","","","","","","","0","0","1","","0.3048295172","0.8","0.4","0.6","0.2","0.2967856672","0.2961930455","0.3811043637","0.3048295172","","","","","","","","","","","","","","76","L","3","","","228","main_expt","",""
"","bandit","310","1090525","0.0-270.0-0.0","64191008","wem/bandit_party_1","A2H6RIWM50KWA4","either","5","659","","","","","","","0","0","1","0.3488149186","","0.8","0.4","0.6","0.2","","","","","0.2857745529","0.3081123415","0.3488149186","0.2553920021","","","","","","","","","","75","K","2","","","229","main_expt","",""
"","bandit","311","1092668","0.0-271.0-0.0","64191008","wem/bandit_party_1","A2H6RIWM50KWA4","either","5","636","","","","","","","0","0","1","","0.2783794412","0.8","0.4","0.6","0.2","0.2589404948","0.3027177586","0.2883621188","0.2783794412","","","","","","","","","","","","","","76","L","3","","","230","main_expt","",""
"","bandit","312","1095171","0.0-272.0-0.0","64191008","wem/bandit_party_1","A2H6RIWM50KWA4","either","5","994","","","","","","","0","0","1","","0.2735536708","0.8","0.4","0.6","0.2","0.2628441024","0.2495346478","0.2444465504","0.2735536708","","","","","","","","","","","","","","76","L","3","","","231","main_expt","",""
"","bandit","313","1097147","0.0-273.0-0.0","64191008","wem/bandit_party_1","A2H6RIWM50KWA4","either","5","468","","","","","","","0","0","1","","0.2262440502","0.8","0.4","0.6","0.2","0.276537748","0.2185872191","0.2996930955","0.2262440502","","","","","","","","","","","","","","76","L","3","","","232","main_expt","",""
"","bandit","314","1099187","0.0-274.0-0.0","64191008","wem/bandit_party_1","A2H6RIWM50KWA4","either","5","532","","","","","","","0","1","0","","0.2171974885","0.8","0.4","0.6","0.2","0.2485723575","0.1874863907","0.3103031796","0.2171974885","","","","","","","","","","","","","","76","L","3","","","233","main_expt","",""
