"consent","trial_type","trial_index","time_elapsed","internal_node_id","subjID","study","MID","cond","drift","rt","responses","button_pressed","key_press","like","value","connected","gems","bombs","no_reward","GemPrChosen","BombPrChosen","GainOverPainPr_0","GainOverPainPr_1","GainOverPainPr_2","GainOverPainPr_3","LosePr_0","LosePr_1","LosePr_2","LosePr_3","WinPr_0","WinPr_1","WinPr_2","WinPr_3","Q0","Q1","Q2","gender","age","ethnicity","label","expt_phase","target","respCharCode","respKey","respChoiceNum","respChoice","practice","trial_counter","trial_label","Q0_index","view_history"
"GDM/GDM_behavioral_consent_30min_online.html","consent","0","11496","0.0-0.0","64226708","wem/bandit_party_1","A1WXPOLDS1Y9R4","either","4","","","","","","","","","","","","","","","","","","","","","","","","","","","","","","","","","","","","","","","","","",""
"","survey-text","1","14231","0.0-1.0","64226708","wem/bandit_party_1","A1WXPOLDS1Y9R4","either","4","1719","{""Q0"":""A1WXPOLDS1Y9R4""}","","","","","","","","","","","","","","","","","","","","","","","","","","","","","","","","","","","","","","","",""
"","button-response","2","16753","0.0-2.0","64226708","wem/bandit_party_1","A1WXPOLDS1Y9R4","either","4","1514","","0","","","","","","","","","","","","","","","","","","","","","","","","","","","","","","","","","","","","","","",""
"","text-replacement","3","25743","0.0-3.0","64226708","wem/bandit_party_1","A1WXPOLDS1Y9R4","either","4","7972","","","32","","","","","","","","","","","","","","","","","","","","","","","","","","","","","","","","","","","","","",""
"","text-replacement","4","26473","0.0-4.0","64226708","wem/bandit_party_1","A1WXPOLDS1Y9R4","either","4","727","","","32","","","","","","","","","","","","","","","","","","","","","","","","","","","","","","","","","","","","","",""
"","identification","5","29656","0.0-6.0-0.0","64226708","wem/bandit_party_1","A1WXPOLDS1Y9R4","either","4","3158","","","","2","4","4","","","","","","","","","","","","","","","","","","","","","","","","pre","identification_pre","the Democratic Party","","","","","","","","",""
"","identification","6","34112","0.0-6.0-1.0","64226708","wem/bandit_party_1","A1WXPOLDS1Y9R4","either","4","3411","","","","5","4","2","","","","","","","","","","","","","","","","","","","","","","","","pre","identification_pre","the Republican party","","","","","","","","",""
"","text-replacement","7","41202","0.0-7.0","64226708","wem/bandit_party_1","A1WXPOLDS1Y9R4","either","4","6087","","","32","","","","","","","","","","","","","","","","","","","","","","","","","","","","","","","","","","","","","",""
"","text-replacement","8","41839","0.0-8.0","64226708","wem/bandit_party_1","A1WXPOLDS1Y9R4","either","4","635","","","32","","","","","","","","","","","","","","","","","","","","","","","","","","","","","","","","","","","","","",""
"","text-replacement","9","42280","0.0-9.0","64226708","wem/bandit_party_1","A1WXPOLDS1Y9R4","either","4","439","","","32","","","","","","","","","","","","","","","","","","","","","","","","","","","","","","","","","","","","","",""
"","text-replacement","10","43010","0.0-10.0","64226708","wem/bandit_party_1","A1WXPOLDS1Y9R4","either","4","727","","","32","","","","","","","","","","","","","","","","","","","","","","","","","","","","","","","","","","","","","",""
"","text-replacement","11","43494","0.0-11.0","64226708","wem/bandit_party_1","A1WXPOLDS1Y9R4","either","4","480","","","32","","","","","","","","","","","","","","","","","","","","","","","","","","","","","","","","","","","","","",""
"","bandit","12","46741","0.0-12.0-0.0","64226708","wem/bandit_party_1","A1WXPOLDS1Y9R4","either","4","1728","","","","","","","0","0","1","0","0","","","","","0","","","","0","","","","","","","","","","","","","74","J","0","img/none_selected_demo.jpg","true","0","","",""
"","bandit","13","48299","0.0-13.0-0.0","64226708","wem/bandit_party_1","A1WXPOLDS1Y9R4","either","4","39","","","","","","","0","0","1","0","0","","","","","0","","","","0","","","","","","","","","","","","","75","K","0","img/none_selected_demo.jpg","true","0","","",""
"","text-replacement","14","49275","0.0-14.0","64226708","wem/bandit_party_1","A1WXPOLDS1Y9R4","either","4","975","","","32","","","","","","","","","","","","","","","","","","","","","","","","","","","","","","","","","","","","","",""
"","text-replacement","15","49620","0.0-15.0","64226708","wem/bandit_party_1","A1WXPOLDS1Y9R4","either","4","343","","","32","","","","","","","","","","","","","","","","","","","","","","","","","","","","","","","","","","","","","",""
"","text-replacement","16","49936","0.0-16.0","64226708","wem/bandit_party_1","A1WXPOLDS1Y9R4","either","4","315","","","32","","","","","","","","","","","","","","","","","","","","","","","","","","","","","","","","","","","","","",""
"","text-replacement","17","50290","0.0-17.0","64226708","wem/bandit_party_1","A1WXPOLDS1Y9R4","either","4","352","","","32","","","","","","","","","","","","","","","","","","","","","","","","","","","","","","","","","","","","","",""
"","bandit","18","52333","0.0-18.0-0.0","64226708","wem/bandit_party_1","A1WXPOLDS1Y9R4","either","4","525","","","","","","","1","0","0","0.8","","0.5","0.5","","","","","","","0.8","0.2","","","","","","","","","","","","74","J","0","img/none_selected_demo.jpg","true","0","80_20_practice","",""
"","bandit","19","54091","0.0-18.0-1.0","64226708","wem/bandit_party_1","A1WXPOLDS1Y9R4","either","4","245","","","","","","","0","0","1","0.2","","0.5","0.5","","","","","","","0.8","0.2","","","","","","","","","","","","75","K","1","","true","0","80_20_practice","",""
"","bandit","20","56145","0.0-18.0-2.0","64226708","wem/bandit_party_1","A1WXPOLDS1Y9R4","either","4","529","","","","","","","0","0","1","","0.2","0.5","0.5","","","0.8","0.2","","","","","","","","","","","","","","","","75","K","1","","true","0","80_20_practice","",""
"","bandit","21","57892","0.0-18.0-3.0","64226708","wem/bandit_party_1","A1WXPOLDS1Y9R4","either","4","207","","","","","","","0","1","0","","0.8","0.5","0.5","","","0.8","0.2","","","","","","","","","","","","","","","","74","J","0","img/none_selected_demo.jpg","true","0","80_20_practice","",""
"","bandit","22","59841","0.0-18.0-4.0","64226708","wem/bandit_party_1","A1WXPOLDS1Y9R4","either","4","411","","","","","","","0","1","0","","0.8","0.5","0.5","","","0.8","0.2","","","","","","","","","","","","","","","","74","J","0","img/none_selected_demo.jpg","true","0","80_20_practice","",""
"","bandit","23","61845","0.0-18.0-5.0","64226708","wem/bandit_party_1","A1WXPOLDS1Y9R4","either","4","479","","","","","","","0","0","1","0.8","","0.5","0.5","","","","","","","0.8","0.2","","","","","","","","","","","","74","J","0","img/none_selected_demo.jpg","true","0","80_20_practice","",""
"","bandit","24","63975","0.0-18.0-6.0","64226708","wem/bandit_party_1","A1WXPOLDS1Y9R4","either","4","616","","","","","","","0","0","1","","0.2","0.5","0.5","","","0.8","0.2","","","","","","","","","","","","","","","","75","K","1","","true","0","80_20_practice","",""
"","bandit","25","65875","0.0-18.0-7.0","64226708","wem/bandit_party_1","A1WXPOLDS1Y9R4","either","4","383","","","","","","","0","0","1","","0.2","0.5","0.5","","","0.8","0.2","","","","","","","","","","","","","","","","75","K","1","","true","0","80_20_practice","",""
"","bandit","26","67798","0.0-18.0-8.0","64226708","wem/bandit_party_1","A1WXPOLDS1Y9R4","either","4","389","","","","","","","1","0","0","0.8","","0.5","0.5","","","","","","","0.8","0.2","","","","","","","","","","","","74","J","0","img/none_selected_demo.jpg","true","0","80_20_practice","",""
"","bandit","27","69783","0.0-18.0-9.0","64226708","wem/bandit_party_1","A1WXPOLDS1Y9R4","either","4","454","","","","","","","0","1","0","","0.8","0.5","0.5","","","0.8","0.2","","","","","","","","","","","","","","","","74","J","0","img/none_selected_demo.jpg","true","0","80_20_practice","",""
"","bandit","28","172890","0.0-18.0-10.0","64226708","wem/bandit_party_1","A1WXPOLDS1Y9R4","either","4","101566","","","","","","","1","0","0","0.8","","0.5","0.5","","","","","","","0.8","0.2","","","","","","","","","","","","74","J","0","img/none_selected_demo.jpg","true","0","80_20_practice","",""
"","bandit","29","178199","0.0-18.0-11.0","64226708","wem/bandit_party_1","A1WXPOLDS1Y9R4","either","4","3782","","","","","","","1","0","0","0.2","","0.5","0.5","","","","","","","0.8","0.2","","","","","","","","","","","","75","K","1","","true","0","80_20_practice","",""
"","bandit","30","179773","0.0-18.0-12.0","64226708","wem/bandit_party_1","A1WXPOLDS1Y9R4","either","4","48","","","","","","","1","0","0","0.2","","0.5","0.5","","","","","","","0.8","0.2","","","","","","","","","","","","75","K","1","","true","0","80_20_practice","",""
"","bandit","31","181418","0.0-18.0-13.0","64226708","wem/bandit_party_1","A1WXPOLDS1Y9R4","either","4","114","","","","","","","0","1","0","","0.8","0.5","0.5","","","0.8","0.2","","","","","","","","","","","","","","","","74","J","0","img/none_selected_demo.jpg","true","0","80_20_practice","",""
"","bandit","32","186606","0.0-18.0-14.0","64226708","wem/bandit_party_1","A1WXPOLDS1Y9R4","either","4","3663","","","","","","","1","0","0","0.8","","0.5","0.5","","","","","","","0.8","0.2","","","","","","","","","","","","74","J","0","img/none_selected_demo.jpg","true","0","80_20_practice","",""
"","bandit","33","195918","0.0-18.0-15.0","64226708","wem/bandit_party_1","A1WXPOLDS1Y9R4","either","4","7787","","","","","","","1","0","0","0.8","","0.5","0.5","","","","","","","0.8","0.2","","","","","","","","","","","","74","J","0","img/none_selected_demo.jpg","true","0","80_20_practice","",""
"","bandit","34","207416","0.0-18.0-16.0","64226708","wem/bandit_party_1","A1WXPOLDS1Y9R4","either","4","9980","","","","","","","0","0","1","","0.2","0.5","0.5","","","0.8","0.2","","","","","","","","","","","","","","","","75","K","1","","true","0","80_20_practice","",""
"","bandit","35","212447","0.0-18.0-17.0","64226708","wem/bandit_party_1","A1WXPOLDS1Y9R4","either","4","3507","","","","","","","0","1","0","","0.8","0.5","0.5","","","0.8","0.2","","","","","","","","","","","","","","","","74","J","0","img/none_selected_demo.jpg","true","0","80_20_practice","",""
"","bandit","36","224136","0.0-18.0-18.0","64226708","wem/bandit_party_1","A1WXPOLDS1Y9R4","either","4","10179","","","","","","","1","0","0","0.8","","0.5","0.5","","","","","","","0.8","0.2","","","","","","","","","","","","74","J","0","img/none_selected_demo.jpg","true","0","80_20_practice","",""
"","bandit","37","226384","0.0-18.0-19.0","64226708","wem/bandit_party_1","A1WXPOLDS1Y9R4","either","4","726","","","","","","","1","0","0","0.8","","0.5","0.5","","","","","","","0.8","0.2","","","","","","","","","","","","74","J","0","img/none_selected_demo.jpg","true","0","80_20_practice","",""
"","text-replacement","38","229074","0.0-19.0","64226708","wem/bandit_party_1","A1WXPOLDS1Y9R4","either","4","2685","","","32","","","","","","","","","","","","","","","","","","","","","","","","","","","","","","","","","","","","","",""
"","bandit","39","231301","0.0-20.0-0.0","64226708","wem/bandit_party_1","A1WXPOLDS1Y9R4","either","4","706","","","","","","","1","0","0","1","0","","","","","0","1","","","1","0","","","","","","","","","","","","74","J","0","img/none_selected_demo.jpg","true","0","","",""
"","text-replacement","40","231320","0.0-21.0","64226708","wem/bandit_party_1","A1WXPOLDS1Y9R4","either","4","15","","","74","","","","","","","","","","","","","","","","","","","","","","","","","","","","","","","","","","","","","",""
"","text-replacement","41","234495","0.0-22.0","64226708","wem/bandit_party_1","A1WXPOLDS1Y9R4","either","4","3171","","","32","","","","","","","","","","","","","","","","","","","","","","","","","","","","","","","","","","","","","",""
"","text-replacement","42","234754","0.0-23.0","64226708","wem/bandit_party_1","A1WXPOLDS1Y9R4","either","4","255","","","32","","","","","","","","","","","","","","","","","","","","","","","","","","","","","","","","","","","","","",""
"","text-replacement","43","234969","0.0-24.0","64226708","wem/bandit_party_1","A1WXPOLDS1Y9R4","either","4","211","","","32","","","","","","","","","","","","","","","","","","","","","","","","","","","","","","","","","","","","","",""
"","text-replacement","44","235193","0.0-25.0","64226708","wem/bandit_party_1","A1WXPOLDS1Y9R4","either","4","221","","","32","","","","","","","","","","","","","","","","","","","","","","","","","","","","","","","","","","","","","",""
"","text-replacement","45","235421","0.0-26.0","64226708","wem/bandit_party_1","A1WXPOLDS1Y9R4","either","4","227","","","32","","","","","","","","","","","","","","","","","","","","","","","","","","","","","","","","","","","","","",""
"","text-replacement","46","235556","0.0-27.0","64226708","wem/bandit_party_1","A1WXPOLDS1Y9R4","either","4","132","","","32","","","","","","","","","","","","","","","","","","","","","","","","","","","","","","","","","","","","","",""
"","text-replacement","47","235933","0.0-28.0","64226708","wem/bandit_party_1","A1WXPOLDS1Y9R4","either","4","373","","","32","","","","","","","","","","","","","","","","","","","","","","","","","","","","","","","","","","","","","",""
"","text-replacement","48","236187","0.0-29.0","64226708","wem/bandit_party_1","A1WXPOLDS1Y9R4","either","4","247","","","32","","","","","","","","","","","","","","","","","","","","","","","","","","","","","","","","","","","","","",""
"","text-replacement","49","236776","0.0-30.0","64226708","wem/bandit_party_1","A1WXPOLDS1Y9R4","either","4","584","","","32","","","","","","","","","","","","","","","","","","","","","","","","","","","","","","","","","","","","","",""
"","text-replacement","50","237014","0.0-31.0","64226708","wem/bandit_party_1","A1WXPOLDS1Y9R4","either","4","234","","","32","","","","","","","","","","","","","","","","","","","","","","","","","","","","","","","","","","","","","",""
"","bandit","51","239079","0.0-32.0-0.0","64226708","wem/bandit_party_1","A1WXPOLDS1Y9R4","either","4","535","","","","","","","0","1","0","","0.8","0.5","0.5","0.5","0.5","0.8","0.2","0.6","0.2","","","","","","","","","","","","","","72","H","0","img/none_selected.jpg","true","0","full_practice","",""
"","bandit","52","241386","0.0-32.0-1.0","64226708","wem/bandit_party_1","A1WXPOLDS1Y9R4","either","4","770","","","","","","","0","0","1","","0.2","0.5","0.5","0.5","0.5","0.8","0.2","0.6","0.2","","","","","","","","","","","","","","74","J","1","","true","0","full_practice","",""
"","bandit","53","243259","0.0-32.0-2.0","64226708","wem/bandit_party_1","A1WXPOLDS1Y9R4","either","4","350","","","","","","","1","0","0","0.8","","0.5","0.5","0.5","0.5","","","","","0.8","0.2","0.6","0.2","","","","","","","","","","72","H","0","img/none_selected.jpg","true","0","full_practice","",""
"","bandit","54","245086","0.0-32.0-3.0","64226708","wem/bandit_party_1","A1WXPOLDS1Y9R4","either","4","313","","","","","","","0","0","1","","0.2","0.5","0.5","0.5","0.5","0.8","0.2","0.6","0.2","","","","","","","","","","","","","","76","L","3","","true","0","full_practice","",""
"","bandit","55","247322","0.0-32.0-4.0","64226708","wem/bandit_party_1","A1WXPOLDS1Y9R4","either","4","722","","","","","","","1","0","0","0.6","","0.5","0.5","0.5","0.5","","","","","0.8","0.2","0.6","0.2","","","","","","","","","","75","K","2","","true","0","full_practice","",""
"","bandit","56","249495","0.0-32.0-5.0","64226708","wem/bandit_party_1","A1WXPOLDS1Y9R4","either","4","635","","","","","","","0","0","1","0.2","","0.5","0.5","0.5","0.5","","","","","0.8","0.2","0.6","0.2","","","","","","","","","","74","J","1","","true","0","full_practice","",""
"","bandit","57","253446","0.0-32.0-6.0","64226708","wem/bandit_party_1","A1WXPOLDS1Y9R4","either","4","2424","","","","","","","0","1","0","","0.8","0.5","0.5","0.5","0.5","0.8","0.2","0.6","0.2","","","","","","","","","","","","","","72","H","0","img/none_selected.jpg","true","0","full_practice","",""
"","bandit","58","256292","0.0-32.0-7.0","64226708","wem/bandit_party_1","A1WXPOLDS1Y9R4","either","4","1335","","","","","","","0","0","1","","0.6","0.5","0.5","0.5","0.5","0.8","0.2","0.6","0.2","","","","","","","","","","","","","","75","K","2","","true","0","full_practice","",""
"","bandit","59","258588","0.0-32.0-8.0","64226708","wem/bandit_party_1","A1WXPOLDS1Y9R4","either","4","762","","","","","","","1","0","0","0.8","","0.5","0.5","0.5","0.5","","","","","0.8","0.2","0.6","0.2","","","","","","","","","","72","H","0","img/none_selected.jpg","true","0","full_practice","",""
"","bandit","60","261262","0.0-32.0-9.0","64226708","wem/bandit_party_1","A1WXPOLDS1Y9R4","either","4","1157","","","","","","","1","0","0","0.8","","0.5","0.5","0.5","0.5","","","","","0.8","0.2","0.6","0.2","","","","","","","","","","72","H","0","img/none_selected.jpg","true","0","full_practice","",""
"","bandit","61","263202","0.0-32.0-10.0","64226708","wem/bandit_party_1","A1WXPOLDS1Y9R4","either","4","430","","","","","","","0","0","1","","0.2","0.5","0.5","0.5","0.5","0.8","0.2","0.6","0.2","","","","","","","","","","","","","","76","L","3","","true","0","full_practice","",""
"","bandit","62","265806","0.0-32.0-11.0","64226708","wem/bandit_party_1","A1WXPOLDS1Y9R4","either","4","1074","","","","","","","0","0","1","","0.2","0.5","0.5","0.5","0.5","0.8","0.2","0.6","0.2","","","","","","","","","","","","","","74","J","1","","true","0","full_practice","",""
"","bandit","63","267556","0.0-32.0-12.0","64226708","wem/bandit_party_1","A1WXPOLDS1Y9R4","either","4","208","","","","","","","0","1","0","","0.6","0.5","0.5","0.5","0.5","0.8","0.2","0.6","0.2","","","","","","","","","","","","","","75","K","2","","true","0","full_practice","",""
"","bandit","64","269555","0.0-32.0-13.0","64226708","wem/bandit_party_1","A1WXPOLDS1Y9R4","either","4","468","","","","","","","0","0","1","0.2","","0.5","0.5","0.5","0.5","","","","","0.8","0.2","0.6","0.2","","","","","","","","","","76","L","3","","true","0","full_practice","",""
"","bandit","65","271101","0.0-32.0-14.0","64226708","wem/bandit_party_1","A1WXPOLDS1Y9R4","either","4","26","","","","","","","0","0","1","0.6","","0.5","0.5","0.5","0.5","","","","","0.8","0.2","0.6","0.2","","","","","","","","","","75","K","2","","true","0","full_practice","",""
"","bandit","66","273000","0.0-32.0-15.0","64226708","wem/bandit_party_1","A1WXPOLDS1Y9R4","either","4","381","","","","","","","0","0","1","","0.2","0.5","0.5","0.5","0.5","0.8","0.2","0.6","0.2","","","","","","","","","","","","","","74","J","1","","true","0","full_practice","",""
"","bandit","67","274730","0.0-32.0-16.0","64226708","wem/bandit_party_1","A1WXPOLDS1Y9R4","either","4","203","","","","","","","0","0","1","","0.2","0.5","0.5","0.5","0.5","0.8","0.2","0.6","0.2","","","","","","","","","","","","","","76","L","3","","true","0","full_practice","",""
"","bandit","68","276351","0.0-32.0-17.0","64226708","wem/bandit_party_1","A1WXPOLDS1Y9R4","either","4","90","","","","","","","0","0","1","0.2","","0.5","0.5","0.5","0.5","","","","","0.8","0.2","0.6","0.2","","","","","","","","","","74","J","1","","true","0","full_practice","",""
"","bandit","69","278406","0.0-32.0-18.0","64226708","wem/bandit_party_1","A1WXPOLDS1Y9R4","either","4","532","","","","","","","0","0","1","","0.6","0.5","0.5","0.5","0.5","0.8","0.2","0.6","0.2","","","","","","","","","","","","","","75","K","2","","true","0","full_practice","",""
"","bandit","70","280425","0.0-32.0-19.0","64226708","wem/bandit_party_1","A1WXPOLDS1Y9R4","either","4","476","","","","","","","0","0","1","","0.2","0.5","0.5","0.5","0.5","0.8","0.2","0.6","0.2","","","","","","","","","","","","","","76","L","3","","true","0","full_practice","",""
"","text","71","283284","0.0-33.0","64226708","wem/bandit_party_1","A1WXPOLDS1Y9R4","either","4","2839","","","32","","","","","","","","","","","","","","","","","","","","","","","","","","","","","","","","","","","","","",""
"","text-replacement","72","293186","0.0-34.0","64226708","wem/bandit_party_1","A1WXPOLDS1Y9R4","either","4","8890","","","32","","","","","","","","","","","","","","","","","","","","","","","","","","","","","","","","","","","","","",""
"","text-replacement","73","293511","0.0-35.0","64226708","wem/bandit_party_1","A1WXPOLDS1Y9R4","either","4","307","","","32","","","","","","","","","","","","","","","","","","","","","","","","","","","","","","","","","","","","","",""
"","text-replacement","74","293704","0.0-36.0","64226708","wem/bandit_party_1","A1WXPOLDS1Y9R4","either","4","185","","","32","","","","","","","","","","","","","","","","","","","","","","","","","","","","","","","","","","","","","",""
"","text-replacement","75","293945","0.0-37.0","64226708","wem/bandit_party_1","A1WXPOLDS1Y9R4","either","4","233","","","32","","","","","","","","","","","","","","","","","","","","","","","","","","","","","","","","","","","","","",""
"","text-replacement","76","294338","0.0-38.0","64226708","wem/bandit_party_1","A1WXPOLDS1Y9R4","either","4","386","","","32","","","","","","","","","","","","","","","","","","","","","","","","","","","","","","","","","","","","","",""
"","survey-multi-choice-replacement","77","296759","0.0-39.0-0.0","64226708","wem/bandit_party_1","A1WXPOLDS1Y9R4","either","4","2392","","","","","","","","","","","","","","","","","","","","","","","","Money will be added to the pool for <span style='color:red;'>REPUBLICANS</span>","","","","","","","attn_check","","","","","","","","","0",""
"","survey-multi-choice-replacement","78","299473","0.0-40.0-0.0","64226708","wem/bandit_party_1","A1WXPOLDS1Y9R4","either","4","1686","","","","","","","","","","","","","","","","","","","","","","","","Money will be subtracted from the pool for <span style='color:blue;'>DEMOCRATS</span>","","","","","","","attn_check","","","","","","","","","1",""
"","instructions","79","301922","0.0-40.0-1.0-0.0","64226708","wem/bandit_party_1","A1WXPOLDS1Y9R4","either","4","1444","","","","","","","","","","","","","","","","","","","","","","","","","","","","","","","","","","","","","","","","","[{""page_index"":0,""viewing_time"":1443}]"
"","survey-multi-choice-replacement","80","312545","0.0-40.1-0.1","64226708","wem/bandit_party_1","A1WXPOLDS1Y9R4","either","4","9609","","","","","","","","","","","","","","","","","","","","","","","","Money will be subtracted from the pool for <span style='color:blue;'>DEMOCRATS</span>","","","","","","","attn_check","","","","","","","","","1",""
"","instructions","81","315498","0.0-40.1-1.1-0.1","64226708","wem/bandit_party_1","A1WXPOLDS1Y9R4","either","4","1941","","","","","","","","","","","","","","","","","","","","","","","","","","","","","","","","","","","","","","","","","[{""page_index"":0,""viewing_time"":1941}]"
"","survey-multi-choice-replacement","82","318973","0.0-40.2-0.2","64226708","wem/bandit_party_1","A1WXPOLDS1Y9R4","either","4","2454","","","","","","","","","","","","","","","","","","","","","","","","No money will be added to either pool","","","","","","","attn_check","","","","","","","","","3",""
"","instructions","83","321158","0.0-40.2-1.2-0.2","64226708","wem/bandit_party_1","A1WXPOLDS1Y9R4","either","4","1164","","","","","","","","","","","","","","","","","","","","","","","","","","","","","","","","","","","","","","","","","[{""page_index"":0,""viewing_time"":1164}]"
"","survey-multi-choice-replacement","84","323645","0.0-40.3-0.3","64226708","wem/bandit_party_1","A1WXPOLDS1Y9R4","either","4","1473","","","","","","","","","","","","","","","","","","","","","","","","Money will be added to the pool for <span style='color:red;'>REPUBLICANS</span>","","","","","","","attn_check","","","","","","","","","0",""
"","instructions","85","325954","0.0-40.3-1.3-0.3","64226708","wem/bandit_party_1","A1WXPOLDS1Y9R4","either","4","1289","","","","","","","","","","","","","","","","","","","","","","","","","","","","","","","","","","","","","","","","","[{""page_index"":0,""viewing_time"":1288}]"
"","survey-multi-choice-replacement","86","328128","0.0-40.4-0.4","64226708","wem/bandit_party_1","A1WXPOLDS1Y9R4","either","4","1162","","","","","","","","","","","","","","","","","","","","","","","","Equal amounts of money will be added to the pool for <span style='color:red;'>REPUBLICANS</span> and subtracted from the pool for <span style='color:blue;'>DEMOCRATS</span>","","","","","","","attn_check","","","","","","","","","2",""
"","survey-multi-choice-replacement","87","333323","0.0-41.0-0.0","64226708","wem/bandit_party_1","A1WXPOLDS1Y9R4","either","4","4182","","","","","","","","","","","","","","","","","","","","","","","","No money will be added to either pool","","","","","","","attn_check","","","","","","","","","3",""
"","bandit","88","337013","0.0-42.0-0.0","64226708","wem/bandit_party_1","A1WXPOLDS1Y9R4","either","4","1158","","","","","","","0","0","1","","0.2771551185","0.6","0.2","0.4","0.8","0.2771551185","0.3894728165","0.3525715257","0.3242650943","","","","","","","","","","","","","","72","H","0","img/none_selected.jpg","","1","main_expt","",""
"","bandit","89","339244","0.0-43.0-0.0","64226708","wem/bandit_party_1","A1WXPOLDS1Y9R4","either","4","696","","","","","","","0","0","1","","0.390153736","0.6","0.2","0.4","0.8","0.3030893157","0.363660736","0.390153736","0.3296228245","","","","","","","","","","","","","","75","K","2","","","2","main_expt","",""
"","bandit","90","341180","0.0-44.0-0.0","64226708","wem/bandit_party_1","A1WXPOLDS1Y9R4","either","4","395","","","","","","","0","0","1","0.3842171554","","0.6","0.2","0.4","0.8","","","","","0.3211059343","0.3842171554","0.3725447061","0.3102780753","","","","","","","","","","74","J","1","","","3","main_expt","",""
"","bandit","91","342933","0.0-45.0-0.0","64226708","wem/bandit_party_1","A1WXPOLDS1Y9R4","either","4","215","","","","","","","0","1","0","","0.3831963053","0.6","0.2","0.4","0.8","0.2804386453","0.3831963053","0.3431524481","0.2749892112","","","","","","","","","","","","","","74","J","1","","","4","main_expt","",""
"","bandit","92","344943","0.0-46.0-0.0","64226708","wem/bandit_party_1","A1WXPOLDS1Y9R4","either","4","469","","","","","","","0","0","1","","0.4056596471","0.6","0.2","0.4","0.8","0.2609559086","0.4056596471","0.3448007793","0.3037824898","","","","","","","","","","","","","","74","J","1","","","5","main_expt","",""
"","bandit","93","347023","0.0-47.0-0.0","64226708","wem/bandit_party_1","A1WXPOLDS1Y9R4","either","4","536","","","","","","","1","0","0","0.3217417103","","0.6","0.2","0.4","0.8","","","","","0.2259287768","0.4409946319","0.3980888019","0.3217417103","","","","","","","","","","76","L","3","","","6","main_expt","",""
"","bandit","94","349096","0.0-48.0-0.0","64226708","wem/bandit_party_1","A1WXPOLDS1Y9R4","either","4","547","","","","","","","0","0","1","","0.3693121862","0.6","0.2","0.4","0.8","0.2433618728","0.3821747998","0.3693121862","0.3018715163","","","","","","","","","","","","","","75","K","2","","","7","main_expt","",""
"","bandit","95","350715","0.0-49.0-0.0","64226708","wem/bandit_party_1","A1WXPOLDS1Y9R4","either","4","92","","","","","","","0","1","0","","0.3841844813","0.6","0.2","0.4","0.8","0.2025356769","0.3841844813","0.2933697555","0.3643645816","","","","","","","","","","","","","","74","J","1","","","8","main_expt","",""
"","bandit","96","353179","0.0-50.0-0.0","64226708","wem/bandit_party_1","A1WXPOLDS1Y9R4","either","4","932","","","","","","","0","0","1","0.1441028094","","0.6","0.2","0.4","0.8","","","","","0.1441028094","0.3412237964","0.3036212831","0.3418610374","","","","","","","","","","72","H","0","img/none_selected.jpg","","9","main_expt","",""
"","bandit","97","355037","0.0-51.0-0.0","64226708","wem/bandit_party_1","A1WXPOLDS1Y9R4","either","4","325","","","","","","","0","0","1","","0.3256420777","0.6","0.2","0.4","0.8","0.1736005971","0.3256420777","0.308020301","0.3190157878","","","","","","","","","","","","","","74","J","1","","","10","main_expt","",""
"","bandit","98","356960","0.0-52.0-0.0","64226708","wem/bandit_party_1","A1WXPOLDS1Y9R4","either","4","398","","","","","","","0","0","1","","0.3514007431","0.6","0.2","0.4","0.8","0.1836365694","0.3514007431","0.3065973113","0.2998731478","","","","","","","","","","","","","","74","J","1","","","11","main_expt","",""
"","bandit","99","370646","0.0-53.0-0.0","64226708","wem/bandit_party_1","A1WXPOLDS1Y9R4","either","4","12153","","","","","","","0","0","1","0.2143869662","","0.6","0.2","0.4","0.8","","","","","0.2143869662","0.3722032088","0.3271859636","0.2942822571","","","","","","","","","","72","H","0","img/none_selected.jpg","","12","main_expt","",""
"","bandit","100","373256","0.0-54.0-0.0","64226708","wem/bandit_party_1","A1WXPOLDS1Y9R4","either","4","1071","","","","","","","0","0","1","0.3009212619","","0.6","0.2","0.4","0.8","","","","","0.1637139448","0.3681707299","0.2761076709","0.3009212619","","","","","","","","","","76","L","3","","","13","main_expt","",""
"","bandit","101","374823","0.0-55.0-0.0","64226708","wem/bandit_party_1","A1WXPOLDS1Y9R4","either","4","46","","","","","","","0","0","1","0.3528222564","","0.6","0.2","0.4","0.8","","","","","0.1488535162","0.3528222564","0.2311164494","0.3227424667","","","","","","","","","","74","J","1","","","14","main_expt","",""
"","bandit","102","376487","0.0-56.0-0.0","64226708","wem/bandit_party_1","A1WXPOLDS1Y9R4","either","4","143","","","","","","","0","0","1","0.1332411271","","0.6","0.2","0.4","0.8","","","","","0.1332411271","0.3738838661","0.2905977425","0.3547546862","","","","","","","","","","72","H","0","img/none_selected.jpg","","15","main_expt","",""
"","bandit","103","392614","0.0-57.0-0.0","64226708","wem/bandit_party_1","A1WXPOLDS1Y9R4","either","4","14609","","","","","","","0","0","1","","0.3385239332","0.6","0.2","0.4","0.8","0.09882415698","0.3385239332","0.2924554969","0.3241157583","","","","","","","","","","","","","","74","J","1","","","16","main_expt","",""
"","bandit","104","395037","0.0-58.0-0.0","64226708","wem/bandit_party_1","A1WXPOLDS1Y9R4","either","4","892","","","","","","","0","1","0","","0.3114836302","0.6","0.2","0.4","0.8","0.1069157009","0.3111355138","0.3114836302","0.3363410386","","","","","","","","","","","","","","75","K","2","","","17","main_expt","",""
"","bandit","105","397348","0.0-59.0-0.0","64226708","wem/bandit_party_1","A1WXPOLDS1Y9R4","either","4","773","","","","","","","0","0","1","","0.134958137","0.6","0.2","0.4","0.8","0.134958137","0.3487767647","0.3215333475","0.3880947854","","","","","","","","","","","","","","72","H","0","img/none_selected.jpg","","18","main_expt","",""
"","bandit","106","399093","0.0-60.0-0.0","64226708","wem/bandit_party_1","A1WXPOLDS1Y9R4","either","4","224","","","","","","","0","1","0","","0.4116912081","0.6","0.2","0.4","0.8","0.1230418706","0.3010303499","0.2733398822","0.4116912081","","","","","","","","","","","","","","76","L","3","","","19","main_expt","",""
"","bandit","107","400967","0.0-61.0-0.0","64226708","wem/bandit_party_1","A1WXPOLDS1Y9R4","either","4","359","","","","","","","0","0","1","","0.2907203997","0.6","0.2","0.4","0.8","0.09866604889","0.2907203997","0.2351410235","0.3973894305","","","","","","","","","","","","","","74","J","1","","","20","main_expt","",""
"","bandit","108","403050","0.0-62.0-0.0","64226708","wem/bandit_party_1","A1WXPOLDS1Y9R4","either","4","551","","","","","","","0","0","1","","0.3088108907","0.6","0.2","0.4","0.8","0.1021222834","0.3088108907","0.2257810982","0.369037109","","","","","","","","","","","","","","74","J","1","","","21","main_expt","",""
"","bandit","109","404738","0.0-63.0-0.0","64226708","wem/bandit_party_1","A1WXPOLDS1Y9R4","either","4","148","","","","","","","0","0","1","0.2221856846","","0.6","0.2","0.4","0.8","","","","","0.1234138809","0.349202701","0.2221856846","0.4179468344","","","","","","","","","","75","K","2","","","22","main_expt","",""
"","bandit","110","406271","0.0-64.0-0.0","64226708","wem/bandit_party_1","A1WXPOLDS1Y9R4","either","4","1","","","","","","","0","0","1","0.3785068464","","0.6","0.2","0.4","0.8","","","","","0.1030640584","0.3785068464","0.2127124712","0.4276062926","","","","","","","","","","74","J","1","","","23","main_expt","",""
"","bandit","111","407813","0.0-65.0-0.0","64226708","wem/bandit_party_1","A1WXPOLDS1Y9R4","either","4","25","","","","","","","0","0","1","","0.4012919653","0.6","0.2","0.4","0.8","0.1261035851","0.4012919653","0.1882566648","0.4078122208","","","","","","","","","","","","","","74","J","1","","","24","main_expt","",""
"","bandit","112","409723","0.0-66.0-0.0","64226708","wem/bandit_party_1","A1WXPOLDS1Y9R4","either","4","388","","","","","","","0","0","1","","0.400899794","0.6","0.2","0.4","0.8","0.1796705612","0.400899794","0.1273223766","0.3950411191","","","","","","","","","","","","","","74","J","1","","","25","main_expt","",""
"","bandit","113","411391","0.0-67.0-0.0","64226708","wem/bandit_party_1","A1WXPOLDS1Y9R4","either","4","130","","","","","","","0","1","0","","0.4126274585","0.6","0.2","0.4","0.8","0.2414651519","0.4126274585","0.15747458","0.4322303329","","","","","","","","","","","","","","74","J","1","","","26","main_expt","",""
"","bandit","114","413051","0.0-68.0-0.0","64226708","wem/bandit_party_1","A1WXPOLDS1Y9R4","either","4","122","","","","","","","0","1","0","","0.3992263875","0.6","0.2","0.4","0.8","0.2005374927","0.3992263875","0.1442684908","0.4353643722","","","","","","","","","","","","","","74","J","1","","","27","main_expt","",""
"","bandit","115","415172","0.0-69.0-0.0","64226708","wem/bandit_party_1","A1WXPOLDS1Y9R4","either","4","598","","","","","","","0","1","0","","0.2255404594","0.6","0.2","0.4","0.8","0.3197257227","0.3846584236","0.2255404594","0.4464017809","","","","","","","","","","","","","","75","K","2","","","28","main_expt","",""
"","bandit","116","418160","0.0-70.0-0.0","64226708","wem/bandit_party_1","A1WXPOLDS1Y9R4","either","4","1457","","","","","","","1","0","0","0.4417109462","","0.6","0.2","0.4","0.8","","","","","0.3141869899","0.3561298134","0.2730951691","0.4417109462","","","","","","","","","","76","L","3","","","29","main_expt","",""
"","bandit","117","419815","0.0-71.0-0.0","64226708","wem/bandit_party_1","A1WXPOLDS1Y9R4","either","4","108","","","","","","","0","0","1","","0.3101363315","0.6","0.2","0.4","0.8","0.3445991012","0.3101363315","0.2890412698","0.4065908859","","","","","","","","","","","","","","74","J","1","","","30","main_expt","",""
"","bandit","118","421378","0.0-72.0-0.0","64226708","wem/bandit_party_1","A1WXPOLDS1Y9R4","either","4","29","","","","","","","0","0","1","","0.3456655029","0.6","0.2","0.4","0.8","0.3456655029","0.3322219809","0.3309226042","0.3954582793","","","","","","","","","","","","","","72","H","0","img/none_selected.jpg","","31","main_expt","",""
"","bandit","119","423036","0.0-73.0-0.0","64226708","wem/bandit_party_1","A1WXPOLDS1Y9R4","either","4","121","","","","","","","0","0","1","","0.3519301717","0.6","0.2","0.4","0.8","0.3826172224","0.3516269472","0.3519301717","0.3716723047","","","","","","","","","","","","","","75","K","2","","","32","main_expt","",""
"","bandit","120","424749","0.0-74.0-0.0","64226708","wem/bandit_party_1","A1WXPOLDS1Y9R4","either","4","190","","","","","","","0","0","1","0.3799724366","","0.6","0.2","0.4","0.8","","","","","0.3804083149","0.3852085553","0.3414953842","0.3799724366","","","","","","","","","","76","L","3","","","33","main_expt","",""
"","bandit","121","443487","0.0-75.0-0.0","64226708","wem/bandit_party_1","A1WXPOLDS1Y9R4","either","4","17210","","","","","","","0","0","1","","0.3808178469","0.6","0.2","0.4","0.8","0.3808178469","0.4196644934","0.2938412915","0.409480615","","","","","","","","","","","","","","72","H","0","img/none_selected.jpg","","34","main_expt","",""
"","bandit","122","445564","0.0-76.0-0.0","64226708","wem/bandit_party_1","A1WXPOLDS1Y9R4","either","4","547","","","","","","","0","0","1","","0.3869649509","0.6","0.2","0.4","0.8","0.376129724","0.420891004","0.2256616696","0.3869649509","","","","","","","","","","","","","","76","L","3","","","35","main_expt","",""
"","bandit","123","448214","0.0-77.0-0.0","64226708","wem/bandit_party_1","A1WXPOLDS1Y9R4","either","4","1135","","","","","","","0","0","1","0.4027809904","","0.6","0.2","0.4","0.8","","","","","0.4027809904","0.3808881167","0.2525957923","0.3045389962","","","","","","","","","","72","H","0","img/none_selected.jpg","","36","main_expt","",""
"","bandit","124","449956","0.0-78.0-0.0","64226708","wem/bandit_party_1","A1WXPOLDS1Y9R4","either","4","213","","","","","","","0","1","0","","0.3634360393","0.6","0.2","0.4","0.8","0.3715556026","0.3634360393","0.2333373749","0.2954217214","","","","","","","","","","","","","","74","J","1","","","37","main_expt","",""
"","bandit","125","451888","0.0-79.0-0.0","64226708","wem/bandit_party_1","A1WXPOLDS1Y9R4","either","4","403","","","","","","","0","1","0","","0.3432691328","0.6","0.2","0.4","0.8","0.354842885","0.3432691328","0.2126884676","0.2749906923","","","","","","","","","","","","","","74","J","1","","","38","main_expt","",""
"","bandit","126","453658","0.0-80.0-0.0","64226708","wem/bandit_party_1","A1WXPOLDS1Y9R4","either","4","225","","","","","","","1","0","0","0.3113322025","","0.6","0.2","0.4","0.8","","","","","0.3066825603","0.3113322025","0.212498526","0.2911873598","","","","","","","","","","74","J","1","","","39","main_expt","",""
"","bandit","127","455425","0.0-81.0-0.0","64226708","wem/bandit_party_1","A1WXPOLDS1Y9R4","either","4","252","","","","","","","0","0","1","0.3066149412","","0.6","0.2","0.4","0.8","","","","","0.3208648015","0.3298138996","0.2031275136","0.3066149412","","","","","","","","","","76","L","3","","","40","main_expt","",""
"","bandit","128","457076","0.0-82.0-0.0","64226708","wem/bandit_party_1","A1WXPOLDS1Y9R4","either","4","117","","","","","","","0","0","1","","0.2409224204","0.6","0.2","0.4","0.8","0.2774570704","0.3590557929","0.2409224204","0.2612722093","","","","","","","","","","","","","","75","K","2","","","41","main_expt","",""
"","bandit","129","459502","0.0-83.0-0.0","64226708","wem/bandit_party_1","A1WXPOLDS1Y9R4","either","4","887","","","","","","","0","0","1","0.3092882543","","0.6","0.2","0.4","0.8","","","","","0.3092882543","0.3455434044","0.2166695961","0.2579482203","","","","","","","","","","72","H","0","img/none_selected.jpg","","42","main_expt","",""
"","bandit","130","461080","0.0-84.0-0.0","64226708","wem/bandit_party_1","A1WXPOLDS1Y9R4","either","4","51","","","","","","","0","0","1","0.2232302517","","0.6","0.2","0.4","0.8","","","","","0.3161251671","0.4020043176","0.2314197793","0.2232302517","","","","","","","","","","76","L","3","","","43","main_expt","",""
"","bandit","131","462834","0.0-85.0-0.0","64226708","wem/bandit_party_1","A1WXPOLDS1Y9R4","either","4","218","","","","","","","0","0","1","0.1889371852","","0.6","0.2","0.4","0.8","","","","","0.3032549762","0.4088695108","0.1889371852","0.2435669349","","","","","","","","","","75","K","2","","","44","main_expt","",""
"","bandit","132","464716","0.0-86.0-0.0","64226708","wem/bandit_party_1","A1WXPOLDS1Y9R4","either","4","348","","","","","","","0","0","1","","0.2152104473","0.6","0.2","0.4","0.8","0.3012359134","0.3914045207","0.2152104473","0.1885724617","","","","","","","","","","","","","","75","K","2","","","45","main_expt","",""
"","bandit","133","466627","0.0-87.0-0.0","64226708","wem/bandit_party_1","A1WXPOLDS1Y9R4","either","4","362","","","","","","","0","1","0","","0.2994346937","0.6","0.2","0.4","0.8","0.2994346937","0.3682142312","0.2260726972","0.104230756","","","","","","","","","","","","","","72","H","0","img/none_selected.jpg","","46","main_expt","",""
"","bandit","134","468434","0.0-88.0-0.0","64226708","wem/bandit_party_1","A1WXPOLDS1Y9R4","either","4","283","","","","","","","1","0","0","0.3462276735","","0.6","0.2","0.4","0.8","","","","","0.3169549043","0.3462276735","0.2330399618","0.09013225529","","","","","","","","","","74","J","1","","","47","main_expt","",""
"","bandit","135","471710","0.0-89.0-0.0","64226708","wem/bandit_party_1","A1WXPOLDS1Y9R4","either","4","1750","","","","","","","0","0","1","0.1066227192","","0.6","0.2","0.4","0.8","","","","","0.3137179834","0.3501405617","0.2769685944","0.1066227192","","","","","","","","","","76","L","3","","","48","main_expt","",""
"","bandit","136","473594","0.0-90.0-0.0","64226708","wem/bandit_party_1","A1WXPOLDS1Y9R4","either","4","358","","","","","","","0","1","0","","0.3607669766","0.6","0.2","0.4","0.8","0.3026837323","0.3607669766","0.2954986192","0.1273062614","","","","","","","","","","","","","","74","J","1","","","49","main_expt","",""
"","bandit","137","475518","0.0-91.0-0.0","64226708","wem/bandit_party_1","A1WXPOLDS1Y9R4","either","4","397","","","","","","","0","1","0","","0.3776327681","0.6","0.2","0.4","0.8","0.2690248343","0.3776327681","0.2730110453","0.08158159543","","","","","","","","","","","","","","74","J","1","","","50","main_expt","",""
"","bandit","138","477093","0.0-92.0-0.0","64226708","wem/bandit_party_1","A1WXPOLDS1Y9R4","either","4","54","","","","","","","0","0","1","0.2672659715","","0.6","0.2","0.4","0.8","","","","","0.2407215714","0.3922012959","0.2672659715","0.08035098666","","","","","","","","","","75","K","2","","","51","main_expt","",""
"","bandit","139","478786","0.0-93.0-0.0","64226708","wem/bandit_party_1","A1WXPOLDS1Y9R4","either","4","162","","","","","","","0","1","0","","0.3532085343","0.6","0.2","0.4","0.8","0.2758158767","0.3532085343","0.2552972095","0.1007468434","","","","","","","","","","","","","","74","J","1","","","52","main_expt","",""
"","bandit","140","480639","0.0-94.0-0.0","64226708","wem/bandit_party_1","A1WXPOLDS1Y9R4","either","4","321","","","","","","","0","0","1","0.1954439593","","0.6","0.2","0.4","0.8","","","","","0.2661511239","0.3597378762","0.1954439593","0.1479770317","","","","","","","","","","75","K","2","","","53","main_expt","",""
"","bandit","141","482532","0.0-95.0-0.0","64226708","wem/bandit_party_1","A1WXPOLDS1Y9R4","either","4","365","","","","","","","0","1","0","","0.1250298759","0.6","0.2","0.4","0.8","0.250303373","0.3553644404","0.1250298759","0.1450389045","","","","","","","","","","","","","","75","K","2","","","54","main_expt","",""
"","bandit","142","484641","0.0-96.0-0.0","64226708","wem/bandit_party_1","A1WXPOLDS1Y9R4","either","4","577","","","","","","","0","0","1","0.1224949652","","0.6","0.2","0.4","0.8","","","","","0.1850572083","0.3427354451","0.1224949652","0.1678096349","","","","","","","","","","75","K","2","","","55","main_expt","",""
"","bandit","143","486315","0.0-97.0-0.0","64226708","wem/bandit_party_1","A1WXPOLDS1Y9R4","either","4","142","","","","","","","0","0","1","0.1748395718","","0.6","0.2","0.4","0.8","","","","","0.2410157884","0.3158877586","0.1312048923","0.1748395718","","","","","","","","","","76","L","3","","","56","main_expt","",""
"","bandit","144","488330","0.0-98.0-0.0","64226708","wem/bandit_party_1","A1WXPOLDS1Y9R4","either","4","503","","","","","","","0","0","1","","0.14452077","0.6","0.2","0.4","0.8","0.2657224069","0.3224611445","0.14452077","0.146986137","","","","","","","","","","","","","","75","K","2","","","57","main_expt","",""
"","bandit","145","490280","0.0-99.0-0.0","64226708","wem/bandit_party_1","A1WXPOLDS1Y9R4","either","4","413","","","","","","","0","1","0","","0.3378672788","0.6","0.2","0.4","0.8","0.2361308133","0.3378672788","0.1198415177","0.1316135006","","","","","","","","","","","","","","74","J","1","","","58","main_expt","",""
"","bandit","146","491961","0.0-100.0-0.0","64226708","wem/bandit_party_1","A1WXPOLDS1Y9R4","either","4","151","","","","","","","0","0","1","","0.3438075972","0.6","0.2","0.4","0.8","0.2078360154","0.3438075972","0.1674914914","0.1776120447","","","","","","","","","","","","","","74","J","1","","","59","main_expt","",""
"","bandit","147","493516","0.0-101.0-0.0","64226708","wem/bandit_party_1","A1WXPOLDS1Y9R4","either","4","7","","","","","","","0","0","1","0.147959707","","0.6","0.2","0.4","0.8","","","","","0.2256957235","0.2950987239","0.147959707","0.2034864675","","","","","","","","","","75","K","2","","","60","main_expt","",""
"","bandit","148","495157","0.0-102.0-0.0","64226708","wem/bandit_party_1","A1WXPOLDS1Y9R4","either","4","122","","","","","","","0","0","1","","0.1217284172","0.6","0.2","0.4","0.8","0.2713547376","0.2939622289","0.1217284172","0.1325668513","","","","","","","","","","","","","","75","K","2","","","61","main_expt","",""
"","bandit","149","496891","0.0-103.0-0.0","64226708","wem/bandit_party_1","A1WXPOLDS1Y9R4","either","4","202","","","","","","","0","1","0","","0.2907096119","0.6","0.2","0.4","0.8","0.2800078023","0.2907096119","0.1392905859","0.125492747","","","","","","","","","","","","","","74","J","1","","","62","main_expt","",""
"","bandit","150","499017","0.0-104.0-0.0","64226708","wem/bandit_party_1","A1WXPOLDS1Y9R4","either","4","589","","","","","","","0","0","1","","0.2696382907","0.6","0.2","0.4","0.8","0.362183352","0.2696382907","0.1953314019","0.1081989139","","","","","","","","","","","","","","74","J","1","","","63","main_expt","",""
"","bandit","151","501359","0.0-105.0-0.0","64226708","wem/bandit_party_1","A1WXPOLDS1Y9R4","either","4","807","","","","","","","0","0","1","","0.3354395381","0.6","0.2","0.4","0.8","0.3354395381","0.2496415039","0.2618523415","0.09104284411","","","","","","","","","","","","","","72","H","0","img/none_selected.jpg","","64","main_expt","",""
"","bandit","152","503415","0.0-106.0-0.0","64226708","wem/bandit_party_1","A1WXPOLDS1Y9R4","either","4","519","","","","","","","0","0","1","","0.2364994079","0.6","0.2","0.4","0.8","0.2893845237","0.2364994079","0.2686672798","0.1264903162","","","","","","","","","","","","","","74","J","1","","","65","main_expt","",""
"","bandit","153","505121","0.0-107.0-0.0","64226708","wem/bandit_party_1","A1WXPOLDS1Y9R4","either","4","190","","","","","","","0","0","1","","0.2541683514","0.6","0.2","0.4","0.8","0.2355717356","0.2541683514","0.2451656397","0.1665937301","","","","","","","","","","","","","","74","J","1","","","66","main_expt","",""
"","bandit","154","506796","0.0-108.0-0.0","64226708","wem/bandit_party_1","A1WXPOLDS1Y9R4","either","4","152","","","","","","","0","0","1","0.1740025863","","0.6","0.2","0.4","0.8","","","","","0.2848755716","0.2985471382","0.2445320338","0.1740025863","","","","","","","","","","76","L","3","","","67","main_expt","",""
"","bandit","155","508468","0.0-109.0-0.0","64226708","wem/bandit_party_1","A1WXPOLDS1Y9R4","either","4","148","","","","","","","0","1","0","","0.2261158315","0.6","0.2","0.4","0.8","0.3341158043","0.3391290389","0.2261158315","0.2300011382","","","","","","","","","","","","","","75","K","2","","","68","main_expt","",""
"","bandit","156","510691","0.0-110.0-0.0","64226708","wem/bandit_party_1","A1WXPOLDS1Y9R4","either","4","704","","","","","","","0","0","1","0.1768594062","","0.6","0.2","0.4","0.8","","","","","0.3253412689","0.3114764975","0.1627286519","0.1768594062","","","","","","","","","","76","L","3","","","69","main_expt","",""
"","bandit","157","512421","0.0-111.0-0.0","64226708","wem/bandit_party_1","A1WXPOLDS1Y9R4","either","4","209","","","","","","","0","0","1","0.1906145184","","0.6","0.2","0.4","0.8","","","","","0.3280915152","0.3056328376","0.1301009224","0.1906145184","","","","","","","","","","76","L","3","","","70","main_expt","",""
"","bandit","158","514609","0.0-112.0-0.0","64226708","wem/bandit_party_1","A1WXPOLDS1Y9R4","either","4","655","","","","","","","0","0","1","0.1356707761","","0.6","0.2","0.4","0.8","","","","","0.3772643828","0.3445325487","0.1356707761","0.1451664327","","","","","","","","","","75","K","2","","","71","main_expt","",""
"","bandit","159","525425","0.0-113.0-0.0","64226708","wem/bandit_party_1","A1WXPOLDS1Y9R4","either","4","9272","","","","","","","0","0","1","","0.364612409","0.6","0.2","0.4","0.8","0.4074174212","0.364612409","0.1045412551","0.1091447996","","","","","","","","","","","","","","74","J","1","","","72","main_expt","",""
"","bandit","160","527412","0.0-114.0-0.0","64226708","wem/bandit_party_1","A1WXPOLDS1Y9R4","either","4","462","","","","","","","0","1","0","","0.4454774056","0.6","0.2","0.4","0.8","0.3736299767","0.4454774056","0.0867882282","0.1248737042","","","","","","","","","","","","","","74","J","1","","","73","main_expt","",""
"","bandit","161","529106","0.0-115.0-0.0","64226708","wem/bandit_party_1","A1WXPOLDS1Y9R4","either","4","177","","","","","","","0","0","1","0.4492830973","","0.6","0.2","0.4","0.8","","","","","0.383211712","0.4492830973","0.1018359722","0.1073746888","","","","","","","","","","74","J","1","","","74","main_expt","",""
"","bandit","162","530812","0.0-116.0-0.0","64226708","wem/bandit_party_1","A1WXPOLDS1Y9R4","either","4","160","","","","","","","0","0","1","0.449321966","","0.6","0.2","0.4","0.8","","","","","0.3681962321","0.449321966","0.09443707336","0.1051395745","","","","","","","","","","74","J","1","","","75","main_expt","",""
"","bandit","163","532827","0.0-117.0-0.0","64226708","wem/bandit_party_1","A1WXPOLDS1Y9R4","either","4","491","","","","","","","0","0","1","","0.08768691443","0.6","0.2","0.4","0.8","0.3574328021","0.4299726132","0.08768691443","0.09171451076","","","","","","","","","","","","","","75","K","2","","","76","main_expt","",""
"","bandit","164","534829","0.0-118.0-0.0","64226708","wem/bandit_party_1","A1WXPOLDS1Y9R4","either","4","479","","","","","","","0","1","0","","0.4349340462","0.6","0.2","0.4","0.8","0.4041720962","0.4349340462","0.07744448812","0.1256070833","","","","","","","","","","","","","","74","J","1","","","77","main_expt","",""
"","bandit","165","536649","0.0-119.0-0.0","64226708","wem/bandit_party_1","A1WXPOLDS1Y9R4","either","4","284","","","","","","","0","0","1","","0.4112950215","0.6","0.2","0.4","0.8","0.4000946746","0.4112950215","0.05712631425","0.1398604905","","","","","","","","","","","","","","74","J","1","","","78","main_expt","",""
"","bandit","166","538203","0.0-120.0-0.0","64226708","wem/bandit_party_1","A1WXPOLDS1Y9R4","either","4","18","","","","","","","1","0","0","0.1303191282","","0.6","0.2","0.4","0.8","","","","","0.425248604","0.4123046053","0.03981704588","0.1303191282","","","","","","","","","","76","L","3","","","79","main_expt","",""
"","bandit","167","540066","0.0-121.0-0.0","64226708","wem/bandit_party_1","A1WXPOLDS1Y9R4","either","4","329","","","","","","","0","0","1","0.4345430878","","0.6","0.2","0.4","0.8","","","","","0.4263383456","0.4345430878","0.02961196177","0.1491340647","","","","","","","","","","74","J","1","","","80","main_expt","",""
"","bandit","168","541874","0.0-122.0-0.0","64226708","wem/bandit_party_1","A1WXPOLDS1Y9R4","either","4","273","","","","","","","0","0","1","","0.0408206899","0.6","0.2","0.4","0.8","0.4377411966","0.4255274095","0.0408206899","0.1484119081","","","","","","","","","","","","","","75","K","2","","","81","main_expt","",""
"","bandit","169","543792","0.0-123.0-0.0","64226708","wem/bandit_party_1","A1WXPOLDS1Y9R4","either","4","402","","","","","","","0","0","1","","0.03491361241","0.6","0.2","0.4","0.8","0.4263216968","0.4266934287","0.03491361241","0.135460029","","","","","","","","","","","","","","75","K","2","","","82","main_expt","",""
"","bandit","170","545639","0.0-124.0-0.0","64226708","wem/bandit_party_1","A1WXPOLDS1Y9R4","either","4","307","","","","","","","0","1","0","","0.4321646522","0.6","0.2","0.4","0.8","0.4536492548","0.4321646522","0.01881925386","0.09497461961","","","","","","","","","","","","","","74","J","1","","","83","main_expt","",""
"","bandit","171","547467","0.0-125.0-0.0","64226708","wem/bandit_party_1","A1WXPOLDS1Y9R4","either","4","296","","","","","","","0","1","0","","0.43129245","0.6","0.2","0.4","0.8","0.4344769981","0.43129245","0.03441768066","0.0956585677","","","","","","","","","","","","","","74","J","1","","","84","main_expt","",""
"","bandit","172","549483","0.0-126.0-0.0","64226708","wem/bandit_party_1","A1WXPOLDS1Y9R4","either","4","484","","","","","","","0","0","1","","0.04015732792","0.6","0.2","0.4","0.8","0.4167097255","0.4307495417","0.04015732792","0.08427930603","","","","","","","","","","","","","","75","K","2","","","85","main_expt","",""
"","bandit","173","551772","0.0-127.0-0.0","64226708","wem/bandit_party_1","A1WXPOLDS1Y9R4","either","4","754","","","","","","","0","0","1","","0.4327415212","0.6","0.2","0.4","0.8","0.4215971904","0.4327415212","0.0462821445","0.09540141202","","","","","","","","","","","","","","74","J","1","","","86","main_expt","",""
"","bandit","174","553376","0.0-128.0-0.0","64226708","wem/bandit_party_1","A1WXPOLDS1Y9R4","either","4","76","","","","","","","0","0","1","0.3962725568","","0.6","0.2","0.4","0.8","","","","","0.3962725568","0.4507305815","0.07236867375","0.06504543429","","","","","","","","","","72","H","0","img/none_selected.jpg","","87","main_expt","",""
"","bandit","175","554930","0.0-129.0-0.0","64226708","wem/bandit_party_1","A1WXPOLDS1Y9R4","either","4","14","","","","","","","0","1","0","","0.4571393315","0.6","0.2","0.4","0.8","0.4038430626","0.4571393315","0.1132918069","0.05894337134","","","","","","","","","","","","","","74","J","1","","","88","main_expt","",""
"","bandit","176","556997","0.0-130.0-0.0","64226708","wem/bandit_party_1","A1WXPOLDS1Y9R4","either","4","531","","","","","","","0","0","1","","0.1466354559","0.6","0.2","0.4","0.8","0.4247877058","0.4639779763","0.1466354559","0.06803635399","","","","","","","","","","","","","","75","K","2","","","89","main_expt","",""
"","bandit","177","558860","0.0-131.0-0.0","64226708","wem/bandit_party_1","A1WXPOLDS1Y9R4","either","4","334","","","","","","","0","0","1","","0.4620017245","0.6","0.2","0.4","0.8","0.4196700557","0.4620017245","0.1746819083","0.09657856289","","","","","","","","","","","","","","74","J","1","","","90","main_expt","",""
"","bandit","178","560774","0.0-132.0-0.0","64226708","wem/bandit_party_1","A1WXPOLDS1Y9R4","either","4","383","","","","","","","0","0","1","","0.1864657318","0.6","0.2","0.4","0.8","0.401758082","0.4492963398","0.1864657318","0.08522031428","","","","","","","","","","","","","","75","K","2","","","91","main_expt","",""
"","bandit","179","562561","0.0-133.0-0.0","64226708","wem/bandit_party_1","A1WXPOLDS1Y9R4","either","4","246","","","","","","","0","1","0","","0.462009279","0.6","0.2","0.4","0.8","0.3422099147","0.462009279","0.2124622091","0.07078380504","","","","","","","","","","","","","","74","J","1","","","92","main_expt","",""
"","bandit","180","564345","0.0-134.0-0.0","64226708","wem/bandit_party_1","A1WXPOLDS1Y9R4","either","4","252","","","","","","","0","0","1","0.245786276","","0.6","0.2","0.4","0.8","","","","","0.3279059742","0.4363090379","0.245786276","0.0564278809","","","","","","","","","","75","K","2","","","93","main_expt","",""
"","bandit","181","565904","0.0-135.0-0.0","64226708","wem/bandit_party_1","A1WXPOLDS1Y9R4","either","4","35","","","","","","","0","0","1","","0.4457519602","0.6","0.2","0.4","0.8","0.3155724737","0.4457519602","0.2316759231","0.06067733924","","","","","","","","","","","","","","74","J","1","","","94","main_expt","",""
"","bandit","182","567832","0.0-136.0-0.0","64226708","wem/bandit_party_1","A1WXPOLDS1Y9R4","either","4","401","","","","","","","0","0","1","","0.4231248902","0.6","0.2","0.4","0.8","0.3519625041","0.4231248902","0.2231756969","0.08632751489","","","","","","","","","","","","","","74","J","1","","","95","main_expt","",""
"","bandit","183","569622","0.0-137.0-0.0","64226708","wem/bandit_party_1","A1WXPOLDS1Y9R4","either","4","257","","","","","","","0","0","1","","0.4210676831","0.6","0.2","0.4","0.8","0.3661455107","0.4210676831","0.1957128212","0.08481729553","","","","","","","","","","","","","","74","J","1","","","96","main_expt","",""
"","bandit","184","571622","0.0-138.0-0.0","64226708","wem/bandit_party_1","A1WXPOLDS1Y9R4","either","4","452","","","","","","","0","0","1","0.1638116915","","0.6","0.2","0.4","0.8","","","","","0.3558031673","0.4022895305","0.1638116915","0.08386440452","","","","","","","","","","75","K","2","","","97","main_expt","",""
"","bandit","185","573309","0.0-139.0-0.0","64226708","wem/bandit_party_1","A1WXPOLDS1Y9R4","either","4","143","","","","","","","0","1","0","","0.4187351015","0.6","0.2","0.4","0.8","0.3558230887","0.4187351015","0.1405816365","0.0940701929","","","","","","","","","","","","","","74","J","1","","","98","main_expt","",""
"","bandit","186","575260","0.0-140.0-0.0","64226708","wem/bandit_party_1","A1WXPOLDS1Y9R4","either","4","439","","","","","","","0","0","1","0.3064708089","","0.6","0.2","0.4","0.8","","","","","0.3064708089","0.3981340028","0.1435678602","0.1285058524","","","","","","","","","","72","H","0","img/none_selected.jpg","","99","main_expt","",""
"","bandit","187","577217","0.0-141.0-0.0","64226708","wem/bandit_party_1","A1WXPOLDS1Y9R4","either","4","429","","","","","","","0","1","0","","0.1478754355","0.6","0.2","0.4","0.8","0.352498313","0.3520446815","0.1478754355","0.065882019","","","","","","","","","","","","","","75","K","2","","","100","main_expt","",""
"","bandit","188","578762","0.0-142.0-0.0","64226708","wem/bandit_party_1","A1WXPOLDS1Y9R4","either","4","12","","","","","","","0","0","1","0.1532559328","","0.6","0.2","0.4","0.8","","","","","0.3511810171","0.3715523215","0.1532559328","0.05692140794","","","","","","","","","","75","K","2","","","101","main_expt","",""
"","bandit","189","580544","0.0-143.0-0.0","64226708","wem/bandit_party_1","A1WXPOLDS1Y9R4","either","4","241","","","","","","","0","0","1","0.04322280369","","0.6","0.2","0.4","0.8","","","","","0.3246867477","0.3966955113","0.15857411","0.04322280369","","","","","","","","","","76","L","3","","","102","main_expt","",""
"","bandit","190","582219","0.0-144.0-0.0","64226708","wem/bandit_party_1","A1WXPOLDS1Y9R4","either","4","143","","","","","","","0","0","1","0.05121437093","","0.6","0.2","0.4","0.8","","","","","0.2827689756","0.3865714765","0.1552377357","0.05121437093","","","","","","","","","","76","L","3","","","103","main_expt","",""
"","bandit","191","583943","0.0-145.0-0.0","64226708","wem/bandit_party_1","A1WXPOLDS1Y9R4","either","4","206","","","","","","","0","0","1","0.1584193753","","0.6","0.2","0.4","0.8","","","","","0.3307995119","0.3440646931","0.1584193753","0.06548077564","","","","","","","","","","75","K","2","","","104","main_expt","",""
"","bandit","192","585481","0.0-146.0-0.0","64226708","wem/bandit_party_1","A1WXPOLDS1Y9R4","either","4","9","","","","","","","0","0","1","","0.330981063","0.6","0.2","0.4","0.8","0.3078297571","0.330981063","0.192058402","0.07577357845","","","","","","","","","","","","","","74","J","1","","","105","main_expt","",""
"","bandit","193","587232","0.0-147.0-0.0","64226708","wem/bandit_party_1","A1WXPOLDS1Y9R4","either","4","213","","","","","","","0","0","1","","0.3202685942","0.6","0.2","0.4","0.8","0.3202685942","0.3317280627","0.1562344916","0.09041352565","","","","","","","","","","","","","","72","H","0","img/none_selected.jpg","","106","main_expt","",""
"","bandit","194","588887","0.0-148.0-0.0","64226708","wem/bandit_party_1","A1WXPOLDS1Y9R4","either","4","122","","","","","","","0","0","1","0.1184921167","","0.6","0.2","0.4","0.8","","","","","0.3163418234","0.2760665195","0.1493116313","0.1184921167","","","","","","","","","","76","L","3","","","107","main_expt","",""
"","bandit","195","590516","0.0-149.0-0.0","64226708","wem/bandit_party_1","A1WXPOLDS1Y9R4","either","4","106","","","","","","","1","0","0","0.2826301941","","0.6","0.2","0.4","0.8","","","","","0.3425943818","0.2826301941","0.1357435498","0.1057615429","","","","","","","","","","74","J","1","","","108","main_expt","",""
"","bandit","196","592200","0.0-150.0-0.0","64226708","wem/bandit_party_1","A1WXPOLDS1Y9R4","either","4","165","","","","","","","0","0","1","","0.1164074326","0.6","0.2","0.4","0.8","0.2852030557","0.318117281","0.1164074326","0.1464484126","","","","","","","","","","","","","","75","K","2","","","109","main_expt","",""
"","bandit","197","593762","0.0-151.0-0.0","64226708","wem/bandit_party_1","A1WXPOLDS1Y9R4","either","4","35","","","","","","","0","1","0","","0.3392406975","0.6","0.2","0.4","0.8","0.3392406975","0.3358587519","0.1444451916","0.1641354829","","","","","","","","","","","","","","72","H","0","img/none_selected.jpg","","110","main_expt","",""
"","bandit","198","595308","0.0-152.0-0.0","64226708","wem/bandit_party_1","A1WXPOLDS1Y9R4","either","4","0","","","","","","","0","1","0","","0.3023411017","0.6","0.2","0.4","0.8","0.3023411017","0.3031660534","0.09905323685","0.1386891192","","","","","","","","","","","","","","72","H","0","img/none_selected.jpg","","111","main_expt","",""
"","bandit","199","596840","0.0-153.0-0.0","64226708","wem/bandit_party_1","A1WXPOLDS1Y9R4","either","4","5","","","","","","","0","0","1","","0.09652445584","0.6","0.2","0.4","0.8","0.296849772","0.2773548355","0.09652445584","0.1847512065","","","","","","","","","","","","","","75","K","2","","","112","main_expt","",""
"","bandit","200","598688","0.0-154.0-0.0","64226708","wem/bandit_party_1","A1WXPOLDS1Y9R4","either","4","330","","","","","","","0","1","0","","0.2370758425","0.6","0.2","0.4","0.8","0.2673419259","0.2370758425","0.09961189632","0.1304555333","","","","","","","","","","","","","","74","J","1","","","113","main_expt","",""
"","bandit","201","600535","0.0-155.0-0.0","64226708","wem/bandit_party_1","A1WXPOLDS1Y9R4","either","4","324","","","","","","","0","1","0","","0.1821928837","0.6","0.2","0.4","0.8","0.2670531803","0.1821928837","0.1036139638","0.1770102637","","","","","","","","","","","","","","74","J","1","","","114","main_expt","",""
"","bandit","202","602339","0.0-156.0-0.0","64226708","wem/bandit_party_1","A1WXPOLDS1Y9R4","either","4","271","","","","","","","0","0","1","","0.0968506792","0.6","0.2","0.4","0.8","0.2825009356","0.1315453283","0.0968506792","0.1564651975","","","","","","","","","","","","","","75","K","2","","","115","main_expt","",""
"","bandit","203","604152","0.0-157.0-0.0","64226708","wem/bandit_party_1","A1WXPOLDS1Y9R4","either","4","288","","","","","","","0","0","1","","0.1102777544","0.6","0.2","0.4","0.8","0.3237719372","0.1102777544","0.08782875681","0.1665702367","","","","","","","","","","","","","","74","J","1","","","116","main_expt","",""
"","bandit","204","605980","0.0-158.0-0.0","64226708","wem/bandit_party_1","A1WXPOLDS1Y9R4","either","4","289","","","","","","","0","0","1","","0.1530687496","0.6","0.2","0.4","0.8","0.3154846423","0.1101610351","0.06031800864","0.1530687496","","","","","","","","","","","","","","76","L","3","","","117","main_expt","",""
"","bandit","205","607625","0.0-159.0-0.0","64226708","wem/bandit_party_1","A1WXPOLDS1Y9R4","either","4","118","","","","","","","0","0","1","0.05633053331","","0.6","0.2","0.4","0.8","","","","","0.2584508078","0.122460482","0.05633053331","0.1674206906","","","","","","","","","","75","K","2","","","118","main_expt","",""
"","bandit","206","609184","0.0-160.0-0.0","64226708","wem/bandit_party_1","A1WXPOLDS1Y9R4","either","4","29","","","","","","","0","0","1","","0.1451868924","0.6","0.2","0.4","0.8","0.2141905193","0.1451868924","0.07530514027","0.1990215448","","","","","","","","","","","","","","74","J","1","","","119","main_expt","",""
"","bandit","207","610995","0.0-161.0-0.0","64226708","wem/bandit_party_1","A1WXPOLDS1Y9R4","either","4","284","","","","","","","0","0","1","","0.09639595661","0.6","0.2","0.4","0.8","0.2341954374","0.09092593383","0.09639595661","0.2208640619","","","","","","","","","","","","","","75","K","2","","","120","main_expt","",""
"","bandit","208","612778","0.0-162.0-0.0","64226708","wem/bandit_party_1","A1WXPOLDS1Y9R4","either","4","253","","","","","","","0","0","1","0.1421799471","","0.6","0.2","0.4","0.8","","","","","0.1886372651","0.1080456108","0.1421799471","0.2602917539","","","","","","","","","","75","K","2","","","121","main_expt","",""
"","bandit","209","614365","0.0-163.0-0.0","64226708","wem/bandit_party_1","A1WXPOLDS1Y9R4","either","4","58","","","","","","","0","0","1","","0.1169053248","0.6","0.2","0.4","0.8","0.1597592322","0.1169053248","0.1624760489","0.2512498235","","","","","","","","","","","","","","74","J","1","","","122","main_expt","",""
"","bandit","210","615914","0.0-164.0-0.0","64226708","wem/bandit_party_1","A1WXPOLDS1Y9R4","either","4","22","","","","","","","0","0","1","","0.1895266442","0.6","0.2","0.4","0.8","0.1895266442","0.1571594809","0.1640214383","0.2266242761","","","","","","","","","","","","","","72","H","0","img/none_selected.jpg","","123","main_expt","",""
"","bandit","211","617606","0.0-165.0-0.0","64226708","wem/bandit_party_1","A1WXPOLDS1Y9R4","either","4","153","","","","","","","0","0","1","0.2373824638","","0.6","0.2","0.4","0.8","","","","","0.2042850732","0.2231804049","0.2014340991","0.2373824638","","","","","","","","","","76","L","3","","","124","main_expt","",""
"","bandit","212","619354","0.0-166.0-0.0","64226708","wem/bandit_party_1","A1WXPOLDS1Y9R4","either","4","207","","","","","","","0","0","1","","0.2232794356","0.6","0.2","0.4","0.8","0.1812515389","0.2232794356","0.2229229076","0.2538727107","","","","","","","","","","","","","","74","J","1","","","125","main_expt","",""
"","bandit","213","620947","0.0-167.0-0.0","64226708","wem/bandit_party_1","A1WXPOLDS1Y9R4","either","4","55","","","","","","","0","0","1","0.2316903634","","0.6","0.2","0.4","0.8","","","","","0.1694736183","0.2316903634","0.2324712723","0.290219491","","","","","","","","","","74","J","1","","","126","main_expt","",""
"","bandit","214","622545","0.0-168.0-0.0","64226708","wem/bandit_party_1","A1WXPOLDS1Y9R4","either","4","66","","","","","","","0","1","0","","0.2337524142","0.6","0.2","0.4","0.8","0.1624528765","0.2337524142","0.2628391623","0.2542505169","","","","","","","","","","","","","","74","J","1","","","127","main_expt","",""
"","bandit","215","624368","0.0-169.0-0.0","64226708","wem/bandit_party_1","A1WXPOLDS1Y9R4","either","4","308","","","","","","","0","0","1","","0.2198210178","0.6","0.2","0.4","0.8","0.1632982916","0.2198210178","0.2654356302","0.2582316027","","","","","","","","","","","","","","74","J","1","","","128","main_expt","",""
"","bandit","216","626105","0.0-170.0-0.0","64226708","wem/bandit_party_1","A1WXPOLDS1Y9R4","either","4","223","","","","","","","0","0","1","","0.2280168395","0.6","0.2","0.4","0.8","0.2264598068","0.2280168395","0.2070569149","0.3267566011","","","","","","","","","","","","","","74","J","1","","","129","main_expt","",""
"","bandit","217","627730","0.0-171.0-0.0","64226708","wem/bandit_party_1","A1WXPOLDS1Y9R4","either","4","86","","","","","","","0","1","0","","0.243895296","0.6","0.2","0.4","0.8","0.202760285","0.243895296","0.2579182239","0.3323271388","","","","","","","","","","","","","","74","J","1","","","130","main_expt","",""
"","bandit","218","629387","0.0-172.0-0.0","64226708","wem/bandit_party_1","A1WXPOLDS1Y9R4","either","4","110","","","","","","","0","0","1","","0.2164454501","0.6","0.2","0.4","0.8","0.1585094705","0.2164454501","0.2329110821","0.2666668646","","","","","","","","","","","","","","74","J","1","","","131","main_expt","",""
"","bandit","219","631079","0.0-173.0-0.0","64226708","wem/bandit_party_1","A1WXPOLDS1Y9R4","either","4","166","","","","","","","0","0","1","","0.200468731","0.6","0.2","0.4","0.8","0.1304261544","0.200468731","0.2400232435","0.2359119393","","","","","","","","","","","","","","74","J","1","","","132","main_expt","",""
"","bandit","220","632932","0.0-174.0-0.0","64226708","wem/bandit_party_1","A1WXPOLDS1Y9R4","either","4","311","","","","","","","0","0","1","0.2084798617","","0.6","0.2","0.4","0.8","","","","","0.09339990826","0.2038597077","0.2084798617","0.2540740643","","","","","","","","","","75","K","2","","","133","main_expt","",""
"","bandit","221","635229","0.0-175.0-0.0","64226708","wem/bandit_party_1","A1WXPOLDS1Y9R4","either","4","760","","","","","","","0","0","1","0.2263269307","","0.6","0.2","0.4","0.8","","","","","0.08524612959","0.2263269307","0.2034544","0.2414927735","","","","","","","","","","74","J","1","","","134","main_expt","",""
"","bandit","222","637184","0.0-176.0-0.0","64226708","wem/bandit_party_1","A1WXPOLDS1Y9R4","either","4","427","","","","","","","0","0","1","","0.0622033461","0.6","0.2","0.4","0.8","0.0622033461","0.2686469146","0.2088958693","0.2632369982","","","","","","","","","","","","","","72","H","0","img/none_selected.jpg","","135","main_expt","",""
"","bandit","223","638967","0.0-177.0-0.0","64226708","wem/bandit_party_1","A1WXPOLDS1Y9R4","either","4","250","","","","","","","0","0","1","","0.05632890875","0.6","0.2","0.4","0.8","0.05632890875","0.3170393738","0.2573758916","0.3032623762","","","","","","","","","","","","","","72","H","0","img/none_selected.jpg","","136","main_expt","",""
"","bandit","224","640896","0.0-178.0-0.0","64226708","wem/bandit_party_1","A1WXPOLDS1Y9R4","either","4","410","","","","","","","0","0","1","","0.338962466","0.6","0.2","0.4","0.8","0.06052980877","0.338962466","0.2467438462","0.2984046037","","","","","","","","","","","","","","74","J","1","","","137","main_expt","",""
"","bandit","225","642433","0.0-179.0-0.0","64226708","wem/bandit_party_1","A1WXPOLDS1Y9R4","either","4","0","","","","","","","0","0","1","","0.2221944767","0.6","0.2","0.4","0.8","0.1038497792","0.3586643031","0.2221944767","0.3110629865","","","","","","","","","","","","","","75","K","2","","","138","main_expt","",""
"","bandit","226","644108","0.0-180.0-0.0","64226708","wem/bandit_party_1","A1WXPOLDS1Y9R4","either","4","153","","","","","","","0","0","1","","0.3430902759","0.6","0.2","0.4","0.8","0.08561062373","0.3430902759","0.2750517365","0.3048373826","","","","","","","","","","","","","","74","J","1","","","139","main_expt","",""
"","bandit","227","645901","0.0-181.0-0.0","64226708","wem/bandit_party_1","A1WXPOLDS1Y9R4","either","4","252","","","","","","","0","0","1","0.3777112835","","0.6","0.2","0.4","0.8","","","","","0.08025295029","0.3777112835","0.277474309","0.3163642845","","","","","","","","","","74","J","1","","","140","main_expt","",""
"","bandit","228","647593","0.0-182.0-0.0","64226708","wem/bandit_party_1","A1WXPOLDS1Y9R4","either","4","170","","","","","","","0","0","1","","0.09309891757","0.6","0.2","0.4","0.8","0.09309891757","0.4276051364","0.2932007391","0.2213861514","","","","","","","","","","","","","","72","H","0","img/none_selected.jpg","","141","main_expt","",""
"","bandit","229","649868","0.0-183.0-0.0","64226708","wem/bandit_party_1","A1WXPOLDS1Y9R4","either","4","755","","","","","","","0","0","1","0.2492613222","","0.6","0.2","0.4","0.8","","","","","0.1107976638","0.4312347149","0.3001807938","0.2492613222","","","","","","","","","","76","L","3","","","142","main_expt","",""
"","bandit","230","651575","0.0-184.0-0.0","64226708","wem/bandit_party_1","A1WXPOLDS1Y9R4","either","4","188","","","","","","","0","0","1","","0.386657586","0.6","0.2","0.4","0.8","0.09575525052","0.386657586","0.3640878437","0.2645663874","","","","","","","","","","","","","","74","J","1","","","143","main_expt","",""
"","bandit","231","653118","0.0-185.0-0.0","64226708","wem/bandit_party_1","A1WXPOLDS1Y9R4","either","4","22","","","","","","","0","1","0","","0.3409851627","0.6","0.2","0.4","0.8","0.07222794989","0.3409851627","0.2706796495","0.2928215939","","","","","","","","","","","","","","74","J","1","","","144","main_expt","",""
"","bandit","232","654795","0.0-186.0-0.0","64226708","wem/bandit_party_1","A1WXPOLDS1Y9R4","either","4","149","","","","","","","1","0","0","0.3538709708","","0.6","0.2","0.4","0.8","","","","","0.03203798906","0.3538709708","0.2359726437","0.3178979655","","","","","","","","","","74","J","1","","","145","main_expt","",""
"","bandit","233","656659","0.0-187.0-0.0","64226708","wem/bandit_party_1","A1WXPOLDS1Y9R4","either","4","332","","","","","","","0","0","1","0.2745956728","","0.6","0.2","0.4","0.8","","","","","0.03073079809","0.2745956728","0.2200332621","0.2850957273","","","","","","","","","","74","J","1","","","146","main_expt","",""
"","bandit","234","658432","0.0-188.0-0.0","64226708","wem/bandit_party_1","A1WXPOLDS1Y9R4","either","4","231","","","","","","","0","1","0","","0.2375793476","0.6","0.2","0.4","0.8","0.05105424151","0.2375793476","0.1957794229","0.2483519338","","","","","","","","","","","","","","74","J","1","","","147","main_expt","",""
"","bandit","235","660150","0.0-189.0-0.0","64226708","wem/bandit_party_1","A1WXPOLDS1Y9R4","either","4","188","","","","","","","0","0","1","0.1790722045","","0.6","0.2","0.4","0.8","","","","","0.04045355104","0.2954602587","0.1790722045","0.2309770791","","","","","","","","","","75","K","2","","","148","main_expt","",""
"","bandit","236","661697","0.0-190.0-0.0","64226708","wem/bandit_party_1","A1WXPOLDS1Y9R4","either","4","17","","","","","","","0","0","1","0.2189150546","","0.6","0.2","0.4","0.8","","","","","0.06416506337","0.3435099865","0.2189150546","0.1759049641","","","","","","","","","","75","K","2","","","149","main_expt","",""
"","bandit","237","663592","0.0-191.0-0.0","64226708","wem/bandit_party_1","A1WXPOLDS1Y9R4","either","4","380","","","","","","","0","0","1","0.268900415","","0.6","0.2","0.4","0.8","","","","","0.07819388902","0.268900415","0.2119229637","0.1910702346","","","","","","","","","","74","J","1","","","150","main_expt","",""
"","bandit","238","665181","0.0-192.0-0.0","64226708","wem/bandit_party_1","A1WXPOLDS1Y9R4","either","4","61","","","","","","","0","0","1","","0.2326488896","0.6","0.2","0.4","0.8","0.1186979887","0.2326488896","0.2472398003","0.1799178466","","","","","","","","","","","","","","74","J","1","","","151","main_expt","",""
"","bandit","239","666790","0.0-193.0-0.0","64226708","wem/bandit_party_1","A1WXPOLDS1Y9R4","either","4","69","","","","","","","0","1","0","","0.2768057641","0.6","0.2","0.4","0.8","0.1084773402","0.2768057641","0.2148428051","0.1826140084","","","","","","","","","","","","","","74","J","1","","","152","main_expt","",""
"","bandit","240","668648","0.0-194.0-0.0","64226708","wem/bandit_party_1","A1WXPOLDS1Y9R4","either","4","322","","","","","","","0","1","0","","0.2997660112","0.6","0.2","0.4","0.8","0.1314289417","0.2997660112","0.1598057249","0.147924298","","","","","","","","","","","","","","74","J","1","","","153","main_expt","",""
"","bandit","241","670513","0.0-195.0-0.0","64226708","wem/bandit_party_1","A1WXPOLDS1Y9R4","either","4","341","","","","","","","0","0","1","","0.3196464983","0.6","0.2","0.4","0.8","0.1354051011","0.3196464983","0.1489099923","0.1388357139","","","","","","","","","","","","","","74","J","1","","","154","main_expt","",""
"","bandit","242","672434","0.0-196.0-0.0","64226708","wem/bandit_party_1","A1WXPOLDS1Y9R4","either","4","381","","","","","","","0","0","1","","0.3141654429","0.6","0.2","0.4","0.8","0.1085215933","0.3141654429","0.1502541116","0.1658398244","","","","","","","","","","","","","","74","J","1","","","155","main_expt","",""
"","bandit","243","674291","0.0-197.0-0.0","64226708","wem/bandit_party_1","A1WXPOLDS1Y9R4","either","4","325","","","","","","","0","1","0","","0.2667217688","0.6","0.2","0.4","0.8","0.1383379057","0.2667217688","0.1605084188","0.1104921729","","","","","","","","","","","","","","74","J","1","","","156","main_expt","",""
"","bandit","244","675994","0.0-198.0-0.0","64226708","wem/bandit_party_1","A1WXPOLDS1Y9R4","either","4","160","","","","","","","0","0","1","","0.2867075714","0.6","0.2","0.4","0.8","0.1428990181","0.2867075714","0.1684101418","0.09530810267","","","","","","","","","","","","","","74","J","1","","","157","main_expt","",""
"","bandit","245","677540","0.0-199.0-0.0","64226708","wem/bandit_party_1","A1WXPOLDS1Y9R4","either","4","12","","","","","","","1","0","0","0.1807688322","","0.6","0.2","0.4","0.8","","","","","0.07455979893","0.2788639118","0.1807688322","0.1211627972","","","","","","","","","","75","K","2","","","158","main_expt","",""
"","bandit","246","679089","0.0-200.0-0.0","64226708","wem/bandit_party_1","A1WXPOLDS1Y9R4","either","4","12","","","","","","","0","0","1","","0.3020710819","0.6","0.2","0.4","0.8","0.1009372764","0.3020710819","0.1516426412","0.1012897464","","","","","","","","","","","","","","74","J","1","","","159","main_expt","",""
"","bandit","247","680773","0.0-201.0-0.0","64226708","wem/bandit_party_1","A1WXPOLDS1Y9R4","either","4","161","","","","","","","0","0","1","","0.3404227007","0.6","0.2","0.4","0.8","0.05118862797","0.3404227007","0.1638698877","0.1188035868","","","","","","","","","","","","","","74","J","1","","","160","main_expt","",""
"","bandit","248","682431","0.0-202.0-0.0","64226708","wem/bandit_party_1","A1WXPOLDS1Y9R4","either","4","120","","","","","","","0","0","1","0.1645359983","","0.6","0.2","0.4","0.8","","","","","0.05265847637","0.2876249865","0.1645359983","0.1606836622","","","","","","","","","","75","K","2","","","161","main_expt","",""
"","bandit","249","684181","0.0-203.0-0.0","64226708","wem/bandit_party_1","A1WXPOLDS1Y9R4","either","4","211","","","","","","","0","0","1","","0.2401308511","0.6","0.2","0.4","0.8","0.07938684611","0.2401308511","0.2509918509","0.1859884171","","","","","","","","","","","","","","74","J","1","","","162","main_expt","",""
"","bandit","250","685821","0.0-204.0-0.0","64226708","wem/bandit_party_1","A1WXPOLDS1Y9R4","either","4","106","","","","","","","1","0","0","0.2486605046","","0.6","0.2","0.4","0.8","","","","","0.0970900163","0.2486605046","0.1883685458","0.2528258464","","","","","","","","","","74","J","1","","","163","main_expt","",""
"","bandit","251","687484","0.0-205.0-0.0","64226708","wem/bandit_party_1","A1WXPOLDS1Y9R4","either","4","147","","","","","","","0","0","1","","0.22675384","0.6","0.2","0.4","0.8","0.07401968201","0.22675384","0.2179532334","0.2515292425","","","","","","","","","","","","","","74","J","1","","","164","main_expt","",""
"","bandit","252","689321","0.0-206.0-0.0","64226708","wem/bandit_party_1","A1WXPOLDS1Y9R4","either","4","299","","","","","","","0","0","1","","0.2841151948","0.6","0.2","0.4","0.8","0.06633104104","0.2841151948","0.2143704678","0.2068970429","","","","","","","","","","","","","","74","J","1","","","165","main_expt","",""
"","bandit","253","690978","0.0-207.0-0.0","64226708","wem/bandit_party_1","A1WXPOLDS1Y9R4","either","4","121","","","","","","","0","0","1","0.1413778631","","0.6","0.2","0.4","0.8","","","","","0.05309652092","0.2842980464","0.2175899085","0.1413778631","","","","","","","","","","76","L","3","","","166","main_expt","",""
"","bandit","254","692793","0.0-208.0-0.0","64226708","wem/bandit_party_1","A1WXPOLDS1Y9R4","either","4","261","","","","","","","0","0","1","","0.3007590714","0.6","0.2","0.4","0.8","0.07357446968","0.3007590714","0.2137120923","0.1999497975","","","","","","","","","","","","","","74","J","1","","","167","main_expt","",""
"","bandit","255","696054","0.0-209.0-0.0","64226708","wem/bandit_party_1","A1WXPOLDS1Y9R4","either","4","1733","","","","","","","0","1","0","","0.2884936601","0.6","0.2","0.4","0.8","0.1054325378","0.2884936601","0.2331560811","0.1696145944","","","","","","","","","","","","","","74","J","1","","","168","main_expt","",""
"","bandit","256","697792","0.0-210.0-0.0","64226708","wem/bandit_party_1","A1WXPOLDS1Y9R4","either","4","186","","","","","","","0","0","1","0.2367963754","","0.6","0.2","0.4","0.8","","","","","0.08536867429","0.2803439438","0.2367963754","0.1338518967","","","","","","","","","","75","K","2","","","169","main_expt","",""
"","bandit","257","699603","0.0-211.0-0.0","64226708","wem/bandit_party_1","A1WXPOLDS1Y9R4","either","4","268","","","","","","","0","0","1","0.1083432756","","0.6","0.2","0.4","0.8","","","","","0.1083432756","0.3010437192","0.2378050175","0.1307598277","","","","","","","","","","72","H","0","img/none_selected.jpg","","170","main_expt","",""
"","bandit","258","701320","0.0-212.0-0.0","64226708","wem/bandit_party_1","A1WXPOLDS1Y9R4","either","4","192","","","","","","","0","0","1","","0.09185370626","0.6","0.2","0.4","0.8","0.09185370626","0.3243802095","0.2253696972","0.1200375331","","","","","","","","","","","","","","72","H","0","img/none_selected.jpg","","171","main_expt","",""
"","bandit","259","702837","0.0-213.0-0.0","64226708","wem/bandit_party_1","A1WXPOLDS1Y9R4","either","4","0","","","","","","","0","1","0","","0.3140094691","0.6","0.2","0.4","0.8","0.09458096772","0.3140094691","0.2903394368","0.07514546963","","","","","","","","","","","","","","74","J","1","","","172","main_expt","",""
"","bandit","260","704482","0.0-214.0-0.0","64226708","wem/bandit_party_1","A1WXPOLDS1Y9R4","either","4","116","","","","","","","0","0","1","0.2384828248","","0.6","0.2","0.4","0.8","","","","","0.1016296913","0.2433770114","0.2384828248","0.07704486673","","","","","","","","","","75","K","2","","","173","main_expt","",""
"","bandit","261","706400","0.0-215.0-0.0","64226708","wem/bandit_party_1","A1WXPOLDS1Y9R4","either","4","363","","","","","","","0","0","1","","0.2823111034","0.6","0.2","0.4","0.8","0.117107939","0.2080779891","0.2823111034","0.04061738922","","","","","","","","","","","","","","75","K","2","","","174","main_expt","",""
"","bandit","262","708181","0.0-216.0-0.0","64226708","wem/bandit_party_1","A1WXPOLDS1Y9R4","either","4","233","","","","","","","0","1","0","","0.2211365803","0.6","0.2","0.4","0.8","0.1254773658","0.2211365803","0.292147578","0.02968316822","","","","","","","","","","","","","","74","J","1","","","175","main_expt","",""
"","bandit","263","722258","0.0-217.0-0.0","64226708","wem/bandit_party_1","A1WXPOLDS1Y9R4","either","4","12535","","","","","","","0","0","1","","0.2928295457","0.6","0.2","0.4","0.8","0.1518856622","0.231280906","0.2928295457","0.04419366322","","","","","","","","","","","","","","75","K","2","","","176","main_expt","",""
"","bandit","264","725323","0.0-218.0-0.0","64226708","wem/bandit_party_1","A1WXPOLDS1Y9R4","either","4","1523","","","","","","","0","0","1","","0.1689881391","0.6","0.2","0.4","0.8","0.1502483312","0.1689881391","0.297241693","0.04140429262","","","","","","","","","","","","","","74","J","1","","","177","main_expt","",""
"","bandit","265","727325","0.0-219.0-0.0","64226708","wem/bandit_party_1","A1WXPOLDS1Y9R4","either","4","467","","","","","","","0","0","1","0.276241128","","0.6","0.2","0.4","0.8","","","","","0.2073149786","0.1699404395","0.276241128","0.06103489621","","","","","","","","","","75","K","2","","","178","main_expt","",""
"","bandit","266","729228","0.0-220.0-0.0","64226708","wem/bandit_party_1","A1WXPOLDS1Y9R4","either","4","353","","","","","","","0","1","0","","0.1571972967","0.6","0.2","0.4","0.8","0.1928578162","0.1571972967","0.2405339857","0.053608248","","","","","","","","","","","","","","74","J","1","","","179","main_expt","",""
"","bandit","267","730779","0.0-221.0-0.0","64226708","wem/bandit_party_1","A1WXPOLDS1Y9R4","either","4","1","","","","","","","0","0","1","","0.233428307","0.6","0.2","0.4","0.8","0.1412953234","0.1567782565","0.233428307","0.06289379635","","","","","","","","","","","","","","75","K","2","","","180","main_expt","",""
"","bandit","268","732463","0.0-222.0-0.0","64226708","wem/bandit_party_1","A1WXPOLDS1Y9R4","either","4","107","","","","","","","0","1","0","","0.1492691696","0.6","0.2","0.4","0.8","0.1258774719","0.1492691696","0.1459310114","0.07748386732","","","","","","","","","","","","","","74","J","1","","","181","main_expt","",""
"","bandit","269","734216","0.0-223.0-0.0","64226708","wem/bandit_party_1","A1WXPOLDS1Y9R4","either","4","214","","","","","","","0","1","0","","0.1609613705","0.6","0.2","0.4","0.8","0.1121960069","0.1609613705","0.1796360657","0.096714051","","","","","","","","","","","","","","74","J","1","","","182","main_expt","",""
"","bandit","270","735775","0.0-224.0-0.0","64226708","wem/bandit_party_1","A1WXPOLDS1Y9R4","either","4","39","","","","","","","0","0","1","","0.1982891881","0.6","0.2","0.4","0.8","0.08335286121","0.1982891881","0.1907874973","0.05351369794","","","","","","","","","","","","","","74","J","1","","","183","main_expt","",""
"","bandit","271","738210","0.0-225.0-0.0","64226708","wem/bandit_party_1","A1WXPOLDS1Y9R4","either","4","889","","","","","","","0","0","1","0.1085923678","","0.6","0.2","0.4","0.8","","","","","0.1085923678","0.1703318442","0.1451627339","0.08854511538","","","","","","","","","","72","H","0","img/none_selected.jpg","","184","main_expt","",""
"","bandit","272","739784","0.0-226.0-0.0","64226708","wem/bandit_party_1","A1WXPOLDS1Y9R4","either","4","46","","","","","","","0","0","1","","0.09566746086","0.6","0.2","0.4","0.8","0.1113654269","0.09566746086","0.1692531577","0.136385666","","","","","","","","","","","","","","74","J","1","","","185","main_expt","",""
"","bandit","273","741398","0.0-227.0-0.0","64226708","wem/bandit_party_1","A1WXPOLDS1Y9R4","either","4","63","","","","","","","0","0","1","0.1383531569","","0.6","0.2","0.4","0.8","","","","","0.1383531569","0.1254261761","0.1885113298","0.1848043888","","","","","","","","","","72","H","0","img/none_selected.jpg","","186","main_expt","",""
"","bandit","274","743231","0.0-228.0-0.0","64226708","wem/bandit_party_1","A1WXPOLDS1Y9R4","either","4","304","","","","","","","1","0","0","0.1640989128","","0.6","0.2","0.4","0.8","","","","","0.1739713275","0.1081798115","0.2088125345","0.1640989128","","","","","","","","","","76","L","3","","","187","main_expt","",""
"","bandit","275","744750","0.0-229.0-0.0","64226708","wem/bandit_party_1","A1WXPOLDS1Y9R4","either","4","1","","","","","","","0","0","1","0.08529062399","","0.6","0.2","0.4","0.8","","","","","0.1926366302","0.08529062399","0.2228369986","0.1301402021","","","","","","","","","","74","J","1","","","188","main_expt","",""
"","bandit","276","746742","0.0-230.0-0.0","64226708","wem/bandit_party_1","A1WXPOLDS1Y9R4","either","4","448","","","","","","","1","0","0","0.1980942663","","0.6","0.2","0.4","0.8","","","","","0.2499935398","0.07250281893","0.2567428292","0.1980942663","","","","","","","","","","76","L","3","","","189","main_expt","",""
"","bandit","277","748587","0.0-231.0-0.0","64226708","wem/bandit_party_1","A1WXPOLDS1Y9R4","either","4","304","","","","","","","0","0","1","0.07895395147","","0.6","0.2","0.4","0.8","","","","","0.2367317824","0.07895395147","0.3177850294","0.1842725295","","","","","","","","","","74","J","1","","","190","main_expt","",""
"","bandit","278","750431","0.0-232.0-0.0","64226708","wem/bandit_party_1","A1WXPOLDS1Y9R4","either","4","301","","","","","","","0","0","1","","0.06204701637","0.6","0.2","0.4","0.8","0.2515026666","0.06204701637","0.2876912335","0.2087081259","","","","","","","","","","","","","","74","J","1","","","191","main_expt","",""
"","bandit","279","752047","0.0-233.0-0.0","64226708","wem/bandit_party_1","A1WXPOLDS1Y9R4","either","4","96","","","","","","","0","0","1","0.2383873749","","0.6","0.2","0.4","0.8","","","","","0.2451916405","0.064067899","0.2383873749","0.1800110976","","","","","","","","","","75","K","2","","","192","main_expt","",""
"","bandit","280","753585","0.0-234.0-0.0","64226708","wem/bandit_party_1","A1WXPOLDS1Y9R4","either","4","13","","","","","","","0","0","1","0.24690957","","0.6","0.2","0.4","0.8","","","","","0.2353451433","0.1286650472","0.24690957","0.1519186298","","","","","","","","","","75","K","2","","","193","main_expt","",""
"","bandit","281","755445","0.0-235.0-0.0","64226708","wem/bandit_party_1","A1WXPOLDS1Y9R4","either","4","321","","","","","","","0","0","1","0.1746490116","","0.6","0.2","0.4","0.8","","","","","0.307075739","0.1746490116","0.2728455101","0.1431656489","","","","","","","","","","74","J","1","","","194","main_expt","",""
"","bandit","282","757258","0.0-236.0-0.0","64226708","wem/bandit_party_1","A1WXPOLDS1Y9R4","either","4","261","","","","","","","0","0","1","","0.129035247","0.6","0.2","0.4","0.8","0.3011001907","0.129035247","0.2421292151","0.1868251083","","","","","","","","","","","","","","74","J","1","","","195","main_expt","",""
"","bandit","283","758903","0.0-237.0-0.0","64226708","wem/bandit_party_1","A1WXPOLDS1Y9R4","either","4","111","","","","","","","0","0","1","","0.09052040682","0.6","0.2","0.4","0.8","0.2861216794","0.09052040682","0.2598052724","0.176624335","","","","","","","","","","","","","","74","J","1","","","196","main_expt","",""
"","bandit","284","760600","0.0-238.0-0.0","64226708","wem/bandit_party_1","A1WXPOLDS1Y9R4","either","4","173","","","","","","","0","0","1","0.2540930088","","0.6","0.2","0.4","0.8","","","","","0.2121549007","0.08675464884","0.2540930088","0.2383323772","","","","","","","","","","75","K","2","","","197","main_expt","",""
"","bandit","285","762335","0.0-239.0-0.0","64226708","wem/bandit_party_1","A1WXPOLDS1Y9R4","either","4","195","","","","","","","1","0","0","0.260618614","","0.6","0.2","0.4","0.8","","","","","0.260340052","0.09429549835","0.2460150375","0.260618614","","","","","","","","","","76","L","3","","","198","main_expt","",""
"","bandit","286","763944","0.0-240.0-0.0","64226708","wem/bandit_party_1","A1WXPOLDS1Y9R4","either","4","77","","","","","","","0","0","1","","0.09303778716","0.6","0.2","0.4","0.8","0.3009562829","0.09303778716","0.2217343644","0.2935067364","","","","","","","","","","","","","","74","J","1","","","199","main_expt","",""
"","bandit","287","766839","0.0-241.0-0.0","64226708","wem/bandit_party_1","A1WXPOLDS1Y9R4","either","4","1376","","","","","","","0","0","1","","0.07354084322","0.6","0.2","0.4","0.8","0.3430896668","0.07354084322","0.2830302048","0.362920627","","","","","","","","","","","","","","74","J","1","","","200","main_expt","",""
"","bandit","288","768433","0.0-242.0-0.0","64226708","wem/bandit_party_1","A1WXPOLDS1Y9R4","either","4","54","","","","","","","0","1","0","","0.08115367452","0.6","0.2","0.4","0.8","0.2973668079","0.08115367452","0.3175621279","0.3119044903","","","","","","","","","","","","","","74","J","1","","","201","main_expt","",""
"","bandit","289","783008","0.0-243.0-0.0","64226708","wem/bandit_party_1","A1WXPOLDS1Y9R4","either","4","13036","","","","","","","1","0","0","0.3049471546","","0.6","0.2","0.4","0.8","","","","","0.3219337599","0.0774842685","0.3049471546","0.3095695708","","","","","","","","","","75","K","2","","","202","main_expt","",""
"","bandit","290","785307","0.0-244.0-0.0","64226708","wem/bandit_party_1","A1WXPOLDS1Y9R4","either","4","757","","","","","","","0","0","1","0.3229991028","","0.6","0.2","0.4","0.8","","","","","0.3229991028","0.09704724367","0.2975042969","0.3005459379","","","","","","","","","","72","H","0","img/none_selected.jpg","","203","main_expt","",""
"","bandit","291","787459","0.0-245.0-0.0","64226708","wem/bandit_party_1","A1WXPOLDS1Y9R4","either","4","578","","","","","","","0","0","1","0.3116824409","","0.6","0.2","0.4","0.8","","","","","0.3077995671","0.1224111047","0.2268457719","0.3116824409","","","","","","","","","","76","L","3","","","204","main_expt","",""
"","bandit","292","789350","0.0-246.0-0.0","64226708","wem/bandit_party_1","A1WXPOLDS1Y9R4","either","4","344","","","","","","","0","0","1","","0.1627664319","0.6","0.2","0.4","0.8","0.3070199156","0.1627664319","0.2582085449","0.3291635812","","","","","","","","","","","","","","74","J","1","","","205","main_expt","",""
"","bandit","293","791172","0.0-247.0-0.0","64226708","wem/bandit_party_1","A1WXPOLDS1Y9R4","either","4","289","","","","","","","0","0","1","","0.2841247045","0.6","0.2","0.4","0.8","0.3109683939","0.1604236747","0.2841247045","0.4008790519","","","","","","","","","","","","","","75","K","2","","","206","main_expt","",""
"","bandit","294","793316","0.0-248.0-0.0","64226708","wem/bandit_party_1","A1WXPOLDS1Y9R4","either","4","597","","","","","","","0","0","1","","0.3333225396","0.6","0.2","0.4","0.8","0.2845075958","0.126388554","0.3333225396","0.4202180382","","","","","","","","","","","","","","75","K","2","","","207","main_expt","",""
"","bandit","295","795162","0.0-249.0-0.0","64226708","wem/bandit_party_1","A1WXPOLDS1Y9R4","either","4","308","","","","","","","0","0","1","0.290219871","","0.6","0.2","0.4","0.8","","","","","0.2419557814","0.1602309633","0.290219871","0.4168586074","","","","","","","","","","75","K","2","","","208","main_expt","",""
"","bandit","296","797037","0.0-250.0-0.0","64226708","wem/bandit_party_1","A1WXPOLDS1Y9R4","either","4","330","","","","","","","0","0","1","0.2449545816","","0.6","0.2","0.4","0.8","","","","","0.2449545816","0.2009997365","0.3426384504","0.3949328033","","","","","","","","","","72","H","0","img/none_selected.jpg","","209","main_expt","",""
"","bandit","297","798839","0.0-251.0-0.0","64226708","wem/bandit_party_1","A1WXPOLDS1Y9R4","either","4","256","","","","","","","0","1","0","","0.2932754766","0.6","0.2","0.4","0.8","0.2176860071","0.1997114924","0.2932754766","0.41782505","","","","","","","","","","","","","","75","K","2","","","210","main_expt","",""
"","bandit","298","800639","0.0-252.0-0.0","64226708","wem/bandit_party_1","A1WXPOLDS1Y9R4","either","4","275","","","","","","","0","0","1","","0.2522206247","0.6","0.2","0.4","0.8","0.2460847292","0.2631807131","0.2522206247","0.4377941382","","","","","","","","","","","","","","75","K","2","","","211","main_expt","",""
"","bandit","299","802521","0.0-253.0-0.0","64226708","wem/bandit_party_1","A1WXPOLDS1Y9R4","either","4","346","","","","","","","0","0","1","","0.2323705111","0.6","0.2","0.4","0.8","0.2017704833","0.2008991105","0.2323705111","0.4619006446","","","","","","","","","","","","","","75","K","2","","","212","main_expt","",""
"","bandit","300","804064","0.0-254.0-0.0","64226708","wem/bandit_party_1","A1WXPOLDS1Y9R4","either","4","1","","","","","","","0","0","1","","0.1656487101","0.6","0.2","0.4","0.8","0.1891715169","0.1656487101","0.2815580385","0.4508737721","","","","","","","","","","","","","","74","J","1","","","213","main_expt","",""
"","bandit","301","805927","0.0-255.0-0.0","64226708","wem/bandit_party_1","A1WXPOLDS1Y9R4","either","4","314","","","","","","","0","0","1","","0.213788386","0.6","0.2","0.4","0.8","0.1819308411","0.213788386","0.2955812139","0.4639731149","","","","","","","","","","","","","","74","J","1","","","214","main_expt","",""
"","bandit","302","807860","0.0-256.0-0.0","64226708","wem/bandit_party_1","A1WXPOLDS1Y9R4","either","4","410","","","","","","","0","0","1","","0.2206736926","0.6","0.2","0.4","0.8","0.1406935411","0.2206736926","0.2988647484","0.4690757113","","","","","","","","","","","","","","74","J","1","","","215","main_expt","",""
"","bandit","303","809645","0.0-257.0-0.0","64226708","wem/bandit_party_1","A1WXPOLDS1Y9R4","either","4","239","","","","","","","0","0","1","","0.4685680314","0.6","0.2","0.4","0.8","0.206739756","0.2270120675","0.3361974059","0.4685680314","","","","","","","","","","","","","","76","L","3","","","216","main_expt","",""
"","bandit","304","811177","0.0-258.0-0.0","64226708","wem/bandit_party_1","A1WXPOLDS1Y9R4","either","4","5","","","","","","","0","1","0","","0.2561581829","0.6","0.2","0.4","0.8","0.178624692","0.2561581829","0.2764506131","0.4873952874","","","","","","","","","","","","","","74","J","1","","","217","main_expt","",""
"","bandit","305","812832","0.0-259.0-0.0","64226708","wem/bandit_party_1","A1WXPOLDS1Y9R4","either","4","113","","","","","","","0","0","1","0.299893698","","0.6","0.2","0.4","0.8","","","","","0.2021641755","0.2785758431","0.299893698","0.4790671899","","","","","","","","","","75","K","2","","","218","main_expt","",""
"","bandit","306","815886","0.0-260.0-0.0","64226708","wem/bandit_party_1","A1WXPOLDS1Y9R4","either","4","1509","","","","","","","1","0","0","0.4769795117","","0.6","0.2","0.4","0.8","","","","","0.2076996705","0.2707863597","0.3213687962","0.4769795117","","","","","","","","","","76","L","3","","","219","main_expt","",""
"","bandit","307","822869","0.0-261.0-0.0","64226708","wem/bandit_party_1","A1WXPOLDS1Y9R4","either","4","5445","","","","","","","0","0","1","","0.2262269101","0.6","0.2","0.4","0.8","0.2479045362","0.2262269101","0.3782095139","0.4746148145","","","","","","","","","","","","","","74","J","1","","","220","main_expt","",""
"","bandit","308","825489","0.0-262.0-0.0","64226708","wem/bandit_party_1","A1WXPOLDS1Y9R4","either","4","1089","","","","","","","0","0","1","0.4789253058","","0.6","0.2","0.4","0.8","","","","","0.251163546","0.2522421151","0.3572699546","0.4789253058","","","","","","","","","","76","L","3","","","221","main_expt","",""
"","bandit","309","827566","0.0-263.0-0.0","64226708","wem/bandit_party_1","A1WXPOLDS1Y9R4","either","4","540","","","","","","","0","0","1","0.4765400837","","0.6","0.2","0.4","0.8","","","","","0.2653622565","0.2323100388","0.332217079","0.4765400837","","","","","","","","","","76","L","3","","","222","main_expt","",""
"","bandit","310","829395","0.0-264.0-0.0","64226708","wem/bandit_party_1","A1WXPOLDS1Y9R4","either","4","297","","","","","","","0","0","1","0.2034578964","","0.6","0.2","0.4","0.8","","","","","0.2034578964","0.2013525365","0.3327789551","0.4872993944","","","","","","","","","","72","H","0","img/none_selected.jpg","","223","main_expt","",""
"","bandit","311","833097","0.0-265.0-0.0","64226708","wem/bandit_party_1","A1WXPOLDS1Y9R4","either","4","2163","","","","","","","0","1","0","","0.1176985371","0.6","0.2","0.4","0.8","0.1176985371","0.2017363432","0.3720138676","0.4864577786","","","","","","","","","","","","","","72","H","0","img/none_selected.jpg","","224","main_expt","",""
"","bandit","312","834770","0.0-266.0-0.0","64226708","wem/bandit_party_1","A1WXPOLDS1Y9R4","either","4","129","","","","","","","0","0","1","","0.1608447522","0.6","0.2","0.4","0.8","0.08531446518","0.1608447522","0.4035982493","0.4815865163","","","","","","","","","","","","","","74","J","1","","","225","main_expt","",""
"","bandit","313","836540","0.0-267.0-0.0","64226708","wem/bandit_party_1","A1WXPOLDS1Y9R4","either","4","214","","","","","","","1","0","0","0.4781941344","","0.6","0.2","0.4","0.8","","","","","0.0901010045","0.2023183299","0.3538577565","0.4781941344","","","","","","","","","","76","L","3","","","226","main_expt","",""
"","bandit","314","838680","0.0-268.0-0.0","64226708","wem/bandit_party_1","A1WXPOLDS1Y9R4","either","4","611","","","","","","","0","0","1","0.06499555022","","0.6","0.2","0.4","0.8","","","","","0.06499555022","0.1555458008","0.4205879778","0.4742279627","","","","","","","","","","72","H","0","img/none_selected.jpg","","227","main_expt","",""
"","bandit","315","840502","0.0-269.0-0.0","64226708","wem/bandit_party_1","A1WXPOLDS1Y9R4","either","4","290","","","","","","","0","0","1","","0.06967502077","0.6","0.2","0.4","0.8","0.06967502077","0.1210896773","0.4082381823","0.4597327255","","","","","","","","","","","","","","72","H","0","img/none_selected.jpg","","228","main_expt","",""
