"consent","trial_type","trial_index","time_elapsed","internal_node_id","subjID","study","MID","cond","drift","rt","responses","button_pressed","key_press","like","value","connected","gems","bombs","no_reward","GemPrChosen","BombPrChosen","GainOverPainPr_0","GainOverPainPr_1","GainOverPainPr_2","GainOverPainPr_3","LosePr_0","LosePr_1","LosePr_2","LosePr_3","WinPr_0","WinPr_1","WinPr_2","WinPr_3","Q0","Q1","Q2","gender","age","ethnicity","label","expt_phase","target","respCharCode","respKey","respChoiceNum","respChoice","practice","trial_counter","trial_label","Q0_index","view_history"
"GDM/GDM_behavioral_consent_30min_online.html","consent","0","15212","0.0-0.0","64555249","wem/bandit_party_1","A1YPDVVWHZWDZ9","either","7","","","","","","","","","","","","","","","","","","","","","","","","","","","","","","","","","","","","","","","","","",""
"","survey-text","1","19197","0.0-1.0","64555249","wem/bandit_party_1","A1YPDVVWHZWDZ9","either","7","2962","{""Q0"":""A1YPDVVWHZWDZ9""}","","","","","","","","","","","","","","","","","","","","","","","","","","","","","","","","","","","","","","","",""
"","button-response","2","22366","0.0-2.0","64555249","wem/bandit_party_1","A1YPDVVWHZWDZ9","either","7","2131","","0","","","","","","","","","","","","","","","","","","","","","","","","","","","","","","","","","","","","","","",""
"","text-replacement","3","30658","0.0-3.0","64555249","wem/bandit_party_1","A1YPDVVWHZWDZ9","either","7","7272","","","32","","","","","","","","","","","","","","","","","","","","","","","","","","","","","","","","","","","","","",""
"","text-replacement","4","54203","0.0-4.0","64555249","wem/bandit_party_1","A1YPDVVWHZWDZ9","either","7","23531","","","32","","","","","","","","","","","","","","","","","","","","","","","","","","","","","","","","","","","","","",""
"","identification","5","60084","0.0-6.0-0.0","64555249","wem/bandit_party_1","A1YPDVVWHZWDZ9","either","7","5785","","","","3","4","4","","","","","","","","","","","","","","","","","","","","","","","","pre","identification_pre","the Republican party","","","","","","","","",""
"","identification","6","65339","0.0-6.0-1.0","64555249","wem/bandit_party_1","A1YPDVVWHZWDZ9","either","7","4142","","","","3","2","2","","","","","","","","","","","","","","","","","","","","","","","","pre","identification_pre","the Democratic Party","","","","","","","","",""
"","text-replacement","7","70723","0.0-7.0","64555249","wem/bandit_party_1","A1YPDVVWHZWDZ9","either","7","4368","","","32","","","","","","","","","","","","","","","","","","","","","","","","","","","","","","","","","","","","","",""
"","text-replacement","8","76391","0.0-8.0","64555249","wem/bandit_party_1","A1YPDVVWHZWDZ9","either","7","5650","","","32","","","","","","","","","","","","","","","","","","","","","","","","","","","","","","","","","","","","","",""
"","text-replacement","9","84053","0.0-9.0","64555249","wem/bandit_party_1","A1YPDVVWHZWDZ9","either","7","7640","","","32","","","","","","","","","","","","","","","","","","","","","","","","","","","","","","","","","","","","","",""
"","text-replacement","10","103539","0.0-10.0","64555249","wem/bandit_party_1","A1YPDVVWHZWDZ9","either","7","19473","","","32","","","","","","","","","","","","","","","","","","","","","","","","","","","","","","","","","","","","","",""
"","text-replacement","11","108347","0.0-11.0","64555249","wem/bandit_party_1","A1YPDVVWHZWDZ9","either","7","4789","","","32","","","","","","","","","","","","","","","","","","","","","","","","","","","","","","","","","","","","","",""
"","bandit","12","112579","0.0-12.0-0.0","64555249","wem/bandit_party_1","A1YPDVVWHZWDZ9","either","7","2673","","","","","","","0","0","1","0","0","","","","","0","","","","0","","","","","","","","","","","","","74","J","0","img/none_selected_demo.jpg","true","0","","",""
"","bandit","13","114622","0.0-13.0-0.0","64555249","wem/bandit_party_1","A1YPDVVWHZWDZ9","either","7","520","","","","","","","0","0","1","0","0","","","","","0","","","","0","","","","","","","","","","","","","75","K","0","img/none_selected_demo.jpg","true","0","","",""
"","text-replacement","14","122704","0.0-14.0","64555249","wem/bandit_party_1","A1YPDVVWHZWDZ9","either","7","8070","","","32","","","","","","","","","","","","","","","","","","","","","","","","","","","","","","","","","","","","","",""
"","text-replacement","15","128631","0.0-15.0","64555249","wem/bandit_party_1","A1YPDVVWHZWDZ9","either","7","5912","","","32","","","","","","","","","","","","","","","","","","","","","","","","","","","","","","","","","","","","","",""
"","text-replacement","16","144133","0.0-16.0","64555249","wem/bandit_party_1","A1YPDVVWHZWDZ9","either","7","15489","","","32","","","","","","","","","","","","","","","","","","","","","","","","","","","","","","","","","","","","","",""
"","text-replacement","17","148002","0.0-17.0","64555249","wem/bandit_party_1","A1YPDVVWHZWDZ9","either","7","3853","","","32","","","","","","","","","","","","","","","","","","","","","","","","","","","","","","","","","","","","","",""
"","bandit","18","150445","0.0-18.0-0.0","64555249","wem/bandit_party_1","A1YPDVVWHZWDZ9","either","7","899","","","","","","","0","1","0","","0.8","0.5","0.5","","","0.8","0.2","","","","","","","","","","","","","","","","74","J","0","img/none_selected_demo.jpg","true","0","80_20_practice","",""
"","bandit","19","152787","0.0-18.0-1.0","64555249","wem/bandit_party_1","A1YPDVVWHZWDZ9","either","7","787","","","","","","","1","0","0","0.2","","0.5","0.5","","","","","","","0.8","0.2","","","","","","","","","","","","75","K","1","","true","0","80_20_practice","",""
"","bandit","20","154835","0.0-18.0-2.0","64555249","wem/bandit_party_1","A1YPDVVWHZWDZ9","either","7","484","","","","","","","0","0","1","","0.2","0.5","0.5","","","0.8","0.2","","","","","","","","","","","","","","","","75","K","1","","true","0","80_20_practice","",""
"","bandit","21","156758","0.0-18.0-3.0","64555249","wem/bandit_party_1","A1YPDVVWHZWDZ9","either","7","367","","","","","","","0","0","1","","0.2","0.5","0.5","","","0.8","0.2","","","","","","","","","","","","","","","","75","K","1","","true","0","80_20_practice","",""
"","bandit","22","158642","0.0-18.0-4.0","64555249","wem/bandit_party_1","A1YPDVVWHZWDZ9","either","7","325","","","","","","","0","1","0","","0.8","0.5","0.5","","","0.8","0.2","","","","","","","","","","","","","","","","74","J","0","img/none_selected_demo.jpg","true","0","80_20_practice","",""
"","bandit","23","160544","0.0-18.0-5.0","64555249","wem/bandit_party_1","A1YPDVVWHZWDZ9","either","7","347","","","","","","","0","0","1","","0.2","0.5","0.5","","","0.8","0.2","","","","","","","","","","","","","","","","75","K","1","","true","0","80_20_practice","",""
"","bandit","24","162406","0.0-18.0-6.0","64555249","wem/bandit_party_1","A1YPDVVWHZWDZ9","either","7","296","","","","","","","0","0","1","0.2","","0.5","0.5","","","","","","","0.8","0.2","","","","","","","","","","","","75","K","1","","true","0","80_20_practice","",""
"","bandit","25","164244","0.0-18.0-7.0","64555249","wem/bandit_party_1","A1YPDVVWHZWDZ9","either","7","284","","","","","","","0","0","1","","0.2","0.5","0.5","","","0.8","0.2","","","","","","","","","","","","","","","","75","K","1","","true","0","80_20_practice","",""
"","bandit","26","166168","0.0-18.0-8.0","64555249","wem/bandit_party_1","A1YPDVVWHZWDZ9","either","7","392","","","","","","","0","0","1","","0.8","0.5","0.5","","","0.8","0.2","","","","","","","","","","","","","","","","74","J","0","img/none_selected_demo.jpg","true","0","80_20_practice","",""
"","bandit","27","168287","0.0-18.0-9.0","64555249","wem/bandit_party_1","A1YPDVVWHZWDZ9","either","7","548","","","","","","","0","1","0","","0.8","0.5","0.5","","","0.8","0.2","","","","","","","","","","","","","","","","74","J","0","img/none_selected_demo.jpg","true","0","80_20_practice","",""
"","bandit","28","170602","0.0-18.0-10.0","64555249","wem/bandit_party_1","A1YPDVVWHZWDZ9","either","7","757","","","","","","","0","0","1","0.2","","0.5","0.5","","","","","","","0.8","0.2","","","","","","","","","","","","75","K","1","","true","0","80_20_practice","",""
"","bandit","29","172668","0.0-18.0-11.0","64555249","wem/bandit_party_1","A1YPDVVWHZWDZ9","either","7","512","","","","","","","1","0","0","0.8","","0.5","0.5","","","","","","","0.8","0.2","","","","","","","","","","","","74","J","0","img/none_selected_demo.jpg","true","0","80_20_practice","",""
"","bandit","30","174472","0.0-18.0-12.0","64555249","wem/bandit_party_1","A1YPDVVWHZWDZ9","either","7","228","","","","","","","0","0","1","0.8","","0.5","0.5","","","","","","","0.8","0.2","","","","","","","","","","","","74","J","0","img/none_selected_demo.jpg","true","0","80_20_practice","",""
"","bandit","31","176246","0.0-18.0-13.0","64555249","wem/bandit_party_1","A1YPDVVWHZWDZ9","either","7","211","","","","","","","0","0","1","","0.2","0.5","0.5","","","0.8","0.2","","","","","","","","","","","","","","","","75","K","1","","true","0","80_20_practice","",""
"","bandit","32","178022","0.0-18.0-14.0","64555249","wem/bandit_party_1","A1YPDVVWHZWDZ9","either","7","221","","","","","","","0","0","1","0.2","","0.5","0.5","","","","","","","0.8","0.2","","","","","","","","","","","","75","K","1","","true","0","80_20_practice","",""
"","bandit","33","179810","0.0-18.0-15.0","64555249","wem/bandit_party_1","A1YPDVVWHZWDZ9","either","7","228","","","","","","","1","0","0","0.8","","0.5","0.5","","","","","","","0.8","0.2","","","","","","","","","","","","74","J","0","img/none_selected_demo.jpg","true","0","80_20_practice","",""
"","bandit","34","181583","0.0-18.0-16.0","64555249","wem/bandit_party_1","A1YPDVVWHZWDZ9","either","7","203","","","","","","","0","1","0","","0.8","0.5","0.5","","","0.8","0.2","","","","","","","","","","","","","","","","74","J","0","img/none_selected_demo.jpg","true","0","80_20_practice","",""
"","bandit","35","183355","0.0-18.0-17.0","64555249","wem/bandit_party_1","A1YPDVVWHZWDZ9","either","7","219","","","","","","","0","0","1","","0.8","0.5","0.5","","","0.8","0.2","","","","","","","","","","","","","","","","74","J","0","img/none_selected_demo.jpg","true","0","80_20_practice","",""
"","bandit","36","185138","0.0-18.0-18.0","64555249","wem/bandit_party_1","A1YPDVVWHZWDZ9","either","7","204","","","","","","","0","1","0","","0.8","0.5","0.5","","","0.8","0.2","","","","","","","","","","","","","","","","74","J","0","img/none_selected_demo.jpg","true","0","80_20_practice","",""
"","bandit","37","186821","0.0-18.0-19.0","64555249","wem/bandit_party_1","A1YPDVVWHZWDZ9","either","7","117","","","","","","","0","0","1","","0.2","0.5","0.5","","","0.8","0.2","","","","","","","","","","","","","","","","75","K","1","","true","0","80_20_practice","",""
"","text-replacement","38","191046","0.0-19.0","64555249","wem/bandit_party_1","A1YPDVVWHZWDZ9","either","7","4188","","","32","","","","","","","","","","","","","","","","","","","","","","","","","","","","","","","","","","","","","",""
"","bandit","39","194935","0.0-20.0-0.0","64555249","wem/bandit_party_1","A1YPDVVWHZWDZ9","either","7","2327","","","","","","","1","0","0","1","0","","","","","0","1","","","1","0","","","","","","","","","","","","74","J","0","img/none_selected_demo.jpg","true","0","","",""
"","text-replacement","40","201997","0.0-21.0","64555249","wem/bandit_party_1","A1YPDVVWHZWDZ9","either","7","7038","","","32","","","","","","","","","","","","","","","","","","","","","","","","","","","","","","","","","","","","","",""
"","text-replacement","41","204359","0.0-22.0","64555249","wem/bandit_party_1","A1YPDVVWHZWDZ9","either","7","2342","","","32","","","","","","","","","","","","","","","","","","","","","","","","","","","","","","","","","","","","","",""
"","text-replacement","42","207489","0.0-23.0","64555249","wem/bandit_party_1","A1YPDVVWHZWDZ9","either","7","3107","","","32","","","","","","","","","","","","","","","","","","","","","","","","","","","","","","","","","","","","","",""
"","text-replacement","43","209879","0.0-24.0","64555249","wem/bandit_party_1","A1YPDVVWHZWDZ9","either","7","2370","","","32","","","","","","","","","","","","","","","","","","","","","","","","","","","","","","","","","","","","","",""
"","text-replacement","44","216256","0.0-25.0","64555249","wem/bandit_party_1","A1YPDVVWHZWDZ9","either","7","6354","","","32","","","","","","","","","","","","","","","","","","","","","","","","","","","","","","","","","","","","","",""
"","text-replacement","45","224386","0.0-26.0","64555249","wem/bandit_party_1","A1YPDVVWHZWDZ9","either","7","8111","","","32","","","","","","","","","","","","","","","","","","","","","","","","","","","","","","","","","","","","","",""
"","text-replacement","46","227354","0.0-27.0","64555249","wem/bandit_party_1","A1YPDVVWHZWDZ9","either","7","2946","","","32","","","","","","","","","","","","","","","","","","","","","","","","","","","","","","","","","","","","","",""
"","text-replacement","47","236073","0.0-28.0","64555249","wem/bandit_party_1","A1YPDVVWHZWDZ9","either","7","8700","","","32","","","","","","","","","","","","","","","","","","","","","","","","","","","","","","","","","","","","","",""
"","text-replacement","48","237703","0.0-29.0","64555249","wem/bandit_party_1","A1YPDVVWHZWDZ9","either","7","1612","","","32","","","","","","","","","","","","","","","","","","","","","","","","","","","","","","","","","","","","","",""
"","text-replacement","49","238862","0.0-30.0","64555249","wem/bandit_party_1","A1YPDVVWHZWDZ9","either","7","1139","","","32","","","","","","","","","","","","","","","","","","","","","","","","","","","","","","","","","","","","","",""
"","text-replacement","50","248135","0.0-31.0","64555249","wem/bandit_party_1","A1YPDVVWHZWDZ9","either","7","9248","","","32","","","","","","","","","","","","","","","","","","","","","","","","","","","","","","","","","","","","","",""
"","bandit","51","250909","0.0-32.0-0.0","64555249","wem/bandit_party_1","A1YPDVVWHZWDZ9","either","7","1219","","","","","","","0","1","0","","0.8","0.5","0.5","0.5","0.5","0.8","0.2","0.6","0.2","","","","","","","","","","","","","","72","H","0","img/none_selected.jpg","true","0","full_practice","",""
"","bandit","52","252852","0.0-32.0-1.0","64555249","wem/bandit_party_1","A1YPDVVWHZWDZ9","either","7","396","","","","","","","0","0","1","","0.2","0.5","0.5","0.5","0.5","0.8","0.2","0.6","0.2","","","","","","","","","","","","","","74","J","1","","true","0","full_practice","",""
"","bandit","53","254706","0.0-32.0-2.0","64555249","wem/bandit_party_1","A1YPDVVWHZWDZ9","either","7","313","","","","","","","0","0","1","","0.6","0.5","0.5","0.5","0.5","0.8","0.2","0.6","0.2","","","","","","","","","","","","","","75","K","2","","true","0","full_practice","",""
"","bandit","54","256516","0.0-32.0-3.0","64555249","wem/bandit_party_1","A1YPDVVWHZWDZ9","either","7","240","","","","","","","0","0","1","","0.2","0.5","0.5","0.5","0.5","0.8","0.2","0.6","0.2","","","","","","","","","","","","","","76","L","3","","true","0","full_practice","",""
"","bandit","55","258288","0.0-32.0-4.0","64555249","wem/bandit_party_1","A1YPDVVWHZWDZ9","either","7","224","","","","","","","0","0","1","","0.2","0.5","0.5","0.5","0.5","0.8","0.2","0.6","0.2","","","","","","","","","","","","","","76","L","3","","true","0","full_practice","",""
"","bandit","56","260329","0.0-32.0-5.0","64555249","wem/bandit_party_1","A1YPDVVWHZWDZ9","either","7","515","","","","","","","0","0","1","","0.6","0.5","0.5","0.5","0.5","0.8","0.2","0.6","0.2","","","","","","","","","","","","","","75","K","2","","true","0","full_practice","",""
"","bandit","57","262070","0.0-32.0-6.0","64555249","wem/bandit_party_1","A1YPDVVWHZWDZ9","either","7","209","","","","","","","0","0","1","0.2","","0.5","0.5","0.5","0.5","","","","","0.8","0.2","0.6","0.2","","","","","","","","","","74","J","1","","true","0","full_practice","",""
"","bandit","58","263858","0.0-32.0-7.0","64555249","wem/bandit_party_1","A1YPDVVWHZWDZ9","either","7","254","","","","","","","0","1","0","","0.8","0.5","0.5","0.5","0.5","0.8","0.2","0.6","0.2","","","","","","","","","","","","","","72","H","0","img/none_selected.jpg","true","0","full_practice","",""
"","bandit","59","266114","0.0-32.0-8.0","64555249","wem/bandit_party_1","A1YPDVVWHZWDZ9","either","7","702","","","","","","","0","0","1","0.2","","0.5","0.5","0.5","0.5","","","","","0.8","0.2","0.6","0.2","","","","","","","","","","74","J","1","","true","0","full_practice","",""
"","bandit","60","267933","0.0-32.0-9.0","64555249","wem/bandit_party_1","A1YPDVVWHZWDZ9","either","7","274","","","","","","","0","0","1","0.6","","0.5","0.5","0.5","0.5","","","","","0.8","0.2","0.6","0.2","","","","","","","","","","75","K","2","","true","0","full_practice","",""
"","bandit","61","269895","0.0-32.0-10.0","64555249","wem/bandit_party_1","A1YPDVVWHZWDZ9","either","7","425","","","","","","","0","1","0","","0.2","0.5","0.5","0.5","0.5","0.8","0.2","0.6","0.2","","","","","","","","","","","","","","76","L","3","","true","0","full_practice","",""
"","bandit","62","271810","0.0-32.0-11.0","64555249","wem/bandit_party_1","A1YPDVVWHZWDZ9","either","7","347","","","","","","","0","1","0","","0.6","0.5","0.5","0.5","0.5","0.8","0.2","0.6","0.2","","","","","","","","","","","","","","75","K","2","","true","0","full_practice","",""
"","bandit","63","273617","0.0-32.0-12.0","64555249","wem/bandit_party_1","A1YPDVVWHZWDZ9","either","7","243","","","","","","","1","0","0","0.2","","0.5","0.5","0.5","0.5","","","","","0.8","0.2","0.6","0.2","","","","","","","","","","74","J","1","","true","0","full_practice","",""
"","bandit","64","275410","0.0-32.0-13.0","64555249","wem/bandit_party_1","A1YPDVVWHZWDZ9","either","7","248","","","","","","","0","0","1","0.2","","0.5","0.5","0.5","0.5","","","","","0.8","0.2","0.6","0.2","","","","","","","","","","74","J","1","","true","0","full_practice","",""
"","bandit","65","277267","0.0-32.0-14.0","64555249","wem/bandit_party_1","A1YPDVVWHZWDZ9","either","7","281","","","","","","","0","0","1","0.2","","0.5","0.5","0.5","0.5","","","","","0.8","0.2","0.6","0.2","","","","","","","","","","74","J","1","","true","0","full_practice","",""
"","bandit","66","279111","0.0-32.0-15.0","64555249","wem/bandit_party_1","A1YPDVVWHZWDZ9","either","7","272","","","","","","","0","0","1","","0.2","0.5","0.5","0.5","0.5","0.8","0.2","0.6","0.2","","","","","","","","","","","","","","74","J","1","","true","0","full_practice","",""
"","bandit","67","280954","0.0-32.0-16.0","64555249","wem/bandit_party_1","A1YPDVVWHZWDZ9","either","7","267","","","","","","","0","0","1","0.8","","0.5","0.5","0.5","0.5","","","","","0.8","0.2","0.6","0.2","","","","","","","","","","72","H","0","img/none_selected.jpg","true","0","full_practice","",""
"","bandit","68","282912","0.0-32.0-17.0","64555249","wem/bandit_party_1","A1YPDVVWHZWDZ9","either","7","380","","","","","","","0","0","1","","0.2","0.5","0.5","0.5","0.5","0.8","0.2","0.6","0.2","","","","","","","","","","","","","","74","J","1","","true","0","full_practice","",""
"","bandit","69","284711","0.0-32.0-18.0","64555249","wem/bandit_party_1","A1YPDVVWHZWDZ9","either","7","243","","","","","","","0","0","1","0.2","","0.5","0.5","0.5","0.5","","","","","0.8","0.2","0.6","0.2","","","","","","","","","","74","J","1","","true","0","full_practice","",""
"","bandit","70","286926","0.0-32.0-19.0","64555249","wem/bandit_party_1","A1YPDVVWHZWDZ9","either","7","641","","","","","","","0","0","1","","0.2","0.5","0.5","0.5","0.5","0.8","0.2","0.6","0.2","","","","","","","","","","","","","","74","J","1","","true","0","full_practice","",""
"","text","71","334816","0.0-33.0","64555249","wem/bandit_party_1","A1YPDVVWHZWDZ9","either","7","47815","","","32","","","","","","","","","","","","","","","","","","","","","","","","","","","","","","","","","","","","","",""
"","text-replacement","72","346853","0.0-34.0","64555249","wem/bandit_party_1","A1YPDVVWHZWDZ9","either","7","11015","","","32","","","","","","","","","","","","","","","","","","","","","","","","","","","","","","","","","","","","","",""
"","text-replacement","73","357907","0.0-35.0","64555249","wem/bandit_party_1","A1YPDVVWHZWDZ9","either","7","11029","","","32","","","","","","","","","","","","","","","","","","","","","","","","","","","","","","","","","","","","","",""
"","text-replacement","74","364172","0.0-36.0","64555249","wem/bandit_party_1","A1YPDVVWHZWDZ9","either","7","6240","","","32","","","","","","","","","","","","","","","","","","","","","","","","","","","","","","","","","","","","","",""
"","text-replacement","75","376134","0.0-37.0","64555249","wem/bandit_party_1","A1YPDVVWHZWDZ9","either","7","11938","","","32","","","","","","","","","","","","","","","","","","","","","","","","","","","","","","","","","","","","","",""
"","text-replacement","76","382610","0.0-38.0","64555249","wem/bandit_party_1","A1YPDVVWHZWDZ9","either","7","6449","","","32","","","","","","","","","","","","","","","","","","","","","","","","","","","","","","","","","","","","","",""
"","survey-multi-choice-replacement","77","389809","0.0-39.0-0.0","64555249","wem/bandit_party_1","A1YPDVVWHZWDZ9","either","7","7121","","","","","","","","","","","","","","","","","","","","","","","","Money will be added to the pool for <span style='color:red;'>REPUBLICANS</span>","","","","","","","attn_check","","","","","","","","","0",""
"","survey-multi-choice-replacement","78","397921","0.0-40.0-0.0","64555249","wem/bandit_party_1","A1YPDVVWHZWDZ9","either","7","7075","","","","","","","","","","","","","","","","","","","","","","","","Money will be subtracted from the pool for <span style='color:blue;'>DEMOCRATS</span>","","","","","","","attn_check","","","","","","","","","1",""
"","instructions","79","400545","0.0-40.0-1.0-0.0","64555249","wem/bandit_party_1","A1YPDVVWHZWDZ9","either","7","1593","","","","","","","","","","","","","","","","","","","","","","","","","","","","","","","","","","","","","","","","","[{""page_index"":0,""viewing_time"":1591}]"
"","survey-multi-choice-replacement","80","406343","0.0-40.1-0.1","64555249","wem/bandit_party_1","A1YPDVVWHZWDZ9","either","7","4722","","","","","","","","","","","","","","","","","","","","","","","","Money will be subtracted from the pool for <span style='color:blue;'>DEMOCRATS</span>","","","","","","","attn_check","","","","","","","","","1",""
"","instructions","81","408938","0.0-40.1-1.1-0.1","64555249","wem/bandit_party_1","A1YPDVVWHZWDZ9","either","7","1565","","","","","","","","","","","","","","","","","","","","","","","","","","","","","","","","","","","","","","","","","[{""page_index"":0,""viewing_time"":1564}]"
"","survey-multi-choice-replacement","82","429286","0.0-40.2-0.2","64555249","wem/bandit_party_1","A1YPDVVWHZWDZ9","either","7","19282","","","","","","","","","","","","","","","","","","","","","","","","Money will be added to the pool for <span style='color:red;'>REPUBLICANS</span>","","","","","","","attn_check","","","","","","","","","0",""
"","instructions","83","431646","0.0-40.2-1.2-0.2","64555249","wem/bandit_party_1","A1YPDVVWHZWDZ9","either","7","1332","","","","","","","","","","","","","","","","","","","","","","","","","","","","","","","","","","","","","","","","","[{""page_index"":0,""viewing_time"":1331}]"
"","survey-multi-choice-replacement","84","434975","0.0-40.3-0.3","64555249","wem/bandit_party_1","A1YPDVVWHZWDZ9","either","7","2260","","","","","","","","","","","","","","","","","","","","","","","","No money will be added to either pool","","","","","","","attn_check","","","","","","","","","3",""
"","instructions","85","437350","0.0-40.3-1.3-0.3","64555249","wem/bandit_party_1","A1YPDVVWHZWDZ9","either","7","1341","","","","","","","","","","","","","","","","","","","","","","","","","","","","","","","","","","","","","","","","","[{""page_index"":0,""viewing_time"":1340}]"
"","survey-multi-choice-replacement","86","440444","0.0-40.4-0.4","64555249","wem/bandit_party_1","A1YPDVVWHZWDZ9","either","7","2049","","","","","","","","","","","","","","","","","","","","","","","","Money will be subtracted from the pool for <span style='color:blue;'>DEMOCRATS</span>","","","","","","","attn_check","","","","","","","","","1",""
"","instructions","87","443139","0.0-40.4-1.4-0.4","64555249","wem/bandit_party_1","A1YPDVVWHZWDZ9","either","7","1680","","","","","","","","","","","","","","","","","","","","","","","","","","","","","","","","","","","","","","","","","[{""page_index"":0,""viewing_time"":1679}]"
"","survey-multi-choice-replacement","88","445957","0.0-40.5-0.5","64555249","wem/bandit_party_1","A1YPDVVWHZWDZ9","either","7","1765","","","","","","","","","","","","","","","","","","","","","","","","Equal amounts of money will be added to the pool for <span style='color:red;'>REPUBLICANS</span> and subtracted from the pool for <span style='color:blue;'>DEMOCRATS</span>","","","","","","","attn_check","","","","","","","","","2",""
"","survey-multi-choice-replacement","89","450261","0.0-41.0-0.0","64555249","wem/bandit_party_1","A1YPDVVWHZWDZ9","either","7","3257","","","","","","","","","","","","","","","","","","","","","","","","No money will be added to either pool","","","","","","","attn_check","","","","","","","","","3",""
"","bandit","90","454188","0.0-42.0-0.0","64555249","wem/bandit_party_1","A1YPDVVWHZWDZ9","either","7","1331","","","","","","","0","0","1","","0.1952616071","0.4","0.6","0.2","0.8","0.1952616071","0.01738065524","0.06530018083","0.1480066451","","","","","","","","","","","","","","72","H","0","img/none_selected.jpg","","1","main_expt","",""
"","bandit","91","456238","0.0-43.0-0.0","64555249","wem/bandit_party_1","A1YPDVVWHZWDZ9","either","7","472","","","","","","","0","1","0","","0.1652234336","0.4","0.6","0.2","0.8","0.1652234336","0.0196943787","0.1011701763","0.1053714073","","","","","","","","","","","","","","72","H","0","img/none_selected.jpg","","2","main_expt","",""
"","bandit","92","458258","0.0-44.0-0.0","64555249","wem/bandit_party_1","A1YPDVVWHZWDZ9","either","7","434","","","","","","","0","0","1","0.01678573497","","0.4","0.6","0.2","0.8","","","","","0.1347382479","0.01678573497","0.09486719381","0.1460078221","","","","","","","","","","74","J","1","","","3","main_expt","",""
"","bandit","93","460096","0.0-45.0-0.0","64555249","wem/bandit_party_1","A1YPDVVWHZWDZ9","either","7","274","","","","","","","0","0","1","0.02981965743","","0.4","0.6","0.2","0.8","","","","","0.1684625442","0.02981965743","0.06705802814","0.1866138214","","","","","","","","","","74","J","1","","","4","main_expt","",""
"","bandit","94","461924","0.0-46.0-0.0","64555249","wem/bandit_party_1","A1YPDVVWHZWDZ9","either","7","244","","","","","","","1","0","0","0.02600208211","","0.4","0.6","0.2","0.8","","","","","0.1792029032","0.02600208211","0.0822298525","0.2445348717","","","","","","","","","","74","J","1","","","5","main_expt","",""
"","bandit","95","463749","0.0-47.0-0.0","64555249","wem/bandit_party_1","A1YPDVVWHZWDZ9","either","7","242","","","","","","","0","0","1","","0.02332436933","0.4","0.6","0.2","0.8","0.2153873139","0.02332436933","0.09162209411","0.2546962146","","","","","","","","","","","","","","74","J","1","","","6","main_expt","",""
"","bandit","96","465563","0.0-48.0-0.0","64555249","wem/bandit_party_1","A1YPDVVWHZWDZ9","either","7","238","","","","","","","0","0","1","0.02864040813","","0.4","0.6","0.2","0.8","","","","","0.1757762721","0.02864040813","0.1028820098","0.2344841702","","","","","","","","","","74","J","1","","","7","main_expt","",""
"","bandit","97","467365","0.0-49.0-0.0","64555249","wem/bandit_party_1","A1YPDVVWHZWDZ9","either","7","227","","","","","","","0","0","1","0.02951264166","","0.4","0.6","0.2","0.8","","","","","0.2241229746","0.02951264166","0.1532270122","0.2473344203","","","","","","","","","","74","J","1","","","8","main_expt","",""
"","bandit","98","469176","0.0-50.0-0.0","64555249","wem/bandit_party_1","A1YPDVVWHZWDZ9","either","7","230","","","","","","","0","0","1","0.02997011939","","0.4","0.6","0.2","0.8","","","","","0.2199426203","0.02997011939","0.2131450397","0.2642160399","","","","","","","","","","74","J","1","","","9","main_expt","",""
"","bandit","99","471005","0.0-51.0-0.0","64555249","wem/bandit_party_1","A1YPDVVWHZWDZ9","either","7","249","","","","","","","0","0","1","0.02489651457","","0.4","0.6","0.2","0.8","","","","","0.1520686932","0.02489651457","0.2985754635","0.2104627424","","","","","","","","","","74","J","1","","","10","main_expt","",""
"","bandit","100","472842","0.0-52.0-0.0","64555249","wem/bandit_party_1","A1YPDVVWHZWDZ9","either","7","261","","","","","","","0","0","1","","0.2924640086","0.4","0.6","0.2","0.8","0.2013349999","0.01651058827","0.2924640086","0.219372878","","","","","","","","","","","","","","75","K","2","","","11","main_expt","",""
"","bandit","101","474978","0.0-53.0-0.0","64555249","wem/bandit_party_1","A1YPDVVWHZWDZ9","either","7","568","","","","","","","0","1","0","","0.3264291113","0.4","0.6","0.2","0.8","0.2156800105","0.02341729431","0.3264291113","0.2105839871","","","","","","","","","","","","","","75","K","2","","","12","main_expt","",""
"","bandit","102","477381","0.0-54.0-0.0","64555249","wem/bandit_party_1","A1YPDVVWHZWDZ9","either","7","831","","","","","","","0","0","1","0.2511698571","","0.4","0.6","0.2","0.8","","","","","0.1833947696","0.0257410372","0.3254913314","0.2511698571","","","","","","","","","","76","L","3","","","13","main_expt","",""
"","bandit","103","479337","0.0-55.0-0.0","64555249","wem/bandit_party_1","A1YPDVVWHZWDZ9","either","7","426","","","","","","","1","0","0","0.2158977649","","0.4","0.6","0.2","0.8","","","","","0.243643366","0.02570014082","0.3428504842","0.2158977649","","","","","","","","","","76","L","3","","","14","main_expt","",""
"","bandit","104","481298","0.0-56.0-0.0","64555249","wem/bandit_party_1","A1YPDVVWHZWDZ9","either","7","387","","","","","","","0","0","1","0.2762480727","","0.4","0.6","0.2","0.8","","","","","0.2265365198","0.04268316416","0.3244047679","0.2762480727","","","","","","","","","","76","L","3","","","15","main_expt","",""
"","bandit","105","483373","0.0-57.0-0.0","64555249","wem/bandit_party_1","A1YPDVVWHZWDZ9","either","7","504","","","","","","","1","0","0","0.3202890724","","0.4","0.6","0.2","0.8","","","","","0.2484951132","0.04667408308","0.3025313629","0.3202890724","","","","","","","","","","76","L","3","","","16","main_expt","",""
"","bandit","106","485415","0.0-58.0-0.0","64555249","wem/bandit_party_1","A1YPDVVWHZWDZ9","either","7","464","","","","","","","0","0","1","0.3680552247","","0.4","0.6","0.2","0.8","","","","","0.2570267238","0.0506688767","0.3291216938","0.3680552247","","","","","","","","","","76","L","3","","","17","main_expt","",""
"","bandit","107","487385","0.0-59.0-0.0","64555249","wem/bandit_party_1","A1YPDVVWHZWDZ9","either","7","390","","","","","","","0","0","1","0.3968593921","","0.4","0.6","0.2","0.8","","","","","0.287418789","0.02988526167","0.2987881532","0.3968593921","","","","","","","","","","76","L","3","","","18","main_expt","",""
"","bandit","108","489447","0.0-60.0-0.0","64555249","wem/bandit_party_1","A1YPDVVWHZWDZ9","either","7","484","","","","","","","0","0","1","0.4192996399","","0.4","0.6","0.2","0.8","","","","","0.2338710899","0.03476350355","0.281207523","0.4192996399","","","","","","","","","","76","L","3","","","19","main_expt","",""
"","bandit","109","491337","0.0-61.0-0.0","64555249","wem/bandit_party_1","A1YPDVVWHZWDZ9","either","7","314","","","","","","","1","0","0","0.4362768361","","0.4","0.6","0.2","0.8","","","","","0.2335293464","0.0233687216","0.291129981","0.4362768361","","","","","","","","","","76","L","3","","","20","main_expt","",""
"","bandit","110","493269","0.0-62.0-0.0","64555249","wem/bandit_party_1","A1YPDVVWHZWDZ9","either","7","352","","","","","","","0","0","1","0.4599691003","","0.4","0.6","0.2","0.8","","","","","0.2434826965","0.01272547494","0.2729578326","0.4599691003","","","","","","","","","","76","L","3","","","21","main_expt","",""
"","bandit","111","495205","0.0-63.0-0.0","64555249","wem/bandit_party_1","A1YPDVVWHZWDZ9","either","7","383","","","","","","","0","0","1","","0.44353765","0.4","0.6","0.2","0.8","0.2702300591","0.01739491555","0.2805141014","0.44353765","","","","","","","","","","","","","","76","L","3","","","22","main_expt","",""
"","bandit","112","497115","0.0-64.0-0.0","64555249","wem/bandit_party_1","A1YPDVVWHZWDZ9","either","7","355","","","","","","","1","0","0","0.4105594395","","0.4","0.6","0.2","0.8","","","","","0.2424740502","0.006692102231","0.3016389313","0.4105594395","","","","","","","","","","76","L","3","","","23","main_expt","",""
"","bandit","113","498979","0.0-65.0-0.0","64555249","wem/bandit_party_1","A1YPDVVWHZWDZ9","either","7","332","","","","","","","1","0","0","0.4243351486","","0.4","0.6","0.2","0.8","","","","","0.1754503809","0.01209419849","0.2475621169","0.4243351486","","","","","","","","","","76","L","3","","","24","main_expt","",""
"","bandit","114","501022","0.0-66.0-0.0","64555249","wem/bandit_party_1","A1YPDVVWHZWDZ9","either","7","498","","","","","","","0","1","0","","0.4172780312","0.4","0.6","0.2","0.8","0.2023019753","0.009734580702","0.2607476102","0.4172780312","","","","","","","","","","","","","","76","L","3","","","25","main_expt","",""
"","bandit","115","502959","0.0-67.0-0.0","64555249","wem/bandit_party_1","A1YPDVVWHZWDZ9","either","7","370","","","","","","","0","0","1","","0.008596148908","0.4","0.6","0.2","0.8","0.1887270612","0.008596148908","0.292589008","0.3981062588","","","","","","","","","","","","","","74","J","1","","","26","main_expt","",""
"","bandit","116","504974","0.0-68.0-0.0","64555249","wem/bandit_party_1","A1YPDVVWHZWDZ9","either","7","439","","","","","","","0","0","1","0.01380650739","","0.4","0.6","0.2","0.8","","","","","0.2526986378","0.01380650739","0.2978950393","0.3889188119","","","","","","","","","","74","J","1","","","27","main_expt","",""
"","bandit","117","506895","0.0-69.0-0.0","64555249","wem/bandit_party_1","A1YPDVVWHZWDZ9","either","7","320","","","","","","","0","0","1","0.01160852189","","0.4","0.6","0.2","0.8","","","","","0.2536033627","0.01160852189","0.337392419","0.3699095679","","","","","","","","","","74","J","1","","","28","main_expt","",""
"","bandit","118","508954","0.0-70.0-0.0","64555249","wem/bandit_party_1","A1YPDVVWHZWDZ9","either","7","481","","","","","","","0","0","1","","0.02858314752","0.4","0.6","0.2","0.8","0.258258936","0.02858314752","0.3830759015","0.4087832773","","","","","","","","","","","","","","74","J","1","","","29","main_expt","",""
"","bandit","119","510803","0.0-71.0-0.0","64555249","wem/bandit_party_1","A1YPDVVWHZWDZ9","either","7","259","","","","","","","0","0","1","","0.3152574144","0.4","0.6","0.2","0.8","0.3152574144","0.0265596094","0.3778881599","0.4162513677","","","","","","","","","","","","","","72","H","0","img/none_selected.jpg","","30","main_expt","",""
"","bandit","120","512614","0.0-72.0-0.0","64555249","wem/bandit_party_1","A1YPDVVWHZWDZ9","either","7","223","","","","","","","0","0","1","","0.3508579725","0.4","0.6","0.2","0.8","0.3508579725","0.02828816112","0.3585458117","0.43337534","","","","","","","","","","","","","","72","H","0","img/none_selected.jpg","","31","main_expt","",""
"","bandit","121","514695","0.0-73.0-0.0","64555249","wem/bandit_party_1","A1YPDVVWHZWDZ9","either","7","495","","","","","","","0","0","1","0.3902021543","","0.4","0.6","0.2","0.8","","","","","0.3902021543","0.03857304495","0.3511664436","0.4399105216","","","","","","","","","","72","H","0","img/none_selected.jpg","","32","main_expt","",""
"","bandit","122","517012","0.0-74.0-0.0","64555249","wem/bandit_party_1","A1YPDVVWHZWDZ9","either","7","734","","","","","","","0","1","0","","0.4112626521","0.4","0.6","0.2","0.8","0.4112626521","0.02642959278","0.3924960189","0.3859623535","","","","","","","","","","","","","","72","H","0","img/none_selected.jpg","","33","main_expt","",""
"","bandit","123","518968","0.0-75.0-0.0","64555249","wem/bandit_party_1","A1YPDVVWHZWDZ9","either","7","384","","","","","","","0","1","0","","0.3713907517","0.4","0.6","0.2","0.8","0.3912589523","0.06800028167","0.3713907517","0.4231921331","","","","","","","","","","","","","","75","K","2","","","34","main_expt","",""
"","bandit","124","520972","0.0-76.0-0.0","64555249","wem/bandit_party_1","A1YPDVVWHZWDZ9","either","7","450","","","","","","","0","0","1","0.3950458867","","0.4","0.6","0.2","0.8","","","","","0.3663646496","0.05710280771","0.3929004689","0.3950458867","","","","","","","","","","76","L","3","","","35","main_expt","",""
"","bandit","125","523908","0.0-77.0-0.0","64555249","wem/bandit_party_1","A1YPDVVWHZWDZ9","either","7","1361","","","","","","","0","0","1","0.4005306787","","0.4","0.6","0.2","0.8","","","","","0.3045225128","0.07756943076","0.3820467604","0.4005306787","","","","","","","","","","76","L","3","","","36","main_expt","",""
"","bandit","126","525935","0.0-78.0-0.0","64555249","wem/bandit_party_1","A1YPDVVWHZWDZ9","either","7","446","","","","","","","1","0","0","0.3972735937","","0.4","0.6","0.2","0.8","","","","","0.2806474599","0.06074629621","0.3948022939","0.3972735937","","","","","","","","","","76","L","3","","","37","main_expt","",""
"","bandit","127","527906","0.0-79.0-0.0","64555249","wem/bandit_party_1","A1YPDVVWHZWDZ9","either","7","395","","","","","","","0","0","1","0.38339591","","0.4","0.6","0.2","0.8","","","","","0.3558759705","0.07063042774","0.3769579019","0.38339591","","","","","","","","","","76","L","3","","","38","main_expt","",""
"","bandit","128","529840","0.0-80.0-0.0","64555249","wem/bandit_party_1","A1YPDVVWHZWDZ9","either","7","364","","","","","","","1","0","0","0.3906354184","","0.4","0.6","0.2","0.8","","","","","0.3194138052","0.06209293178","0.4030344636","0.3906354184","","","","","","","","","","76","L","3","","","39","main_expt","",""
"","bandit","129","532141","0.0-81.0-0.0","64555249","wem/bandit_party_1","A1YPDVVWHZWDZ9","either","7","727","","","","","","","0","0","1","0.3623676206","","0.4","0.6","0.2","0.8","","","","","0.3549086085","0.06952578958","0.3622335218","0.3623676206","","","","","","","","","","76","L","3","","","40","main_expt","",""
"","bandit","130","535084","0.0-82.0-0.0","64555249","wem/bandit_party_1","A1YPDVVWHZWDZ9","either","7","1344","","","","","","","0","0","1","0.3873704927","","0.4","0.6","0.2","0.8","","","","","0.3452113815","0.1291245709","0.3911596719","0.3873704927","","","","","","","","","","76","L","3","","","41","main_expt","",""
"","bandit","131","537844","0.0-83.0-0.0","64555249","wem/bandit_party_1","A1YPDVVWHZWDZ9","either","7","1192","","","","","","","0","0","1","0.359823116","","0.4","0.6","0.2","0.8","","","","","0.3522960267","0.1174523948","0.3921858285","0.359823116","","","","","","","","","","76","L","3","","","42","main_expt","",""
"","bandit","132","539796","0.0-84.0-0.0","64555249","wem/bandit_party_1","A1YPDVVWHZWDZ9","either","7","362","","","","","","","0","0","1","0.3710191411","","0.4","0.6","0.2","0.8","","","","","0.3093122096","0.1201484523","0.3831213528","0.3710191411","","","","","","","","","","76","L","3","","","43","main_expt","",""
"","bandit","133","545080","0.0-85.0-0.0","64555249","wem/bandit_party_1","A1YPDVVWHZWDZ9","either","7","3711","","","","","","","0","0","1","0.3874065465","","0.4","0.6","0.2","0.8","","","","","0.3026159556","0.09958360536","0.3518708159","0.3874065465","","","","","","","","","","76","L","3","","","44","main_expt","",""
"","bandit","134","547411","0.0-86.0-0.0","64555249","wem/bandit_party_1","A1YPDVVWHZWDZ9","either","7","749","","","","","","","0","0","1","","0.05173655998","0.4","0.6","0.2","0.8","0.3336294247","0.05173655998","0.3122870636","0.3851533971","","","","","","","","","","","","","","74","J","1","","","45","main_expt","",""
"","bandit","135","549330","0.0-87.0-0.0","64555249","wem/bandit_party_1","A1YPDVVWHZWDZ9","either","7","359","","","","","","","0","0","1","","0.05945041096","0.4","0.6","0.2","0.8","0.3400222736","0.05945041096","0.2635721956","0.4055883719","","","","","","","","","","","","","","74","J","1","","","46","main_expt","",""
"","bandit","136","551229","0.0-88.0-0.0","64555249","wem/bandit_party_1","A1YPDVVWHZWDZ9","either","7","332","","","","","","","0","0","1","","0.04375763727","0.4","0.6","0.2","0.8","0.328707825","0.04375763727","0.2856785865","0.3671593179","","","","","","","","","","","","","","74","J","1","","","47","main_expt","",""
"","bandit","137","553117","0.0-89.0-0.0","64555249","wem/bandit_party_1","A1YPDVVWHZWDZ9","either","7","319","","","","","","","1","0","0","0.3198203038","","0.4","0.6","0.2","0.8","","","","","0.3307690822","0.0666370861","0.2649087478","0.3198203038","","","","","","","","","","76","L","3","","","48","main_expt","",""
"","bandit","138","555014","0.0-90.0-0.0","64555249","wem/bandit_party_1","A1YPDVVWHZWDZ9","either","7","322","","","","","","","0","0","1","0.3111357295","","0.4","0.6","0.2","0.8","","","","","0.3438067684","0.08266213623","0.2462979357","0.3111357295","","","","","","","","","","76","L","3","","","49","main_expt","",""
"","bandit","139","557067","0.0-91.0-0.0","64555249","wem/bandit_party_1","A1YPDVVWHZWDZ9","either","7","473","","","","","","","0","0","1","0.3196682981","","0.4","0.6","0.2","0.8","","","","","0.4037002216","0.08795051988","0.2490076798","0.3196682981","","","","","","","","","","76","L","3","","","50","main_expt","",""
"","bandit","140","558762","0.0-92.0-0.0","64555249","wem/bandit_party_1","A1YPDVVWHZWDZ9","either","7","112","","","","","","","0","0","1","0.3088596379","","0.4","0.6","0.2","0.8","","","","","0.3557518394","0.07533366945","0.305209751","0.3088596379","","","","","","","","","","76","L","3","","","51","main_expt","",""
"","bandit","141","560879","0.0-93.0-0.0","64555249","wem/bandit_party_1","A1YPDVVWHZWDZ9","either","7","536","","","","","","","0","0","1","0.3060924957","","0.4","0.6","0.2","0.8","","","","","0.3254324358","0.06506638851","0.3087204988","0.3060924957","","","","","","","","","","76","L","3","","","52","main_expt","",""
"","bandit","142","562808","0.0-94.0-0.0","64555249","wem/bandit_party_1","A1YPDVVWHZWDZ9","either","7","351","","","","","","","0","0","1","0.3229319808","","0.4","0.6","0.2","0.8","","","","","0.2952150256","0.06562792832","0.2984188648","0.3229319808","","","","","","","","","","76","L","3","","","53","main_expt","",""
"","bandit","143","564988","0.0-95.0-0.0","64555249","wem/bandit_party_1","A1YPDVVWHZWDZ9","either","7","610","","","","","","","0","0","1","0.3280138586","","0.4","0.6","0.2","0.8","","","","","0.300320608","0.04630081711","0.3353917468","0.3280138586","","","","","","","","","","76","L","3","","","54","main_expt","",""
"","bandit","144","567161","0.0-96.0-0.0","64555249","wem/bandit_party_1","A1YPDVVWHZWDZ9","either","7","598","","","","","","","0","0","1","","0.2777260571","0.4","0.6","0.2","0.8","0.2985084879","0.03868373719","0.3259144651","0.2777260571","","","","","","","","","","","","","","76","L","3","","","55","main_expt","",""
"","bandit","145","571110","0.0-97.0-0.0","64555249","wem/bandit_party_1","A1YPDVVWHZWDZ9","either","7","2362","","","","","","","0","0","1","0.1791004868","","0.4","0.6","0.2","0.8","","","","","0.2607009345","0.06235362297","0.3259049121","0.1791004868","","","","","","","","","","76","L","3","","","56","main_expt","",""
"","bandit","146","573091","0.0-98.0-0.0","64555249","wem/bandit_party_1","A1YPDVVWHZWDZ9","either","7","412","","","","","","","0","0","1","0.2182265394","","0.4","0.6","0.2","0.8","","","","","0.2565854794","0.04639461243","0.3687904078","0.2182265394","","","","","","","","","","76","L","3","","","57","main_expt","",""
"","bandit","147","575185","0.0-99.0-0.0","64555249","wem/bandit_party_1","A1YPDVVWHZWDZ9","either","7","514","","","","","","","1","0","0","0.2970860181","","0.4","0.6","0.2","0.8","","","","","0.319121847","0.08954448139","0.3422038875","0.2970860181","","","","","","","","","","76","L","3","","","58","main_expt","",""
"","bandit","148","577238","0.0-100.0-0.0","64555249","wem/bandit_party_1","A1YPDVVWHZWDZ9","either","7","460","","","","","","","0","0","1","0.3249685468","","0.4","0.6","0.2","0.8","","","","","0.3269923399","0.07390342289","0.3771421139","0.3249685468","","","","","","","","","","76","L","3","","","59","main_expt","",""
"","bandit","149","579273","0.0-101.0-0.0","64555249","wem/bandit_party_1","A1YPDVVWHZWDZ9","either","7","464","","","","","","","0","0","1","0.2931470039","","0.4","0.6","0.2","0.8","","","","","0.3150968823","0.05801548519","0.3620124399","0.2931470039","","","","","","","","","","76","L","3","","","60","main_expt","",""
"","bandit","150","581652","0.0-102.0-0.0","64555249","wem/bandit_party_1","A1YPDVVWHZWDZ9","either","7","804","","","","","","","0","0","1","0.2646536279","","0.4","0.6","0.2","0.8","","","","","0.324539239","0.07333263924","0.3958116198","0.2646536279","","","","","","","","","","76","L","3","","","61","main_expt","",""
"","bandit","151","583229","0.0-103.0-0.0","64555249","wem/bandit_party_1","A1YPDVVWHZWDZ9","either","7","2","","","","","","","1","0","0","0.242461968","","0.4","0.6","0.2","0.8","","","","","0.3066306166","0.07563430262","0.3615218546","0.242461968","","","","","","","","","","76","L","3","","","62","main_expt","",""
"","bandit","152","585241","0.0-104.0-0.0","64555249","wem/bandit_party_1","A1YPDVVWHZWDZ9","either","7","425","","","","","","","0","0","1","0.2206683029","","0.4","0.6","0.2","0.8","","","","","0.3068900116","0.06826526778","0.3574266064","0.2206683029","","","","","","","","","","76","L","3","","","63","main_expt","",""
"","bandit","153","589348","0.0-105.0-0.0","64555249","wem/bandit_party_1","A1YPDVVWHZWDZ9","either","7","2530","","","","","","","0","0","1","0.2288959862","","0.4","0.6","0.2","0.8","","","","","0.2936494982","0.1175271989","0.3541915859","0.2288959862","","","","","","","","","","76","L","3","","","64","main_expt","",""
"","bandit","154","591607","0.0-106.0-0.0","64555249","wem/bandit_party_1","A1YPDVVWHZWDZ9","either","7","678","","","","","","","0","0","1","0.2346523549","","0.4","0.6","0.2","0.8","","","","","0.290236101","0.1273865191","0.3339820985","0.2346523549","","","","","","","","","","76","L","3","","","65","main_expt","",""
"","bandit","155","593317","0.0-107.0-0.0","64555249","wem/bandit_party_1","A1YPDVVWHZWDZ9","either","7","116","","","","","","","0","0","1","0.1881688105","","0.4","0.6","0.2","0.8","","","","","0.2512036594","0.09075088943","0.3195467083","0.1881688105","","","","","","","","","","76","L","3","","","66","main_expt","",""
"","bandit","156","596124","0.0-108.0-0.0","64555249","wem/bandit_party_1","A1YPDVVWHZWDZ9","either","7","1232","","","","","","","1","0","0","0.08077075725","","0.4","0.6","0.2","0.8","","","","","0.263747572","0.08077075725","0.3477383846","0.231043846","","","","","","","","","","74","J","1","","","67","main_expt","",""
"","bandit","157","598138","0.0-109.0-0.0","64555249","wem/bandit_party_1","A1YPDVVWHZWDZ9","either","7","417","","","","","","","0","0","1","0.08810311296","","0.4","0.6","0.2","0.8","","","","","0.2892519303","0.08810311296","0.3365352069","0.2576664243","","","","","","","","","","74","J","1","","","68","main_expt","",""
"","bandit","158","600048","0.0-110.0-0.0","64555249","wem/bandit_party_1","A1YPDVVWHZWDZ9","either","7","319","","","","","","","0","0","1","","0.1260156682","0.4","0.6","0.2","0.8","0.2383664846","0.1260156682","0.3148812039","0.2183283259","","","","","","","","","","","","","","74","J","1","","","69","main_expt","",""
"","bandit","159","602684","0.0-111.0-0.0","64555249","wem/bandit_party_1","A1YPDVVWHZWDZ9","either","7","1049","","","","","","","0","0","1","0.08773951932","","0.4","0.6","0.2","0.8","","","","","0.2497111545","0.08773951932","0.3154014692","0.2260484764","","","","","","","","","","74","J","1","","","70","main_expt","",""
"","bandit","160","604739","0.0-112.0-0.0","64555249","wem/bandit_party_1","A1YPDVVWHZWDZ9","either","7","461","","","","","","","0","0","1","","0.1154304285","0.4","0.6","0.2","0.8","0.2095843002","0.1154304285","0.219815459","0.3196469567","","","","","","","","","","","","","","74","J","1","","","71","main_expt","",""
"","bandit","161","606875","0.0-113.0-0.0","64555249","wem/bandit_party_1","A1YPDVVWHZWDZ9","either","7","543","","","","","","","0","0","1","0.10097247","","0.4","0.6","0.2","0.8","","","","","0.1972488467","0.10097247","0.2623730272","0.3644141189","","","","","","","","","","74","J","1","","","72","main_expt","",""
"","bandit","162","608869","0.0-114.0-0.0","64555249","wem/bandit_party_1","A1YPDVVWHZWDZ9","either","7","444","","","","","","","0","0","1","0.0746930591","","0.4","0.6","0.2","0.8","","","","","0.15494396","0.0746930591","0.2639805735","0.4081842109","","","","","","","","","","74","J","1","","","73","main_expt","",""
"","bandit","163","612681","0.0-115.0-0.0","64555249","wem/bandit_party_1","A1YPDVVWHZWDZ9","either","7","2217","","","","","","","0","0","1","","0.1124392477","0.4","0.6","0.2","0.8","0.1324790415","0.1124392477","0.2770925356","0.4506698749","","","","","","","","","","","","","","74","J","1","","","74","main_expt","",""
"","bandit","164","615013","0.0-116.0-0.0","64555249","wem/bandit_party_1","A1YPDVVWHZWDZ9","either","7","753","","","","","","","0","0","1","","0.2796652475","0.4","0.6","0.2","0.8","0.179195356","0.113494578","0.2796652475","0.454520075","","","","","","","","","","","","","","75","K","2","","","75","main_expt","",""
"","bandit","165","617231","0.0-117.0-0.0","64555249","wem/bandit_party_1","A1YPDVVWHZWDZ9","either","7","635","","","","","","","0","0","1","0.3153427244","","0.4","0.6","0.2","0.8","","","","","0.215808919","0.1469344428","0.3153427244","0.466199952","","","","","","","","","","75","K","2","","","76","main_expt","",""
"","bandit","166","619464","0.0-118.0-0.0","64555249","wem/bandit_party_1","A1YPDVVWHZWDZ9","either","7","649","","","","","","","0","0","1","","0.2312347408","0.4","0.6","0.2","0.8","0.2312347408","0.2152215887","0.3676911864","0.4402141775","","","","","","","","","","","","","","72","H","0","img/none_selected.jpg","","77","main_expt","",""
"","bandit","167","621642","0.0-119.0-0.0","64555249","wem/bandit_party_1","A1YPDVVWHZWDZ9","either","7","637","","","","","","","0","0","1","","0.2197025874","0.4","0.6","0.2","0.8","0.2197025874","0.2055177618","0.3434277392","0.4525957793","","","","","","","","","","","","","","72","H","0","img/none_selected.jpg","","78","main_expt","",""
"","bandit","168","623514","0.0-120.0-0.0","64555249","wem/bandit_party_1","A1YPDVVWHZWDZ9","either","7","331","","","","","","","0","0","1","","0.2227420924","0.4","0.6","0.2","0.8","0.2227420924","0.222262525","0.3758616161","0.4630799716","","","","","","","","","","","","","","72","H","0","img/none_selected.jpg","","79","main_expt","",""
"","bandit","169","625695","0.0-121.0-0.0","64555249","wem/bandit_party_1","A1YPDVVWHZWDZ9","either","7","620","","","","","","","0","0","1","","0.2700860438","0.4","0.6","0.2","0.8","0.2283057493","0.2700860438","0.3862393514","0.423693353","","","","","","","","","","","","","","74","J","1","","","80","main_expt","",""
"","bandit","170","627587","0.0-122.0-0.0","64555249","wem/bandit_party_1","A1YPDVVWHZWDZ9","either","7","272","","","","","","","0","0","1","0.2642688004","","0.4","0.6","0.2","0.8","","","","","0.2721525977","0.2642688004","0.3593770893","0.4319112677","","","","","","","","","","74","J","1","","","81","main_expt","",""
"","bandit","171","629420","0.0-123.0-0.0","64555249","wem/bandit_party_1","A1YPDVVWHZWDZ9","either","7","247","","","","","","","0","0","1","","0.2824164754","0.4","0.6","0.2","0.8","0.2850237184","0.2824164754","0.4035110645","0.441827487","","","","","","","","","","","","","","74","J","1","","","82","main_expt","",""
"","bandit","172","631264","0.0-124.0-0.0","64555249","wem/bandit_party_1","A1YPDVVWHZWDZ9","either","7","255","","","","","","","0","0","1","0.3719627038","","0.4","0.6","0.2","0.8","","","","","0.3236436683","0.2819095575","0.3719627038","0.4288861504","","","","","","","","","","75","K","2","","","83","main_expt","",""
"","bandit","173","633094","0.0-125.0-0.0","64555249","wem/bandit_party_1","A1YPDVVWHZWDZ9","either","7","235","","","","","","","0","1","0","","0.3349288927","0.4","0.6","0.2","0.8","0.3339638593","0.2589745902","0.3349288927","0.4350385517","","","","","","","","","","","","","","75","K","2","","","84","main_expt","",""
"","bandit","174","635022","0.0-126.0-0.0","64555249","wem/bandit_party_1","A1YPDVVWHZWDZ9","either","7","341","","","","","","","0","0","1","0.4255505645","","0.4","0.6","0.2","0.8","","","","","0.3795022601","0.3626504113","0.3247899262","0.4255505645","","","","","","","","","","76","L","3","","","85","main_expt","",""
"","bandit","175","636900","0.0-127.0-0.0","64555249","wem/bandit_party_1","A1YPDVVWHZWDZ9","either","7","299","","","","","","","0","0","1","0.4330938692","","0.4","0.6","0.2","0.8","","","","","0.3835523064","0.3598915268","0.3443557019","0.4330938692","","","","","","","","","","76","L","3","","","86","main_expt","",""
"","bandit","176","638828","0.0-128.0-0.0","64555249","wem/bandit_party_1","A1YPDVVWHZWDZ9","either","7","343","","","","","","","1","0","0","0.4548398529","","0.4","0.6","0.2","0.8","","","","","0.3772514457","0.3433052933","0.3648776167","0.4548398529","","","","","","","","","","76","L","3","","","87","main_expt","",""
"","bandit","177","640698","0.0-129.0-0.0","64555249","wem/bandit_party_1","A1YPDVVWHZWDZ9","either","7","279","","","","","","","1","0","0","0.4493124031","","0.4","0.6","0.2","0.8","","","","","0.3766830519","0.4022938878","0.3609631839","0.4493124031","","","","","","","","","","76","L","3","","","88","main_expt","",""
"","bandit","178","643523","0.0-130.0-0.0","64555249","wem/bandit_party_1","A1YPDVVWHZWDZ9","either","7","1247","","","","","","","1","0","0","0.4161110063","","0.4","0.6","0.2","0.8","","","","","0.3537755119","0.4141493151","0.3636167192","0.4161110063","","","","","","","","","","76","L","3","","","89","main_expt","",""
"","bandit","179","645484","0.0-131.0-0.0","64555249","wem/bandit_party_1","A1YPDVVWHZWDZ9","either","7","381","","","","","","","0","0","1","0.405260856","","0.4","0.6","0.2","0.8","","","","","0.3014761449","0.4136124289","0.3563441379","0.405260856","","","","","","","","","","76","L","3","","","90","main_expt","",""
"","bandit","180","647834","0.0-132.0-0.0","64555249","wem/bandit_party_1","A1YPDVVWHZWDZ9","either","7","751","","","","","","","0","0","1","","0.3827048226","0.4","0.6","0.2","0.8","0.2694038268","0.4184852842","0.3389138503","0.3827048226","","","","","","","","","","","","","","76","L","3","","","91","main_expt","",""
"","bandit","181","652869","0.0-133.0-0.0","64555249","wem/bandit_party_1","A1YPDVVWHZWDZ9","either","7","3462","","","","","","","1","0","0","0.3552182969","","0.4","0.6","0.2","0.8","","","","","0.2651536323","0.4456808576","0.3263360165","0.3552182969","","","","","","","","","","76","L","3","","","92","main_expt","",""
"","bandit","182","656160","0.0-134.0-0.0","64555249","wem/bandit_party_1","A1YPDVVWHZWDZ9","either","7","1716","","","","","","","1","0","0","0.3286897504","","0.4","0.6","0.2","0.8","","","","","0.1997208586","0.4355219805","0.2844131911","0.3286897504","","","","","","","","","","76","L","3","","","93","main_expt","",""
"","bandit","183","659257","0.0-135.0-0.0","64555249","wem/bandit_party_1","A1YPDVVWHZWDZ9","either","7","1518","","","","","","","0","0","1","0.3422490236","","0.4","0.6","0.2","0.8","","","","","0.2442555344","0.4609821192","0.2978465223","0.3422490236","","","","","","","","","","76","L","3","","","94","main_expt","",""
"","bandit","184","661602","0.0-136.0-0.0","64555249","wem/bandit_party_1","A1YPDVVWHZWDZ9","either","7","749","","","","","","","0","0","1","0.3160161054","","0.4","0.6","0.2","0.8","","","","","0.2638839348","0.4419374505","0.2638723705","0.3160161054","","","","","","","","","","76","L","3","","","95","main_expt","",""
"","bandit","185","663735","0.0-137.0-0.0","64555249","wem/bandit_party_1","A1YPDVVWHZWDZ9","either","7","547","","","","","","","1","0","0","0.2945538732","","0.4","0.6","0.2","0.8","","","","","0.2265245807","0.39438674","0.2276010735","0.2945538732","","","","","","","","","","76","L","3","","","96","main_expt","",""
"","bandit","186","667807","0.0-138.0-0.0","64555249","wem/bandit_party_1","A1YPDVVWHZWDZ9","either","7","2479","","","","","","","0","0","1","0.393563827","","0.4","0.6","0.2","0.8","","","","","0.1969189177","0.3617668419","0.2045446072","0.393563827","","","","","","","","","","76","L","3","","","97","main_expt","",""
"","bandit","187","669866","0.0-139.0-0.0","64555249","wem/bandit_party_1","A1YPDVVWHZWDZ9","either","7","419","","","","","","","1","0","0","0.4046254927","","0.4","0.6","0.2","0.8","","","","","0.1761144245","0.3737913853","0.2436418828","0.4046254927","","","","","","","","","","76","L","3","","","98","main_expt","",""
"","bandit","188","671876","0.0-140.0-0.0","64555249","wem/bandit_party_1","A1YPDVVWHZWDZ9","either","7","435","","","","","","","1","0","0","0.3659012549","","0.4","0.6","0.2","0.8","","","","","0.1211630765","0.4221129479","0.2473144087","0.3659012549","","","","","","","","","","76","L","3","","","99","main_expt","",""
"","bandit","189","674268","0.0-141.0-0.0","64555249","wem/bandit_party_1","A1YPDVVWHZWDZ9","either","7","812","","","","","","","1","0","0","0.400368336","","0.4","0.6","0.2","0.8","","","","","0.1257326749","0.3857893684","0.2707360286","0.400368336","","","","","","","","","","76","L","3","","","100","main_expt","",""
"","bandit","190","676412","0.0-142.0-0.0","64555249","wem/bandit_party_1","A1YPDVVWHZWDZ9","either","7","560","","","","","","","0","0","1","0.4367931528","","0.4","0.6","0.2","0.8","","","","","0.09975532208","0.3635527264","0.3250409822","0.4367931528","","","","","","","","","","76","L","3","","","101","main_expt","",""
"","bandit","191","678361","0.0-143.0-0.0","64555249","wem/bandit_party_1","A1YPDVVWHZWDZ9","either","7","366","","","","","","","0","0","1","0.4371155326","","0.4","0.6","0.2","0.8","","","","","0.1127414424","0.3738375489","0.3088580598","0.4371155326","","","","","","","","","","76","L","3","","","102","main_expt","",""
"","bandit","192","680999","0.0-144.0-0.0","64555249","wem/bandit_party_1","A1YPDVVWHZWDZ9","either","7","1047","","","","","","","0","0","1","0.388648264","","0.4","0.6","0.2","0.8","","","","","0.1232600734","0.3860163181","0.2901001995","0.388648264","","","","","","","","","","76","L","3","","","103","main_expt","",""
"","bandit","193","683021","0.0-145.0-0.0","64555249","wem/bandit_party_1","A1YPDVVWHZWDZ9","either","7","443","","","","","","","0","0","1","0.3718469433","","0.4","0.6","0.2","0.8","","","","","0.08156843846","0.390692362","0.309645936","0.3718469433","","","","","","","","","","76","L","3","","","104","main_expt","",""
"","bandit","194","685071","0.0-146.0-0.0","64555249","wem/bandit_party_1","A1YPDVVWHZWDZ9","either","7","466","","","","","","","0","0","1","","0.3920304628","0.4","0.6","0.2","0.8","0.08245659199","0.4139082553","0.3386062745","0.3920304628","","","","","","","","","","","","","","76","L","3","","","105","main_expt","",""
"","bandit","195","687244","0.0-147.0-0.0","64555249","wem/bandit_party_1","A1YPDVVWHZWDZ9","either","7","581","","","","","","","1","0","0","0.3733497125","","0.4","0.6","0.2","0.8","","","","","0.1276639339","0.3295275825","0.3827539061","0.3733497125","","","","","","","","","","76","L","3","","","106","main_expt","",""
"","bandit","196","689483","0.0-148.0-0.0","64555249","wem/bandit_party_1","A1YPDVVWHZWDZ9","either","7","662","","","","","","","0","0","1","","0.3878439861","0.4","0.6","0.2","0.8","0.1812689745","0.3499712774","0.3401355396","0.3878439861","","","","","","","","","","","","","","76","L","3","","","107","main_expt","",""
"","bandit","197","691808","0.0-149.0-0.0","64555249","wem/bandit_party_1","A1YPDVVWHZWDZ9","either","7","746","","","","","","","0","0","1","0.3529013302","","0.4","0.6","0.2","0.8","","","","","0.2187982558","0.2666891207","0.3258039352","0.3529013302","","","","","","","","","","76","L","3","","","108","main_expt","",""
"","bandit","198","693876","0.0-150.0-0.0","64555249","wem/bandit_party_1","A1YPDVVWHZWDZ9","either","7","478","","","","","","","0","0","1","0.3457683734","","0.4","0.6","0.2","0.8","","","","","0.2201216928","0.2575067634","0.374919859","0.3457683734","","","","","","","","","","76","L","3","","","109","main_expt","",""
"","bandit","199","695952","0.0-151.0-0.0","64555249","wem/bandit_party_1","A1YPDVVWHZWDZ9","either","7","492","","","","","","","0","0","1","0.3316873257","","0.4","0.6","0.2","0.8","","","","","0.1789817232","0.2664913793","0.3656186065","0.3316873257","","","","","","","","","","76","L","3","","","110","main_expt","",""
"","bandit","200","698033","0.0-152.0-0.0","64555249","wem/bandit_party_1","A1YPDVVWHZWDZ9","either","7","498","","","","","","","0","1","0","","0.3434945318","0.4","0.6","0.2","0.8","0.2404947452","0.2233446911","0.3649701027","0.3434945318","","","","","","","","","","","","","","76","L","3","","","111","main_expt","",""
"","bandit","201","699934","0.0-153.0-0.0","64555249","wem/bandit_party_1","A1YPDVVWHZWDZ9","either","7","308","","","","","","","0","1","0","","0.2170082082","0.4","0.6","0.2","0.8","0.2959558532","0.2170082082","0.3371716456","0.2729480053","","","","","","","","","","","","","","74","J","1","","","112","main_expt","",""
"","bandit","202","701773","0.0-154.0-0.0","64555249","wem/bandit_party_1","A1YPDVVWHZWDZ9","either","7","251","","","","","","","0","1","0","","0.2587224119","0.4","0.6","0.2","0.8","0.2966985553","0.1912277411","0.2587224119","0.2579672073","","","","","","","","","","","","","","75","K","2","","","113","main_expt","",""
"","bandit","203","703617","0.0-155.0-0.0","64555249","wem/bandit_party_1","A1YPDVVWHZWDZ9","either","7","227","","","","","","","0","0","1","","0.3289730608","0.4","0.6","0.2","0.8","0.3289730608","0.1691995451","0.2384324947","0.24654084","","","","","","","","","","","","","","72","H","0","img/none_selected.jpg","","114","main_expt","",""
"","bandit","204","705309","0.0-156.0-0.0","64555249","wem/bandit_party_1","A1YPDVVWHZWDZ9","either","7","117","","","","","","","0","0","1","0.2783705844","","0.4","0.6","0.2","0.8","","","","","0.2783705844","0.1263730162","0.2705755989","0.246649757","","","","","","","","","","72","H","0","img/none_selected.jpg","","115","main_expt","",""
"","bandit","205","707183","0.0-157.0-0.0","64555249","wem/bandit_party_1","A1YPDVVWHZWDZ9","either","7","287","","","","","","","0","0","1","","0.2990421824","0.4","0.6","0.2","0.8","0.2990421824","0.1130092975","0.2666822","0.2190482835","","","","","","","","","","","","","","72","H","0","img/none_selected.jpg","","116","main_expt","",""
"","bandit","206","709139","0.0-158.0-0.0","64555249","wem/bandit_party_1","A1YPDVVWHZWDZ9","either","7","363","","","","","","","0","0","1","","0.3214730448","0.4","0.6","0.2","0.8","0.3214730448","0.1317362661","0.2664749026","0.1860086181","","","","","","","","","","","","","","72","H","0","img/none_selected.jpg","","117","main_expt","",""
"","bandit","207","711042","0.0-159.0-0.0","64555249","wem/bandit_party_1","A1YPDVVWHZWDZ9","either","7","300","","","","","","","0","1","0","","0.3996160597","0.4","0.6","0.2","0.8","0.3996160597","0.08460291254","0.285497096","0.1765749983","","","","","","","","","","","","","","72","H","0","img/none_selected.jpg","","118","main_expt","",""
"","bandit","208","712921","0.0-160.0-0.0","64555249","wem/bandit_party_1","A1YPDVVWHZWDZ9","either","7","294","","","","","","","0","0","1","","0.09168363065","0.4","0.6","0.2","0.8","0.4143362638","0.09168363065","0.3004427434","0.1840588368","","","","","","","","","","","","","","74","J","1","","","119","main_expt","",""
"","bandit","209","714762","0.0-161.0-0.0","64555249","wem/bandit_party_1","A1YPDVVWHZWDZ9","either","7","295","","","","","","","0","0","1","0.06729372802","","0.4","0.6","0.2","0.8","","","","","0.372340151","0.06729372802","0.2419855731","0.1988357929","","","","","","","","","","74","J","1","","","120","main_expt","",""
"","bandit","210","717044","0.0-162.0-0.0","64555249","wem/bandit_party_1","A1YPDVVWHZWDZ9","either","7","735","","","","","","","0","0","1","0.08346408207","","0.4","0.6","0.2","0.8","","","","","0.3910424524","0.08346408207","0.3054132847","0.2315674","","","","","","","","","","74","J","1","","","121","main_expt","",""
"","bandit","211","719002","0.0-163.0-0.0","64555249","wem/bandit_party_1","A1YPDVVWHZWDZ9","either","7","350","","","","","","","0","0","1","0.05632743158","","0.4","0.6","0.2","0.8","","","","","0.3813410711","0.05632743158","0.2473202095","0.2041322171","","","","","","","","","","74","J","1","","","122","main_expt","",""
"","bandit","212","720926","0.0-164.0-0.0","64555249","wem/bandit_party_1","A1YPDVVWHZWDZ9","either","7","335","","","","","","","0","0","1","0.05516745574","","0.4","0.6","0.2","0.8","","","","","0.4247291795","0.05516745574","0.2909195989","0.1945268209","","","","","","","","","","74","J","1","","","123","main_expt","",""
"","bandit","213","723200","0.0-165.0-0.0","64555249","wem/bandit_party_1","A1YPDVVWHZWDZ9","either","7","541","","","","","","","0","0","1","0.05528311039","","0.4","0.6","0.2","0.8","","","","","0.4311179713","0.05528311039","0.3493750294","0.2206749142","","","","","","","","","","74","J","1","","","124","main_expt","",""
"","bandit","214","725285","0.0-166.0-0.0","64555249","wem/bandit_party_1","A1YPDVVWHZWDZ9","either","7","508","","","","","","","0","0","1","","0.07149807259","0.4","0.6","0.2","0.8","0.4085782939","0.07149807259","0.3883668019","0.212012295","","","","","","","","","","","","","","74","J","1","","","125","main_expt","",""
"","bandit","215","727833","0.0-167.0-0.0","64555249","wem/bandit_party_1","A1YPDVVWHZWDZ9","either","7","938","","","","","","","0","0","1","0.1137803622","","0.4","0.6","0.2","0.8","","","","","0.4110861309","0.1137803622","0.3888129637","0.1656684785","","","","","","","","","","74","J","1","","","126","main_expt","",""
"","bandit","216","730932","0.0-168.0-0.0","64555249","wem/bandit_party_1","A1YPDVVWHZWDZ9","either","7","1509","","","","","","","0","0","1","","0.1003054442","0.4","0.6","0.2","0.8","0.4214671818","0.1003054442","0.3659195129","0.1685301808","","","","","","","","","","","","","","74","J","1","","","127","main_expt","",""
"","bandit","217","732942","0.0-169.0-0.0","64555249","wem/bandit_party_1","A1YPDVVWHZWDZ9","either","7","416","","","","","","","0","0","1","0.1378169536","","0.4","0.6","0.2","0.8","","","","","0.36889317","0.1378169536","0.3689954399","0.1703551811","","","","","","","","","","74","J","1","","","128","main_expt","",""
"","bandit","218","735087","0.0-170.0-0.0","64555249","wem/bandit_party_1","A1YPDVVWHZWDZ9","either","7","569","","","","","","","0","0","1","0.1333081235","","0.4","0.6","0.2","0.8","","","","","0.3840267129","0.1333081235","0.3600340942","0.1624753709","","","","","","","","","","74","J","1","","","129","main_expt","",""
"","bandit","219","737574","0.0-171.0-0.0","64555249","wem/bandit_party_1","A1YPDVVWHZWDZ9","either","7","930","","","","","","","1","0","0","0.1682212827","","0.4","0.6","0.2","0.8","","","","","0.3809677701","0.1682212827","0.3580797835","0.2335662737","","","","","","","","","","74","J","1","","","130","main_expt","",""
"","bandit","220","739793","0.0-172.0-0.0","64555249","wem/bandit_party_1","A1YPDVVWHZWDZ9","either","7","641","","","","","","","0","0","1","0.2193829955","","0.4","0.6","0.2","0.8","","","","","0.3681933818","0.2193829955","0.3785893338","0.240441026","","","","","","","","","","74","J","1","","","131","main_expt","",""
"","bandit","221","742007","0.0-173.0-0.0","64555249","wem/bandit_party_1","A1YPDVVWHZWDZ9","either","7","651","","","","","","","0","0","1","0.2693349046","","0.4","0.6","0.2","0.8","","","","","0.3664045944","0.2693349046","0.3764735404","0.2266699971","","","","","","","","","","74","J","1","","","132","main_expt","",""
"","bandit","222","743978","0.0-174.0-0.0","64555249","wem/bandit_party_1","A1YPDVVWHZWDZ9","either","7","399","","","","","","","0","1","0","","0.2576546077","0.4","0.6","0.2","0.8","0.4046437197","0.2576546077","0.3433534211","0.1994193025","","","","","","","","","","","","","","74","J","1","","","133","main_expt","",""
"","bandit","223","745865","0.0-175.0-0.0","64555249","wem/bandit_party_1","A1YPDVVWHZWDZ9","either","7","327","","","","","","","0","0","1","","0.3606247271","0.4","0.6","0.2","0.8","0.364490756","0.2412372273","0.3606247271","0.1891464922","","","","","","","","","","","","","","75","K","2","","","134","main_expt","",""
"","bandit","224","748130","0.0-176.0-0.0","64555249","wem/bandit_party_1","A1YPDVVWHZWDZ9","either","7","667","","","","","","","0","0","1","","0.3268624306","0.4","0.6","0.2","0.8","0.311914316","0.2198641054","0.3268624306","0.1614798668","","","","","","","","","","","","","","75","K","2","","","135","main_expt","",""
"","bandit","225","750107","0.0-177.0-0.0","64555249","wem/bandit_party_1","A1YPDVVWHZWDZ9","either","7","367","","","","","","","0","0","1","0.2854606769","","0.4","0.6","0.2","0.8","","","","","0.2653901568","0.2504132697","0.2854606769","0.1880386222","","","","","","","","","","75","K","2","","","136","main_expt","",""
"","bandit","226","752147","0.0-178.0-0.0","64555249","wem/bandit_party_1","A1YPDVVWHZWDZ9","either","7","427","","","","","","","0","1","0","","0.3311747399","0.4","0.6","0.2","0.8","0.2413295316","0.1912230989","0.3311747399","0.1961818793","","","","","","","","","","","","","","75","K","2","","","137","main_expt","",""
"","bandit","227","754019","0.0-179.0-0.0","64555249","wem/bandit_party_1","A1YPDVVWHZWDZ9","either","7","289","","","","","","","0","0","1","","0.2857678963","0.4","0.6","0.2","0.8","0.2060295423","0.1576256809","0.2570785188","0.2857678963","","","","","","","","","","","","","","76","L","3","","","138","main_expt","",""
"","bandit","228","755931","0.0-180.0-0.0","64555249","wem/bandit_party_1","A1YPDVVWHZWDZ9","either","7","318","","","","","","","0","0","1","0.3449131854","","0.4","0.6","0.2","0.8","","","","","0.1809645164","0.1019788138","0.2858060749","0.3449131854","","","","","","","","","","76","L","3","","","139","main_expt","",""
"","bandit","229","757549","0.0-181.0-0.0","64555249","wem/bandit_party_1","A1YPDVVWHZWDZ9","either","7","35","","","","","","","0","0","1","0.2537716732","","0.4","0.6","0.2","0.8","","","","","0.1843216893","0.07754087054","0.2975559752","0.2537716732","","","","","","","","","","76","L","3","","","140","main_expt","",""
"","bandit","230","759427","0.0-182.0-0.0","64555249","wem/bandit_party_1","A1YPDVVWHZWDZ9","either","7","283","","","","","","","1","0","0","0.2858111263","","0.4","0.6","0.2","0.8","","","","","0.1651876155","0.09489610577","0.2802168405","0.2858111263","","","","","","","","","","76","L","3","","","141","main_expt","",""
"","bandit","231","761210","0.0-183.0-0.0","64555249","wem/bandit_party_1","A1YPDVVWHZWDZ9","either","7","230","","","","","","","0","1","0","","0.303049367","0.4","0.6","0.2","0.8","0.1536427928","0.09601428546","0.2231986748","0.303049367","","","","","","","","","","","","","","76","L","3","","","142","main_expt","",""
"","bandit","232","763213","0.0-184.0-0.0","64555249","wem/bandit_party_1","A1YPDVVWHZWDZ9","either","7","410","","","","","","","0","0","1","0.1546140226","","0.4","0.6","0.2","0.8","","","","","0.1546140226","0.08301142993","0.2032880393","0.2969419413","","","","","","","","","","72","H","0","img/none_selected.jpg","","143","main_expt","",""
"","bandit","233","765212","0.0-185.0-0.0","64555249","wem/bandit_party_1","A1YPDVVWHZWDZ9","either","7","404","","","","","","","0","1","0","","0.1746031107","0.4","0.6","0.2","0.8","0.1746031107","0.09599686985","0.1967741464","0.3128690494","","","","","","","","","","","","","","72","H","0","img/none_selected.jpg","","144","main_expt","",""
"","bandit","234","767307","0.0-186.0-0.0","64555249","wem/bandit_party_1","A1YPDVVWHZWDZ9","either","7","507","","","","","","","0","0","1","0.07499383622","","0.4","0.6","0.2","0.8","","","","","0.2021387556","0.07499383622","0.2283154954","0.2991796355","","","","","","","","","","74","J","1","","","145","main_expt","",""
"","bandit","235","769158","0.0-187.0-0.0","64555249","wem/bandit_party_1","A1YPDVVWHZWDZ9","either","7","276","","","","","","","0","0","1","0.09566861","","0.4","0.6","0.2","0.8","","","","","0.2504344391","0.09566861","0.2118700154","0.3163763193","","","","","","","","","","74","J","1","","","146","main_expt","",""
"","bandit","236","771308","0.0-188.0-0.0","64555249","wem/bandit_party_1","A1YPDVVWHZWDZ9","either","7","546","","","","","","","0","0","1","0.08578591382","","0.4","0.6","0.2","0.8","","","","","0.2437718569","0.08578591382","0.210437557","0.3198025905","","","","","","","","","","74","J","1","","","147","main_expt","",""
"","bandit","237","773738","0.0-189.0-0.0","64555249","wem/bandit_party_1","A1YPDVVWHZWDZ9","either","7","818","","","","","","","0","0","1","","0.1147887709","0.4","0.6","0.2","0.8","0.2446677265","0.1147887709","0.2370661354","0.2588245921","","","","","","","","","","","","","","74","J","1","","","148","main_expt","",""
"","bandit","238","775645","0.0-190.0-0.0","64555249","wem/bandit_party_1","A1YPDVVWHZWDZ9","either","7","304","","","","","","","0","0","1","0.1378203382","","0.4","0.6","0.2","0.8","","","","","0.2911002833","0.1378203382","0.2430363771","0.248712437","","","","","","","","","","74","J","1","","","149","main_expt","",""
"","bandit","239","777699","0.0-191.0-0.0","64555249","wem/bandit_party_1","A1YPDVVWHZWDZ9","either","7","434","","","","","","","0","0","1","0.1414499273","","0.4","0.6","0.2","0.8","","","","","0.3529655025","0.1414499273","0.2242182381","0.179144869","","","","","","","","","","74","J","1","","","150","main_expt","",""
"","bandit","240","779589","0.0-192.0-0.0","64555249","wem/bandit_party_1","A1YPDVVWHZWDZ9","either","7","295","","","","","","","0","0","1","","0.07852348772","0.4","0.6","0.2","0.8","0.3885741111","0.07852348772","0.1997145133","0.1545669956","","","","","","","","","","","","","","74","J","1","","","151","main_expt","",""
"","bandit","241","781448","0.0-193.0-0.0","64555249","wem/bandit_party_1","A1YPDVVWHZWDZ9","either","7","260","","","","","","","0","0","1","","0.08485793113","0.4","0.6","0.2","0.8","0.3690499696","0.08485793113","0.2195927633","0.1651714415","","","","","","","","","","","","","","74","J","1","","","152","main_expt","",""
"","bandit","242","783275","0.0-194.0-0.0","64555249","wem/bandit_party_1","A1YPDVVWHZWDZ9","either","7","225","","","","","","","0","0","1","0.1083789561","","0.4","0.6","0.2","0.8","","","","","0.3710492515","0.1083789561","0.2121816628","0.2396245514","","","","","","","","","","74","J","1","","","153","main_expt","",""
"","bandit","243","785062","0.0-195.0-0.0","64555249","wem/bandit_party_1","A1YPDVVWHZWDZ9","either","7","179","","","","","","","0","0","1","","0.1830588608","0.4","0.6","0.2","0.8","0.3483335413","0.109098481","0.1830588608","0.2085838567","","","","","","","","","","","","","","75","K","2","","","154","main_expt","",""
"","bandit","244","786897","0.0-196.0-0.0","64555249","wem/bandit_party_1","A1YPDVVWHZWDZ9","either","7","234","","","","","","","0","0","1","","0.2031423662","0.4","0.6","0.2","0.8","0.3343760247","0.1758262092","0.2031423662","0.1864274254","","","","","","","","","","","","","","75","K","2","","","155","main_expt","",""
"","bandit","245","789008","0.0-197.0-0.0","64555249","wem/bandit_party_1","A1YPDVVWHZWDZ9","either","7","500","","","","","","","0","0","1","","0.2022731065","0.4","0.6","0.2","0.8","0.3742013553","0.2046597001","0.2022731065","0.1750870897","","","","","","","","","","","","","","75","K","2","","","156","main_expt","",""
"","bandit","246","790905","0.0-198.0-0.0","64555249","wem/bandit_party_1","A1YPDVVWHZWDZ9","either","7","296","","","","","","","0","0","1","","0.1826661219","0.4","0.6","0.2","0.8","0.3620366094","0.1774751899","0.1826661219","0.1321985386","","","","","","","","","","","","","","75","K","2","","","157","main_expt","",""
"","bandit","247","792791","0.0-199.0-0.0","64555249","wem/bandit_party_1","A1YPDVVWHZWDZ9","either","7","287","","","","","","","0","0","1","0.1658993888","","0.4","0.6","0.2","0.8","","","","","0.3671714071","0.1612033886","0.1658993888","0.1341899746","","","","","","","","","","75","K","2","","","158","main_expt","",""
"","bandit","248","794842","0.0-200.0-0.0","64555249","wem/bandit_party_1","A1YPDVVWHZWDZ9","either","7","451","","","","","","","0","0","1","","0.1620079643","0.4","0.6","0.2","0.8","0.4015988616","0.1586838935","0.1620079643","0.1567784951","","","","","","","","","","","","","","75","K","2","","","159","main_expt","",""
"","bandit","249","797113","0.0-201.0-0.0","64555249","wem/bandit_party_1","A1YPDVVWHZWDZ9","either","7","680","","","","","","","0","0","1","","0.1615549635","0.4","0.6","0.2","0.8","0.4004877553","0.2159944071","0.2453635642","0.1615549635","","","","","","","","","","","","","","76","L","3","","","160","main_expt","",""
"","bandit","250","799779","0.0-202.0-0.0","64555249","wem/bandit_party_1","A1YPDVVWHZWDZ9","either","7","1099","","","","","","","0","0","1","0.1854631015","","0.4","0.6","0.2","0.8","","","","","0.4095849454","0.2105769377","0.2456373749","0.1854631015","","","","","","","","","","76","L","3","","","161","main_expt","",""
"","bandit","251","801789","0.0-203.0-0.0","64555249","wem/bandit_party_1","A1YPDVVWHZWDZ9","either","7","408","","","","","","","0","0","1","0.21229469","","0.4","0.6","0.2","0.8","","","","","0.3978002783","0.2006925765","0.2460125232","0.21229469","","","","","","","","","","76","L","3","","","162","main_expt","",""
"","bandit","252","803397","0.0-204.0-0.0","64555249","wem/bandit_party_1","A1YPDVVWHZWDZ9","either","7","3","","","","","","","1","0","0","0.162194177","","0.4","0.6","0.2","0.8","","","","","0.4180552148","0.2365124807","0.2013568893","0.162194177","","","","","","","","","","76","L","3","","","163","main_expt","",""
"","bandit","253","806040","0.0-205.0-0.0","64555249","wem/bandit_party_1","A1YPDVVWHZWDZ9","either","7","1043","","","","","","","0","0","1","0.1535707797","","0.4","0.6","0.2","0.8","","","","","0.4407560021","0.2157370886","0.1933595846","0.1535707797","","","","","","","","","","76","L","3","","","164","main_expt","",""
"","bandit","254","808321","0.0-206.0-0.0","64555249","wem/bandit_party_1","A1YPDVVWHZWDZ9","either","7","710","","","","","","","0","0","1","0.2315934193","","0.4","0.6","0.2","0.8","","","","","0.4582960521","0.2166787898","0.167552211","0.2315934193","","","","","","","","","","76","L","3","","","165","main_expt","",""
"","bandit","255","810588","0.0-207.0-0.0","64555249","wem/bandit_party_1","A1YPDVVWHZWDZ9","either","7","659","","","","","","","0","0","1","","0.2579087381","0.4","0.6","0.2","0.8","0.4337500892","0.1846262972","0.1311237951","0.2579087381","","","","","","","","","","","","","","76","L","3","","","166","main_expt","",""
"","bandit","256","812190","0.0-208.0-0.0","64555249","wem/bandit_party_1","A1YPDVVWHZWDZ9","either","7","2","","","","","","","0","0","1","0.2496457694","","0.4","0.6","0.2","0.8","","","","","0.4537582576","0.1888750078","0.1714029316","0.2496457694","","","","","","","","","","76","L","3","","","167","main_expt","",""
"","bandit","257","814272","0.0-209.0-0.0","64555249","wem/bandit_party_1","A1YPDVVWHZWDZ9","either","7","478","","","","","","","0","0","1","","0.234558796","0.4","0.6","0.2","0.8","0.4473485534","0.2315683769","0.1494402723","0.234558796","","","","","","","","","","","","","","76","L","3","","","168","main_expt","",""
"","bandit","258","816340","0.0-210.0-0.0","64555249","wem/bandit_party_1","A1YPDVVWHZWDZ9","either","7","456","","","","","","","0","0","1","0.2458600006","","0.4","0.6","0.2","0.8","","","","","0.4471591033","0.2018123945","0.1819888556","0.2458600006","","","","","","","","","","76","L","3","","","169","main_expt","",""
"","bandit","259","818873","0.0-211.0-0.0","64555249","wem/bandit_party_1","A1YPDVVWHZWDZ9","either","7","925","","","","","","","0","0","1","0.2214583157","","0.4","0.6","0.2","0.8","","","","","0.4581839475","0.139238222","0.2329206984","0.2214583157","","","","","","","","","","76","L","3","","","170","main_expt","",""
"","bandit","260","820989","0.0-212.0-0.0","64555249","wem/bandit_party_1","A1YPDVVWHZWDZ9","either","7","496","","","","","","","0","0","1","0.296208115","","0.4","0.6","0.2","0.8","","","","","0.4674995421","0.1466511374","0.2000607923","0.296208115","","","","","","","","","","76","L","3","","","171","main_expt","",""
"","bandit","261","822925","0.0-213.0-0.0","64555249","wem/bandit_party_1","A1YPDVVWHZWDZ9","either","7","329","","","","","","","0","0","1","0.3062379281","","0.4","0.6","0.2","0.8","","","","","0.4455620345","0.1348290388","0.2342957318","0.3062379281","","","","","","","","","","76","L","3","","","172","main_expt","",""
"","bandit","262","824855","0.0-214.0-0.0","64555249","wem/bandit_party_1","A1YPDVVWHZWDZ9","either","7","327","","","","","","","0","0","1","","0.2189308077","0.4","0.6","0.2","0.8","0.4471610379","0.1521691919","0.2189308077","0.2498067723","","","","","","","","","","","","","","75","K","2","","","173","main_expt","",""
"","bandit","263","826849","0.0-215.0-0.0","64555249","wem/bandit_party_1","A1YPDVVWHZWDZ9","either","7","380","","","","","","","1","0","0","0.2373932689","","0.4","0.6","0.2","0.8","","","","","0.4496576915","0.2191935525","0.2373932689","0.1803522277","","","","","","","","","","75","K","2","","","174","main_expt","",""
"","bandit","264","830268","0.0-216.0-0.0","64555249","wem/bandit_party_1","A1YPDVVWHZWDZ9","either","7","1822","","","","","","","0","0","1","","0.2160264752","0.4","0.6","0.2","0.8","0.4715297358","0.219961305","0.2160264752","0.2014319342","","","","","","","","","","","","","","75","K","2","","","175","main_expt","",""
"","bandit","265","832367","0.0-217.0-0.0","64555249","wem/bandit_party_1","A1YPDVVWHZWDZ9","either","7","475","","","","","","","0","0","1","","0.1990604306","0.4","0.6","0.2","0.8","0.477956151","0.1882485239","0.1990604306","0.2122003168","","","","","","","","","","","","","","75","K","2","","","176","main_expt","",""
"","bandit","266","834288","0.0-218.0-0.0","64555249","wem/bandit_party_1","A1YPDVVWHZWDZ9","either","7","314","","","","","","","0","0","1","","0.1729978196","0.4","0.6","0.2","0.8","0.4563721206","0.1644902553","0.1729978196","0.2629069455","","","","","","","","","","","","","","75","K","2","","","177","main_expt","",""
"","bandit","267","836217","0.0-219.0-0.0","64555249","wem/bandit_party_1","A1YPDVVWHZWDZ9","either","7","325","","","","","","","0","0","1","0.1633080779","","0.4","0.6","0.2","0.8","","","","","0.4409869931","0.1713669852","0.1633080779","0.2336104206","","","","","","","","","","75","K","2","","","178","main_expt","",""
"","bandit","268","838164","0.0-220.0-0.0","64555249","wem/bandit_party_1","A1YPDVVWHZWDZ9","either","7","356","","","","","","","0","0","1","","0.1243251356","0.4","0.6","0.2","0.8","0.4243126063","0.2263400462","0.1243251356","0.1887504226","","","","","","","","","","","","","","75","K","2","","","179","main_expt","",""
"","bandit","269","840283","0.0-221.0-0.0","64555249","wem/bandit_party_1","A1YPDVVWHZWDZ9","either","7","520","","","","","","","0","0","1","","0.1150149055","0.4","0.6","0.2","0.8","0.4312830743","0.2036870175","0.1150149055","0.138376641","","","","","","","","","","","","","","75","K","2","","","180","main_expt","",""
"","bandit","270","842268","0.0-222.0-0.0","64555249","wem/bandit_party_1","A1YPDVVWHZWDZ9","either","7","374","","","","","","","0","0","1","","0.1407924877","0.4","0.6","0.2","0.8","0.4433127893","0.1934599198","0.1407924877","0.1883992559","","","","","","","","","","","","","","75","K","2","","","181","main_expt","",""
"","bandit","271","844619","0.0-223.0-0.0","64555249","wem/bandit_party_1","A1YPDVVWHZWDZ9","either","7","746","","","","","","","0","1","0","","0.09672650852","0.4","0.6","0.2","0.8","0.440136403","0.2424515525","0.09672650852","0.128889003","","","","","","","","","","","","","","75","K","2","","","182","main_expt","",""
"","bandit","272","847041","0.0-224.0-0.0","64555249","wem/bandit_party_1","A1YPDVVWHZWDZ9","either","7","826","","","","","","","1","0","0","0.1961777535","","0.4","0.6","0.2","0.8","","","","","0.4347693449","0.1961777535","0.09888002855","0.1748769843","","","","","","","","","","74","J","1","","","183","main_expt","",""
"","bandit","273","849580","0.0-225.0-0.0","64555249","wem/bandit_party_1","A1YPDVVWHZWDZ9","either","7","930","","","","","","","0","0","1","0.1489283113","","0.4","0.6","0.2","0.8","","","","","0.4277130926","0.1489283113","0.07200145298","0.1945994373","","","","","","","","","","74","J","1","","","184","main_expt","",""
"","bandit","274","851971","0.0-226.0-0.0","64555249","wem/bandit_party_1","A1YPDVVWHZWDZ9","either","7","813","","","","","","","0","0","1","0.1499965078","","0.4","0.6","0.2","0.8","","","","","0.3956248437","0.1499965078","0.09476413333","0.1644748654","","","","","","","","","","74","J","1","","","185","main_expt","",""
"","bandit","275","853822","0.0-227.0-0.0","64555249","wem/bandit_party_1","A1YPDVVWHZWDZ9","either","7","299","","","","","","","0","0","1","","0.2169832988","0.4","0.6","0.2","0.8","0.3748928266","0.2169832988","0.06556422103","0.1504635592","","","","","","","","","","","","","","74","J","1","","","186","main_expt","",""
"","bandit","276","855848","0.0-228.0-0.0","64555249","wem/bandit_party_1","A1YPDVVWHZWDZ9","either","7","417","","","","","","","0","1","0","","0.2655186329","0.4","0.6","0.2","0.8","0.3848139325","0.2655186329","0.08901149072","0.1760039214","","","","","","","","","","","","","","74","J","1","","","187","main_expt","",""
"","bandit","277","857900","0.0-229.0-0.0","64555249","wem/bandit_party_1","A1YPDVVWHZWDZ9","either","7","444","","","","","","","0","0","1","","0.3990176401","0.4","0.6","0.2","0.8","0.3990176401","0.2738785118","0.09471428588","0.1203267588","","","","","","","","","","","","","","72","H","0","img/none_selected.jpg","","188","main_expt","",""
"","bandit","278","860024","0.0-230.0-0.0","64555249","wem/bandit_party_1","A1YPDVVWHZWDZ9","either","7","579","","","","","","","0","0","1","","0.3581396838","0.4","0.6","0.2","0.8","0.3581396838","0.3041874674","0.05118235823","0.1171540391","","","","","","","","","","","","","","72","H","0","img/none_selected.jpg","","189","main_expt","",""
"","bandit","279","862857","0.0-231.0-0.0","64555249","wem/bandit_party_1","A1YPDVVWHZWDZ9","either","7","1226","","","","","","","0","0","1","0.2882972244","","0.4","0.6","0.2","0.8","","","","","0.2882972244","0.3229453735","0.05788318751","0.1535230761","","","","","","","","","","72","H","0","img/none_selected.jpg","","190","main_expt","",""
"","bandit","280","864798","0.0-232.0-0.0","64555249","wem/bandit_party_1","A1YPDVVWHZWDZ9","either","7","343","","","","","","","0","0","1","","0.3145326233","0.4","0.6","0.2","0.8","0.3145326233","0.3818249757","0.08736915481","0.1372750947","","","","","","","","","","","","","","72","H","0","img/none_selected.jpg","","191","main_expt","",""
"","bandit","281","866837","0.0-233.0-0.0","64555249","wem/bandit_party_1","A1YPDVVWHZWDZ9","either","7","439","","","","","","","0","0","1","","0.3270603702","0.4","0.6","0.2","0.8","0.3270603702","0.4157726243","0.08251019118","0.1047771501","","","","","","","","","","","","","","72","H","0","img/none_selected.jpg","","192","main_expt","",""
"","bandit","282","868439","0.0-234.0-0.0","64555249","wem/bandit_party_1","A1YPDVVWHZWDZ9","either","7","4","","","","","","","1","0","0","0.3604030797","","0.4","0.6","0.2","0.8","","","","","0.3604030797","0.4611608212","0.06897628064","0.1100845432","","","","","","","","","","72","H","0","img/none_selected.jpg","","193","main_expt","",""
"","bandit","283","870406","0.0-235.0-0.0","64555249","wem/bandit_party_1","A1YPDVVWHZWDZ9","either","7","345","","","","","","","0","1","0","","0.357423186","0.4","0.6","0.2","0.8","0.357423186","0.4508818777","0.06801266305","0.1468163818","","","","","","","","","","","","","","72","H","0","img/none_selected.jpg","","194","main_expt","",""
"","bandit","284","872190","0.0-236.0-0.0","64555249","wem/bandit_party_1","A1YPDVVWHZWDZ9","either","7","186","","","","","","","0","0","1","","0.4278921451","0.4","0.6","0.2","0.8","0.3697779856","0.4278921451","0.09923709358","0.1495594621","","","","","","","","","","","","","","74","J","1","","","195","main_expt","",""
"","bandit","285","874096","0.0-237.0-0.0","64555249","wem/bandit_party_1","A1YPDVVWHZWDZ9","either","7","351","","","","","","","0","0","1","","0.4256293003","0.4","0.6","0.2","0.8","0.3617177512","0.4256293003","0.1103063831","0.2263220537","","","","","","","","","","","","","","74","J","1","","","196","main_expt","",""
"","bandit","286","877958","0.0-238.0-0.0","64555249","wem/bandit_party_1","A1YPDVVWHZWDZ9","either","7","2232","","","","","","","1","0","0","0.4476975038","","0.4","0.6","0.2","0.8","","","","","0.3775990084","0.4476975038","0.07377144043","0.2204718804","","","","","","","","","","74","J","1","","","197","main_expt","",""
"","bandit","287","879964","0.0-239.0-0.0","64555249","wem/bandit_party_1","A1YPDVVWHZWDZ9","either","7","401","","","","","","","0","1","0","","0.4434357272","0.4","0.6","0.2","0.8","0.4144042571","0.4434357272","0.08863448313","0.2401118457","","","","","","","","","","","","","","74","J","1","","","198","main_expt","",""
"","bandit","288","882195","0.0-240.0-0.0","64555249","wem/bandit_party_1","A1YPDVVWHZWDZ9","either","7","629","","","","","","","0","1","0","","0.1082179128","0.4","0.6","0.2","0.8","0.4081775392","0.4245114622","0.1082179128","0.2673724497","","","","","","","","","","","","","","75","K","2","","","199","main_expt","",""
"","bandit","289","884021","0.0-241.0-0.0","64555249","wem/bandit_party_1","A1YPDVVWHZWDZ9","either","7","227","","","","","","","0","1","0","","0.3125307902","0.4","0.6","0.2","0.8","0.4166156547","0.4087100315","0.09350688576","0.3125307902","","","","","","","","","","","","","","76","L","3","","","200","main_expt","",""
"","bandit","290","885938","0.0-242.0-0.0","64555249","wem/bandit_party_1","A1YPDVVWHZWDZ9","either","7","310","","","","","","","0","1","0","","0.4306537176","0.4","0.6","0.2","0.8","0.4306537176","0.4361521275","0.1036625099","0.2914574258","","","","","","","","","","","","","","72","H","0","img/none_selected.jpg","","201","main_expt","",""
"","bandit","291","887794","0.0-243.0-0.0","64555249","wem/bandit_party_1","A1YPDVVWHZWDZ9","either","7","303","","","","","","","0","0","1","0.3332596158","","0.4","0.6","0.2","0.8","","","","","0.449382563","0.3332596158","0.1216733889","0.2550600684","","","","","","","","","","74","J","1","","","202","main_expt","",""
"","bandit","292","889735","0.0-244.0-0.0","64555249","wem/bandit_party_1","A1YPDVVWHZWDZ9","either","7","385","","","","","","","1","0","0","0.3581848779","","0.4","0.6","0.2","0.8","","","","","0.4506576586","0.3581848779","0.120655788","0.2769745997","","","","","","","","","","74","J","1","","","203","main_expt","",""
"","bandit","293","891722","0.0-245.0-0.0","64555249","wem/bandit_party_1","A1YPDVVWHZWDZ9","either","7","409","","","","","","","0","0","1","0.3597133043","","0.4","0.6","0.2","0.8","","","","","0.454839243","0.3597133043","0.1082970726","0.2752990059","","","","","","","","","","74","J","1","","","204","main_expt","",""
"","bandit","294","894991","0.0-246.0-0.0","64555249","wem/bandit_party_1","A1YPDVVWHZWDZ9","either","7","1664","","","","","","","1","0","0","0.3630183988","","0.4","0.6","0.2","0.8","","","","","0.4512889682","0.3630183988","0.09143681274","0.2901512169","","","","","","","","","","74","J","1","","","205","main_expt","",""
"","bandit","295","897428","0.0-247.0-0.0","64555249","wem/bandit_party_1","A1YPDVVWHZWDZ9","either","7","844","","","","","","","1","0","0","0.3737494834","","0.4","0.6","0.2","0.8","","","","","0.4591490044","0.3737494834","0.08377413986","0.2823763913","","","","","","","","","","74","J","1","","","206","main_expt","",""
"","bandit","296","899471","0.0-248.0-0.0","64555249","wem/bandit_party_1","A1YPDVVWHZWDZ9","either","7","429","","","","","","","0","0","1","0.3668784438","","0.4","0.6","0.2","0.8","","","","","0.4650593633","0.3668784438","0.1585073664","0.2708062506","","","","","","","","","","74","J","1","","","207","main_expt","",""
"","bandit","297","901579","0.0-249.0-0.0","64555249","wem/bandit_party_1","A1YPDVVWHZWDZ9","either","7","428","","","","","","","1","0","0","0.4045351895","","0.4","0.6","0.2","0.8","","","","","0.4641513068","0.4045351895","0.162299901","0.2641553663","","","","","","","","","","74","J","1","","","208","main_expt","",""
"","bandit","298","904474","0.0-250.0-0.0","64555249","wem/bandit_party_1","A1YPDVVWHZWDZ9","either","7","1345","","","","","","","0","1","0","","0.4402386934","0.4","0.6","0.2","0.8","0.4567807332","0.4402386934","0.1542266077","0.2704675845","","","","","","","","","","","","","","74","J","1","","","209","main_expt","",""
"","bandit","299","906540","0.0-251.0-0.0","64555249","wem/bandit_party_1","A1YPDVVWHZWDZ9","either","7","479","","","","","","","0","0","1","0.1890415559","","0.4","0.6","0.2","0.8","","","","","0.428253188","0.4483623408","0.1890415559","0.3420868926","","","","","","","","","","75","K","2","","","210","main_expt","",""
"","bandit","300","908467","0.0-252.0-0.0","64555249","wem/bandit_party_1","A1YPDVVWHZWDZ9","either","7","365","","","","","","","0","0","1","","0.1818133019","0.4","0.6","0.2","0.8","0.410271385","0.4471415093","0.1818133019","0.3069688952","","","","","","","","","","","","","","75","K","2","","","211","main_expt","",""
"","bandit","301","910361","0.0-253.0-0.0","64555249","wem/bandit_party_1","A1YPDVVWHZWDZ9","either","7","335","","","","","","","1","0","0","0.1782747956","","0.4","0.6","0.2","0.8","","","","","0.4065587724","0.4374655127","0.1782747956","0.3005379093","","","","","","","","","","75","K","2","","","212","main_expt","",""
"","bandit","302","914788","0.0-254.0-0.0","64555249","wem/bandit_party_1","A1YPDVVWHZWDZ9","either","7","2812","","","","","","","0","1","0","","0.1935195711","0.4","0.6","0.2","0.8","0.4007116542","0.4381457257","0.1935195711","0.213882915","","","","","","","","","","","","","","75","K","2","","","213","main_expt","",""
"","bandit","303","917258","0.0-255.0-0.0","64555249","wem/bandit_party_1","A1YPDVVWHZWDZ9","either","7","855","","","","","","","0","0","1","","0.2421176173","0.4","0.6","0.2","0.8","0.4246209323","0.4643769008","0.2421176173","0.2138557204","","","","","","","","","","","","","","75","K","2","","","214","main_expt","",""
"","bandit","304","920124","0.0-256.0-0.0","64555249","wem/bandit_party_1","A1YPDVVWHZWDZ9","either","7","1246","","","","","","","0","0","1","","0.2629876012","0.4","0.6","0.2","0.8","0.3993057066","0.4328812357","0.2629876012","0.2142566612","","","","","","","","","","","","","","75","K","2","","","215","main_expt","",""
"","bandit","305","922553","0.0-257.0-0.0","64555249","wem/bandit_party_1","A1YPDVVWHZWDZ9","either","7","839","","","","","","","0","1","0","","0.2977714141","0.4","0.6","0.2","0.8","0.3987772474","0.4064507999","0.2977714141","0.1900351118","","","","","","","","","","","","","","75","K","2","","","216","main_expt","",""
"","bandit","306","926190","0.0-258.0-0.0","64555249","wem/bandit_party_1","A1YPDVVWHZWDZ9","either","7","2061","","","","","","","0","0","1","0.2185169477","","0.4","0.6","0.2","0.8","","","","","0.4101433534","0.4197961641","0.3017601552","0.2185169477","","","","","","","","","","76","L","3","","","217","main_expt","",""
"","bandit","307","930168","0.0-259.0-0.0","64555249","wem/bandit_party_1","A1YPDVVWHZWDZ9","either","7","2360","","","","","","","0","0","1","0.2240895604","","0.4","0.6","0.2","0.8","","","","","0.4448029092","0.4167397569","0.2888566207","0.2240895604","","","","","","","","","","76","L","3","","","218","main_expt","",""
"","bandit","308","932738","0.0-260.0-0.0","64555249","wem/bandit_party_1","A1YPDVVWHZWDZ9","either","7","965","","","","","","","0","0","1","0.1990808675","","0.4","0.6","0.2","0.8","","","","","0.4454766299","0.4250944588","0.2844008008","0.1990808675","","","","","","","","","","76","L","3","","","219","main_expt","",""
"","bandit","309","937299","0.0-261.0-0.0","64555249","wem/bandit_party_1","A1YPDVVWHZWDZ9","either","7","2946","","","","","","","0","0","1","0.266602996","","0.4","0.6","0.2","0.8","","","","","0.4610997771","0.4173336587","0.2225062479","0.266602996","","","","","","","","","","76","L","3","","","220","main_expt","",""
"","bandit","310","940656","0.0-262.0-0.0","64555249","wem/bandit_party_1","A1YPDVVWHZWDZ9","either","7","1766","","","","","","","1","0","0","0.2443661227","","0.4","0.6","0.2","0.8","","","","","0.4642289789","0.3944711005","0.2409900116","0.2443661227","","","","","","","","","","76","L","3","","","221","main_expt","",""
"","bandit","311","960010","0.0-263.0-0.0","64555249","wem/bandit_party_1","A1YPDVVWHZWDZ9","either","7","17713","","","","","","","0","1","0","","0.4641270597","0.4","0.6","0.2","0.8","0.4641270597","0.3619306912","0.1989678636","0.2205922116","","","","","","","","","","","","","","72","H","0","img/none_selected.jpg","","222","main_expt","",""
"","bandit","312","961694","0.0-264.0-0.0","64555249","wem/bandit_party_1","A1YPDVVWHZWDZ9","either","7","84","","","","","","","0","0","1","0.4117842179","","0.4","0.6","0.2","0.8","","","","","0.4697433819","0.4117842179","0.1902867071","0.1861223506","","","","","","","","","","74","J","1","","","223","main_expt","",""
"","bandit","313","964010","0.0-265.0-0.0","64555249","wem/bandit_party_1","A1YPDVVWHZWDZ9","either","7","692","","","","","","","0","0","1","0.3965092367","","0.4","0.6","0.2","0.8","","","","","0.460898083","0.3965092367","0.2076415522","0.1668884863","","","","","","","","","","74","J","1","","","224","main_expt","",""
"","bandit","314","966524","0.0-266.0-0.0","64555249","wem/bandit_party_1","A1YPDVVWHZWDZ9","either","7","911","","","","","","","0","0","1","0.4084477862","","0.4","0.6","0.2","0.8","","","","","0.4394890665","0.4084477862","0.2393469174","0.1481472712","","","","","","","","","","74","J","1","","","225","main_expt","",""
"","bandit","315","969889","0.0-267.0-0.0","64555249","wem/bandit_party_1","A1YPDVVWHZWDZ9","either","7","1787","","","","","","","0","1","0","","0.4104601526","0.4","0.6","0.2","0.8","0.4520955237","0.4104601526","0.2425440376","0.1140846591","","","","","","","","","","","","","","74","J","1","","","226","main_expt","",""
"","bandit","316","975144","0.0-268.0-0.0","64555249","wem/bandit_party_1","A1YPDVVWHZWDZ9","either","7","3662","","","","","","","1","0","0","0.3899733519","","0.4","0.6","0.2","0.8","","","","","0.4324220164","0.3899733519","0.2365603363","0.1074218354","","","","","","","","","","74","J","1","","","227","main_expt","",""
