"consent","trial_type","trial_index","time_elapsed","internal_node_id","subjID","study","MID","cond","drift","rt","responses","button_pressed","key_press","like","value","connected","gems","bombs","no_reward","GemPrChosen","BombPrChosen","GainOverPainPr_0","GainOverPainPr_1","GainOverPainPr_2","GainOverPainPr_3","LosePr_0","LosePr_1","LosePr_2","LosePr_3","WinPr_0","WinPr_1","WinPr_2","WinPr_3","Q0","Q1","Q2","gender","age","ethnicity","label","expt_phase","target","respCharCode","respKey","respChoiceNum","respChoice","practice","trial_counter","trial_label","Q0_index"
"GDM/GDM_behavioral_consent_30min_online.html","consent","0","54377","0.0-0.0","66125708","wem/bandit_party_1","ADXHWQLUQBK77","either","4","","","","","","","","","","","","","","","","","","","","","","","","","","","","","","","","","","","","","","","","",""
"","survey-text","1","103037","0.0-1.0","66125708","wem/bandit_party_1","ADXHWQLUQBK77","either","4","47649","{""Q0"":""ADXHWQLUQBK77""}","","","","","","","","","","","","","","","","","","","","","","","","","","","","","","","","","","","","","","",""
"","button-response","2","106365","0.0-2.0","66125708","wem/bandit_party_1","ADXHWQLUQBK77","either","4","2323","","1","","","","","","","","","","","","","","","","","","","","","","","","","","","","","","","","","","","","","",""
"","text-replacement","3","125505","0.0-3.0","66125708","wem/bandit_party_1","ADXHWQLUQBK77","either","4","18137","","","32","","","","","","","","","","","","","","","","","","","","","","","","","","","","","","","","","","","","",""
"","text-replacement","4","155810","0.0-4.0","66125708","wem/bandit_party_1","ADXHWQLUQBK77","either","4","30301","","","32","","","","","","","","","","","","","","","","","","","","","","","","","","","","","","","","","","","","",""
"","identification","5","169545","0.0-6.0-0.0","66125708","wem/bandit_party_1","ADXHWQLUQBK77","either","4","13716","","","","5","5","4","","","","","","","","","","","","","","","","","","","","","","","","pre","identification_pre","the Democratic Party","","","","","","","",""
"","identification","6","186249","0.0-6.0-1.0","66125708","wem/bandit_party_1","ADXHWQLUQBK77","either","4","15679","","","","3","2","1","","","","","","","","","","","","","","","","","","","","","","","","pre","identification_pre","the Republican party","","","","","","","",""
"","text-replacement","7","193463","0.0-7.0","66125708","wem/bandit_party_1","ADXHWQLUQBK77","either","4","6211","","","32","","","","","","","","","","","","","","","","","","","","","","","","","","","","","","","","","","","","",""
"","text-replacement","8","201242","0.0-8.0","66125708","wem/bandit_party_1","ADXHWQLUQBK77","either","4","7774","","","32","","","","","","","","","","","","","","","","","","","","","","","","","","","","","","","","","","","","",""
"","text-replacement","9","215458","0.0-9.0","66125708","wem/bandit_party_1","ADXHWQLUQBK77","either","4","14213","","","32","","","","","","","","","","","","","","","","","","","","","","","","","","","","","","","","","","","","",""
"","text-replacement","10","224234","0.0-10.0","66125708","wem/bandit_party_1","ADXHWQLUQBK77","either","4","8773","","","32","","","","","","","","","","","","","","","","","","","","","","","","","","","","","","","","","","","","",""
"","text-replacement","11","228636","0.0-11.0","66125708","wem/bandit_party_1","ADXHWQLUQBK77","either","4","4399","","","32","","","","","","","","","","","","","","","","","","","","","","","","","","","","","","","","","","","","",""
"","bandit","12","235225","0.0-12.0-0.0","66125708","wem/bandit_party_1","ADXHWQLUQBK77","either","4","5073","","","","","","","0","0","1","0","0","","","","","0","","","","0","","","","","","","","","","","","","74","J","0","img/none_selected_demo.jpg","true","0","",""
"","bandit","13","239942","0.0-13.0-0.0","66125708","wem/bandit_party_1","ADXHWQLUQBK77","either","4","3212","","","","","","","0","0","1","0","0","","","","","0","","","","0","","","","","","","","","","","","","75","K","0","img/none_selected_demo.jpg","true","0","",""
"","text-replacement","14","250761","0.0-14.0","66125708","wem/bandit_party_1","ADXHWQLUQBK77","either","4","10815","","","32","","","","","","","","","","","","","","","","","","","","","","","","","","","","","","","","","","","","",""
"","text-replacement","15","256674","0.0-15.0","66125708","wem/bandit_party_1","ADXHWQLUQBK77","either","4","5912","","","32","","","","","","","","","","","","","","","","","","","","","","","","","","","","","","","","","","","","",""
"","text-replacement","16","274504","0.0-16.0","66125708","wem/bandit_party_1","ADXHWQLUQBK77","either","4","17827","","","32","","","","","","","","","","","","","","","","","","","","","","","","","","","","","","","","","","","","",""
"","text-replacement","17","280502","0.0-17.0","66125708","wem/bandit_party_1","ADXHWQLUQBK77","either","4","5996","","","32","","","","","","","","","","","","","","","","","","","","","","","","","","","","","","","","","","","","",""
"","bandit","18","284326","0.0-18.0-0.0","66125708","wem/bandit_party_1","ADXHWQLUQBK77","either","4","2313","","","","","","","0","1","0","","0.8","0.5","0.5","","","0.8","0.2","","","","","","","","","","","","","","","","74","J","0","img/none_selected_demo.jpg","true","0","80_20_practice",""
"","bandit","19","288887","0.0-18.0-1.0","66125708","wem/bandit_party_1","ADXHWQLUQBK77","either","4","3052","","","","","","","0","0","1","0.8","","0.5","0.5","","","","","","","0.8","0.2","","","","","","","","","","","","74","J","0","img/none_selected_demo.jpg","true","0","80_20_practice",""
"","bandit","20","292118","0.0-18.0-2.0","66125708","wem/bandit_party_1","ADXHWQLUQBK77","either","4","1722","","","","","","","1","0","0","0.8","","0.5","0.5","","","","","","","0.8","0.2","","","","","","","","","","","","74","J","0","img/none_selected_demo.jpg","true","0","80_20_practice",""
"","bandit","21","294891","0.0-18.0-3.0","66125708","wem/bandit_party_1","ADXHWQLUQBK77","either","4","1265","","","","","","","1","0","0","0.8","","0.5","0.5","","","","","","","0.8","0.2","","","","","","","","","","","","74","J","0","img/none_selected_demo.jpg","true","0","80_20_practice",""
"","bandit","22","297381","0.0-18.0-4.0","66125708","wem/bandit_party_1","ADXHWQLUQBK77","either","4","982","","","","","","","1","0","0","0.8","","0.5","0.5","","","","","","","0.8","0.2","","","","","","","","","","","","74","J","0","img/none_selected_demo.jpg","true","0","80_20_practice",""
"","bandit","23","299832","0.0-18.0-5.0","66125708","wem/bandit_party_1","ADXHWQLUQBK77","either","4","945","","","","","","","1","0","0","0.8","","0.5","0.5","","","","","","","0.8","0.2","","","","","","","","","","","","74","J","0","img/none_selected_demo.jpg","true","0","80_20_practice",""
"","bandit","24","302250","0.0-18.0-6.0","66125708","wem/bandit_party_1","ADXHWQLUQBK77","either","4","911","","","","","","","0","1","0","","0.8","0.5","0.5","","","0.8","0.2","","","","","","","","","","","","","","","","74","J","0","img/none_selected_demo.jpg","true","0","80_20_practice",""
"","bandit","25","304447","0.0-18.0-7.0","66125708","wem/bandit_party_1","ADXHWQLUQBK77","either","4","688","","","","","","","0","0","1","","0.8","0.5","0.5","","","0.8","0.2","","","","","","","","","","","","","","","","74","J","0","img/none_selected_demo.jpg","true","0","80_20_practice",""
"","bandit","26","306423","0.0-18.0-8.0","66125708","wem/bandit_party_1","ADXHWQLUQBK77","either","4","466","","","","","","","0","1","0","","0.8","0.5","0.5","","","0.8","0.2","","","","","","","","","","","","","","","","74","J","0","img/none_selected_demo.jpg","true","0","80_20_practice",""
"","bandit","27","308334","0.0-18.0-9.0","66125708","wem/bandit_party_1","ADXHWQLUQBK77","either","4","402","","","","","","","1","0","0","0.8","","0.5","0.5","","","","","","","0.8","0.2","","","","","","","","","","","","74","J","0","img/none_selected_demo.jpg","true","0","80_20_practice",""
"","bandit","28","310241","0.0-18.0-10.0","66125708","wem/bandit_party_1","ADXHWQLUQBK77","either","4","398","","","","","","","1","0","0","0.8","","0.5","0.5","","","","","","","0.8","0.2","","","","","","","","","","","","74","J","0","img/none_selected_demo.jpg","true","0","80_20_practice",""
"","bandit","29","312548","0.0-18.0-11.0","66125708","wem/bandit_party_1","ADXHWQLUQBK77","either","4","795","","","","","","","1","0","0","0.8","","0.5","0.5","","","","","","","0.8","0.2","","","","","","","","","","","","74","J","0","img/none_selected_demo.jpg","true","0","80_20_practice",""
"","bandit","30","314525","0.0-18.0-12.0","66125708","wem/bandit_party_1","ADXHWQLUQBK77","either","4","469","","","","","","","0","1","0","","0.8","0.5","0.5","","","0.8","0.2","","","","","","","","","","","","","","","","74","J","0","img/none_selected_demo.jpg","true","0","80_20_practice",""
"","bandit","31","316522","0.0-18.0-13.0","66125708","wem/bandit_party_1","ADXHWQLUQBK77","either","4","489","","","","","","","1","0","0","0.8","","0.5","0.5","","","","","","","0.8","0.2","","","","","","","","","","","","74","J","0","img/none_selected_demo.jpg","true","0","80_20_practice",""
"","bandit","32","318386","0.0-18.0-14.0","66125708","wem/bandit_party_1","ADXHWQLUQBK77","either","4","356","","","","","","","1","0","0","0.8","","0.5","0.5","","","","","","","0.8","0.2","","","","","","","","","","","","74","J","0","img/none_selected_demo.jpg","true","0","80_20_practice",""
"","bandit","33","320296","0.0-18.0-15.0","66125708","wem/bandit_party_1","ADXHWQLUQBK77","either","4","397","","","","","","","0","1","0","","0.8","0.5","0.5","","","0.8","0.2","","","","","","","","","","","","","","","","74","J","0","img/none_selected_demo.jpg","true","0","80_20_practice",""
"","bandit","34","322191","0.0-18.0-16.0","66125708","wem/bandit_party_1","ADXHWQLUQBK77","either","4","385","","","","","","","1","0","0","0.8","","0.5","0.5","","","","","","","0.8","0.2","","","","","","","","","","","","74","J","0","img/none_selected_demo.jpg","true","0","80_20_practice",""
"","bandit","35","324125","0.0-18.0-17.0","66125708","wem/bandit_party_1","ADXHWQLUQBK77","either","4","427","","","","","","","1","0","0","0.8","","0.5","0.5","","","","","","","0.8","0.2","","","","","","","","","","","","74","J","0","img/none_selected_demo.jpg","true","0","80_20_practice",""
"","bandit","36","326057","0.0-18.0-18.0","66125708","wem/bandit_party_1","ADXHWQLUQBK77","either","4","425","","","","","","","1","0","0","0.8","","0.5","0.5","","","","","","","0.8","0.2","","","","","","","","","","","","74","J","0","img/none_selected_demo.jpg","true","0","80_20_practice",""
"","bandit","37","328220","0.0-18.0-19.0","66125708","wem/bandit_party_1","ADXHWQLUQBK77","either","4","656","","","","","","","0","1","0","","0.8","0.5","0.5","","","0.8","0.2","","","","","","","","","","","","","","","","74","J","0","img/none_selected_demo.jpg","true","0","80_20_practice",""
"","text-replacement","38","335390","0.0-19.0","66125708","wem/bandit_party_1","ADXHWQLUQBK77","either","4","7166","","","32","","","","","","","","","","","","","","","","","","","","","","","","","","","","","","","","","","","","",""
"","bandit","39","338408","0.0-20.0-0.0","66125708","wem/bandit_party_1","ADXHWQLUQBK77","either","4","1507","","","","","","","1","0","0","1","0","","","","","0","1","","","1","0","","","","","","","","","","","","74","J","0","img/none_selected_demo.jpg","true","0","",""
"","text-replacement","40","350672","0.0-21.0","66125708","wem/bandit_party_1","ADXHWQLUQBK77","either","4","12262","","","32","","","","","","","","","","","","","","","","","","","","","","","","","","","","","","","","","","","","",""
"","text-replacement","41","356427","0.0-22.0","66125708","wem/bandit_party_1","ADXHWQLUQBK77","either","4","5751","","","32","","","","","","","","","","","","","","","","","","","","","","","","","","","","","","","","","","","","",""
"","text-replacement","42","361680","0.0-23.0","66125708","wem/bandit_party_1","ADXHWQLUQBK77","either","4","5249","","","32","","","","","","","","","","","","","","","","","","","","","","","","","","","","","","","","","","","","",""
"","text-replacement","43","367428","0.0-24.0","66125708","wem/bandit_party_1","ADXHWQLUQBK77","either","4","5745","","","32","","","","","","","","","","","","","","","","","","","","","","","","","","","","","","","","","","","","",""
"","text-replacement","44","381353","0.0-25.0","66125708","wem/bandit_party_1","ADXHWQLUQBK77","either","4","13921","","","32","","","","","","","","","","","","","","","","","","","","","","","","","","","","","","","","","","","","",""
"","text-replacement","45","386516","0.0-26.0","66125708","wem/bandit_party_1","ADXHWQLUQBK77","either","4","5158","","","32","","","","","","","","","","","","","","","","","","","","","","","","","","","","","","","","","","","","",""
"","text-replacement","46","394599","0.0-27.0","66125708","wem/bandit_party_1","ADXHWQLUQBK77","either","4","8079","","","32","","","","","","","","","","","","","","","","","","","","","","","","","","","","","","","","","","","","",""
"","text-replacement","47","399493","0.0-28.0","66125708","wem/bandit_party_1","ADXHWQLUQBK77","either","4","4892","","","32","","","","","","","","","","","","","","","","","","","","","","","","","","","","","","","","","","","","",""
"","text-replacement","48","409699","0.0-29.0","66125708","wem/bandit_party_1","ADXHWQLUQBK77","either","4","10204","","","32","","","","","","","","","","","","","","","","","","","","","","","","","","","","","","","","","","","","",""
"","text-replacement","49","413604","0.0-30.0","66125708","wem/bandit_party_1","ADXHWQLUQBK77","either","4","3901","","","32","","","","","","","","","","","","","","","","","","","","","","","","","","","","","","","","","","","","",""
"","text-replacement","50","443298","0.0-31.0","66125708","wem/bandit_party_1","ADXHWQLUQBK77","either","4","29690","","","32","","","","","","","","","","","","","","","","","","","","","","","","","","","","","","","","","","","","",""
"","bandit","51","447513","0.0-32.0-0.0","66125708","wem/bandit_party_1","ADXHWQLUQBK77","either","4","2703","","","","","","","0","1","0","","0.8","0.5","0.5","0.5","0.5","0.8","0.2","0.6","0.2","","","","","","","","","","","","","","72","H","0","img/none_selected.jpg","true","0","full_practice",""
"","bandit","52","449521","0.0-32.0-1.0","66125708","wem/bandit_party_1","ADXHWQLUQBK77","either","4","496","","","","","","","0","1","0","","0.8","0.5","0.5","0.5","0.5","0.8","0.2","0.6","0.2","","","","","","","","","","","","","","72","H","0","img/none_selected.jpg","true","0","full_practice",""
"","bandit","53","451336","0.0-32.0-2.0","66125708","wem/bandit_party_1","ADXHWQLUQBK77","either","4","308","","","","","","","0","0","1","0.8","","0.5","0.5","0.5","0.5","","","","","0.8","0.2","0.6","0.2","","","","","","","","","","72","H","0","img/none_selected.jpg","true","0","full_practice",""
"","bandit","54","453535","0.0-32.0-3.0","66125708","wem/bandit_party_1","ADXHWQLUQBK77","either","4","689","","","","","","","0","1","0","","0.8","0.5","0.5","0.5","0.5","0.8","0.2","0.6","0.2","","","","","","","","","","","","","","72","H","0","img/none_selected.jpg","true","0","full_practice",""
"","bandit","55","455406","0.0-32.0-4.0","66125708","wem/bandit_party_1","ADXHWQLUQBK77","either","4","361","","","","","","","1","0","0","0.8","","0.5","0.5","0.5","0.5","","","","","0.8","0.2","0.6","0.2","","","","","","","","","","72","H","0","img/none_selected.jpg","true","0","full_practice",""
"","bandit","56","457229","0.0-32.0-5.0","66125708","wem/bandit_party_1","ADXHWQLUQBK77","either","4","312","","","","","","","0","1","0","","0.8","0.5","0.5","0.5","0.5","0.8","0.2","0.6","0.2","","","","","","","","","","","","","","72","H","0","img/none_selected.jpg","true","0","full_practice",""
"","bandit","57","459056","0.0-32.0-6.0","66125708","wem/bandit_party_1","ADXHWQLUQBK77","either","4","316","","","","","","","0","1","0","","0.8","0.5","0.5","0.5","0.5","0.8","0.2","0.6","0.2","","","","","","","","","","","","","","72","H","0","img/none_selected.jpg","true","0","full_practice",""
"","bandit","58","460889","0.0-32.0-7.0","66125708","wem/bandit_party_1","ADXHWQLUQBK77","either","4","325","","","","","","","0","0","1","","0.8","0.5","0.5","0.5","0.5","0.8","0.2","0.6","0.2","","","","","","","","","","","","","","72","H","0","img/none_selected.jpg","true","0","full_practice",""
"","bandit","59","463494","0.0-32.0-8.0","66125708","wem/bandit_party_1","ADXHWQLUQBK77","either","4","1097","","","","","","","0","0","1","0.2","","0.5","0.5","0.5","0.5","","","","","0.8","0.2","0.6","0.2","","","","","","","","","","74","J","1","","true","0","full_practice",""
"","bandit","60","465108","0.0-32.0-9.0","66125708","wem/bandit_party_1","ADXHWQLUQBK77","either","4","104","","","","","","","0","0","1","0.6","","0.5","0.5","0.5","0.5","","","","","0.8","0.2","0.6","0.2","","","","","","","","","","75","K","2","","true","0","full_practice",""
"","bandit","61","466897","0.0-32.0-10.0","66125708","wem/bandit_party_1","ADXHWQLUQBK77","either","4","282","","","","","","","0","0","1","","0.2","0.5","0.5","0.5","0.5","0.8","0.2","0.6","0.2","","","","","","","","","","","","","","76","L","3","","true","0","full_practice",""
"","bandit","62","470917","0.0-32.0-11.0","66125708","wem/bandit_party_1","ADXHWQLUQBK77","either","4","2510","","","","","","","0","0","1","0.2","","0.5","0.5","0.5","0.5","","","","","0.8","0.2","0.6","0.2","","","","","","","","","","74","J","1","","true","0","full_practice",""
"","bandit","63","474225","0.0-32.0-12.0","66125708","wem/bandit_party_1","ADXHWQLUQBK77","either","4","1802","","","","","","","0","1","0","","0.8","0.5","0.5","0.5","0.5","0.8","0.2","0.6","0.2","","","","","","","","","","","","","","72","H","0","img/none_selected.jpg","true","0","full_practice",""
"","bandit","64","476068","0.0-32.0-13.0","66125708","wem/bandit_party_1","ADXHWQLUQBK77","either","4","335","","","","","","","0","1","0","","0.8","0.5","0.5","0.5","0.5","0.8","0.2","0.6","0.2","","","","","","","","","","","","","","72","H","0","img/none_selected.jpg","true","0","full_practice",""
"","bandit","65","477874","0.0-32.0-14.0","66125708","wem/bandit_party_1","ADXHWQLUQBK77","either","4","297","","","","","","","0","1","0","","0.8","0.5","0.5","0.5","0.5","0.8","0.2","0.6","0.2","","","","","","","","","","","","","","72","H","0","img/none_selected.jpg","true","0","full_practice",""
"","bandit","66","479712","0.0-32.0-15.0","66125708","wem/bandit_party_1","ADXHWQLUQBK77","either","4","331","","","","","","","0","1","0","","0.8","0.5","0.5","0.5","0.5","0.8","0.2","0.6","0.2","","","","","","","","","","","","","","72","H","0","img/none_selected.jpg","true","0","full_practice",""
"","bandit","67","481572","0.0-32.0-16.0","66125708","wem/bandit_party_1","ADXHWQLUQBK77","either","4","350","","","","","","","1","0","0","0.8","","0.5","0.5","0.5","0.5","","","","","0.8","0.2","0.6","0.2","","","","","","","","","","72","H","0","img/none_selected.jpg","true","0","full_practice",""
"","bandit","68","483394","0.0-32.0-17.0","66125708","wem/bandit_party_1","ADXHWQLUQBK77","either","4","311","","","","","","","1","0","0","0.8","","0.5","0.5","0.5","0.5","","","","","0.8","0.2","0.6","0.2","","","","","","","","","","72","H","0","img/none_selected.jpg","true","0","full_practice",""
"","bandit","69","485242","0.0-32.0-18.0","66125708","wem/bandit_party_1","ADXHWQLUQBK77","either","4","336","","","","","","","0","1","0","","0.8","0.5","0.5","0.5","0.5","0.8","0.2","0.6","0.2","","","","","","","","","","","","","","72","H","0","img/none_selected.jpg","true","0","full_practice",""
"","bandit","70","487075","0.0-32.0-19.0","66125708","wem/bandit_party_1","ADXHWQLUQBK77","either","4","324","","","","","","","0","1","0","","0.8","0.5","0.5","0.5","0.5","0.8","0.2","0.6","0.2","","","","","","","","","","","","","","72","H","0","img/none_selected.jpg","true","0","full_practice",""
"","text","71","493197","0.0-33.0","66125708","wem/bandit_party_1","ADXHWQLUQBK77","either","4","6103","","","32","","","","","","","","","","","","","","","","","","","","","","","","","","","","","","","","","","","","",""
"","text-replacement","72","521925","0.0-34.0","66125708","wem/bandit_party_1","ADXHWQLUQBK77","either","4","27722","","","32","","","","","","","","","","","","","","","","","","","","","","","","","","","","","","","","","","","","",""
"","text-replacement","73","536807","0.0-35.0","66125708","wem/bandit_party_1","ADXHWQLUQBK77","either","4","14878","","","32","","","","","","","","","","","","","","","","","","","","","","","","","","","","","","","","","","","","",""
"","text-replacement","74","545619","0.0-36.0","66125708","wem/bandit_party_1","ADXHWQLUQBK77","either","4","8810","","","32","","","","","","","","","","","","","","","","","","","","","","","","","","","","","","","","","","","","",""
"","text-replacement","75","554976","0.0-37.0","66125708","wem/bandit_party_1","ADXHWQLUQBK77","either","4","9351","","","32","","","","","","","","","","","","","","","","","","","","","","","","","","","","","","","","","","","","",""
"","text-replacement","76","564986","0.0-38.0","66125708","wem/bandit_party_1","ADXHWQLUQBK77","either","4","10005","","","32","","","","","","","","","","","","","","","","","","","","","","","","","","","","","","","","","","","","",""
"","survey-multi-choice-replacement","77","577847","0.0-39.0-0.0","66125708","wem/bandit_party_1","ADXHWQLUQBK77","either","4","12845","","","","","","","","","","","","","","","","","","","","","","","","Money will be added to the pool for <span style='color:blue;'>DEMOCRATS</span>","","","","","","","attn_check","","","","","","","","","0"
"","survey-multi-choice-replacement","78","586516","0.0-40.0-0.0","66125708","wem/bandit_party_1","ADXHWQLUQBK77","either","4","7654","","","","","","","","","","","","","","","","","","","","","","","","Equal amounts of money will be added to the pool for <span style='color:blue;'>DEMOCRATS</span> and subtracted from the pool for <span style='color:red;'>REPUBLICANS</span>","","","","","","","attn_check","","","","","","","","","2"
"","survey-multi-choice-replacement","79","591498","0.0-41.0-0.0","66125708","wem/bandit_party_1","ADXHWQLUQBK77","either","4","3966","","","","","","","","","","","","","","","","","","","","","","","","No money will be added to either pool","","","","","","","attn_check","","","","","","","","","3"
"","bandit","80","598073","0.0-42.0-0.0","66125708","wem/bandit_party_1","ADXHWQLUQBK77","either","4","4060","","","","","","","0","1","0","","0.3894728165","0.6","0.8","0.4","0.2","0.2771551185","0.3525715257","0.3894728165","0.3242650943","","","","","","","","","","","","","","75","K","2","","","1","main_expt",""
"","bandit","81","600106","0.0-43.0-0.0","66125708","wem/bandit_party_1","ADXHWQLUQBK77","either","4","521","","","","","","","0","0","1","","0.363660736","0.6","0.8","0.4","0.2","0.3030893157","0.390153736","0.363660736","0.3296228245","","","","","","","","","","","","","","75","K","2","","","2","main_expt",""
"","bandit","82","602094","0.0-44.0-0.0","66125708","wem/bandit_party_1","ADXHWQLUQBK77","either","4","476","","","","","","","0","0","1","","0.3842171554","0.6","0.8","0.4","0.2","0.3211059343","0.3725447061","0.3842171554","0.3102780753","","","","","","","","","","","","","","75","K","2","","","3","main_expt",""
"","bandit","83","604043","0.0-45.0-0.0","66125708","wem/bandit_party_1","ADXHWQLUQBK77","either","4","438","","","","","","","0","1","0","","0.2749892112","0.6","0.8","0.4","0.2","0.2804386453","0.3431524481","0.3831963053","0.2749892112","","","","","","","","","","","","","","76","L","3","","","4","main_expt",""
"","bandit","84","605940","0.0-46.0-0.0","66125708","wem/bandit_party_1","ADXHWQLUQBK77","either","4","386","","","","","","","0","0","1","","0.3037824898","0.6","0.8","0.4","0.2","0.2609559086","0.3448007793","0.4056596471","0.3037824898","","","","","","","","","","","","","","76","L","3","","","5","main_expt",""
"","bandit","85","607849","0.0-47.0-0.0","66125708","wem/bandit_party_1","ADXHWQLUQBK77","either","4","400","","","","","","","0","1","0","","0.3217417103","0.6","0.8","0.4","0.2","0.2259287768","0.3980888019","0.4409946319","0.3217417103","","","","","","","","","","","","","","76","L","3","","","6","main_expt",""
"","bandit","86","609663","0.0-48.0-0.0","66125708","wem/bandit_party_1","ADXHWQLUQBK77","either","4","304","","","","","","","0","0","1","","0.3018715163","0.6","0.8","0.4","0.2","0.2433618728","0.3693121862","0.3821747998","0.3018715163","","","","","","","","","","","","","","76","L","3","","","7","main_expt",""
"","bandit","87","614023","0.0-49.0-0.0","66125708","wem/bandit_party_1","ADXHWQLUQBK77","either","4","2849","","","","","","","1","0","0","0.2933697555","","0.6","0.8","0.4","0.2","","","","","0.2025356769","0.2933697555","0.3841844813","0.3643645816","","","","","","","","","","74","J","1","","","8","main_expt",""
"","bandit","88","615894","0.0-50.0-0.0","66125708","wem/bandit_party_1","ADXHWQLUQBK77","either","4","363","","","","","","","0","0","1","0.3036212831","","0.6","0.8","0.4","0.2","","","","","0.1441028094","0.3036212831","0.3412237964","0.3418610374","","","","","","","","","","74","J","1","","","9","main_expt",""
"","bandit","89","617672","0.0-51.0-0.0","66125708","wem/bandit_party_1","ADXHWQLUQBK77","either","4","266","","","","","","","1","0","0","0.308020301","","0.6","0.8","0.4","0.2","","","","","0.1736005971","0.308020301","0.3256420777","0.3190157878","","","","","","","","","","74","J","1","","","10","main_expt",""
"","bandit","90","619264","0.0-52.0-0.0","66125708","wem/bandit_party_1","ADXHWQLUQBK77","either","4","84","","","","","","","0","0","1","0.3065973113","","0.6","0.8","0.4","0.2","","","","","0.1836365694","0.3065973113","0.3514007431","0.2998731478","","","","","","","","","","74","J","1","","","11","main_expt",""
"","bandit","91","621201","0.0-53.0-0.0","66125708","wem/bandit_party_1","ADXHWQLUQBK77","either","4","427","","","","","","","0","0","1","","0.2143869662","0.6","0.8","0.4","0.2","0.2143869662","0.3271859636","0.3722032088","0.2942822571","","","","","","","","","","","","","","72","H","0","img/none_selected.jpg","","12","main_expt",""
"","bandit","92","622795","0.0-54.0-0.0","66125708","wem/bandit_party_1","ADXHWQLUQBK77","either","4","85","","","","","","","0","0","1","","0.1637139448","0.6","0.8","0.4","0.2","0.1637139448","0.2761076709","0.3681707299","0.3009212619","","","","","","","","","","","","","","72","H","0","img/none_selected.jpg","","13","main_expt",""
"","bandit","93","625090","0.0-55.0-0.0","66125708","wem/bandit_party_1","ADXHWQLUQBK77","either","4","787","","","","","","","0","0","1","0.2311164494","","0.6","0.8","0.4","0.2","","","","","0.1488535162","0.2311164494","0.3528222564","0.3227424667","","","","","","","","","","74","J","1","","","14","main_expt",""
"","bandit","94","626631","0.0-56.0-0.0","66125708","wem/bandit_party_1","ADXHWQLUQBK77","either","4","32","","","","","","","0","0","1","0.3547546862","","0.6","0.8","0.4","0.2","","","","","0.1332411271","0.2905977425","0.3738838661","0.3547546862","","","","","","","","","","76","L","3","","","15","main_expt",""
"","bandit","95","628466","0.0-57.0-0.0","66125708","wem/bandit_party_1","ADXHWQLUQBK77","either","4","328","","","","","","","0","1","0","","0.3385239332","0.6","0.8","0.4","0.2","0.09882415698","0.2924554969","0.3385239332","0.3241157583","","","","","","","","","","","","","","75","K","2","","","16","main_expt",""
"","bandit","96","630105","0.0-58.0-0.0","66125708","wem/bandit_party_1","ADXHWQLUQBK77","either","4","130","","","","","","","1","0","0","0.3111355138","","0.6","0.8","0.4","0.2","","","","","0.1069157009","0.3114836302","0.3111355138","0.3363410386","","","","","","","","","","75","K","2","","","17","main_expt",""
"","bandit","97","631734","0.0-59.0-0.0","66125708","wem/bandit_party_1","ADXHWQLUQBK77","either","4","116","","","","","","","0","1","0","","0.3487767647","0.6","0.8","0.4","0.2","0.134958137","0.3215333475","0.3487767647","0.3880947854","","","","","","","","","","","","","","75","K","2","","","18","main_expt",""
"","bandit","98","633284","0.0-60.0-0.0","66125708","wem/bandit_party_1","ADXHWQLUQBK77","either","4","38","","","","","","","0","0","1","0.3010303499","","0.6","0.8","0.4","0.2","","","","","0.1230418706","0.2733398822","0.3010303499","0.4116912081","","","","","","","","","","75","K","2","","","19","main_expt",""
"","bandit","99","634867","0.0-61.0-0.0","66125708","wem/bandit_party_1","ADXHWQLUQBK77","either","4","70","","","","","","","0","0","1","0.2907203997","","0.6","0.8","0.4","0.2","","","","","0.09866604889","0.2351410235","0.2907203997","0.3973894305","","","","","","","","","","75","K","2","","","20","main_expt",""
"","bandit","100","636575","0.0-62.0-0.0","66125708","wem/bandit_party_1","ADXHWQLUQBK77","either","4","198","","","","","","","0","0","1","","0.3088108907","0.6","0.8","0.4","0.2","0.1021222834","0.2257810982","0.3088108907","0.369037109","","","","","","","","","","","","","","75","K","2","","","21","main_expt",""
"","bandit","101","638278","0.0-63.0-0.0","66125708","wem/bandit_party_1","ADXHWQLUQBK77","either","4","193","","","","","","","0","0","1","","0.4179468344","0.6","0.8","0.4","0.2","0.1234138809","0.2221856846","0.349202701","0.4179468344","","","","","","","","","","","","","","76","L","3","","","22","main_expt",""
"","bandit","102","640345","0.0-64.0-0.0","66125708","wem/bandit_party_1","ADXHWQLUQBK77","either","4","559","","","","","","","0","0","1","0.1030640584","","0.6","0.8","0.4","0.2","","","","","0.1030640584","0.2127124712","0.3785068464","0.4276062926","","","","","","","","","","72","H","0","img/none_selected.jpg","","23","main_expt",""
"","bandit","103","643220","0.0-65.0-0.0","66125708","wem/bandit_party_1","ADXHWQLUQBK77","either","4","1363","","","","","","","0","0","1","0.1882566648","","0.6","0.8","0.4","0.2","","","","","0.1261035851","0.1882566648","0.4012919653","0.4078122208","","","","","","","","","","74","J","1","","","24","main_expt",""
"","bandit","104","644761","0.0-66.0-0.0","66125708","wem/bandit_party_1","ADXHWQLUQBK77","either","4","30","","","","","","","0","0","1","","0.1273223766","0.6","0.8","0.4","0.2","0.1796705612","0.1273223766","0.400899794","0.3950411191","","","","","","","","","","","","","","74","J","1","","","25","main_expt",""
"","bandit","105","647220","0.0-67.0-0.0","66125708","wem/bandit_party_1","ADXHWQLUQBK77","either","4","946","","","","","","","1","0","0","0.4126274585","","0.6","0.8","0.4","0.2","","","","","0.2414651519","0.15747458","0.4126274585","0.4322303329","","","","","","","","","","75","K","2","","","26","main_expt",""
"","bandit","106","649867","0.0-68.0-0.0","66125708","wem/bandit_party_1","ADXHWQLUQBK77","either","4","1136","","","","","","","0","0","1","","0.3992263875","0.6","0.8","0.4","0.2","0.2005374927","0.1442684908","0.3992263875","0.4353643722","","","","","","","","","","","","","","75","K","2","","","27","main_expt",""
"","bandit","107","651894","0.0-69.0-0.0","66125708","wem/bandit_party_1","ADXHWQLUQBK77","either","4","517","","","","","","","0","0","1","0.3846584236","","0.6","0.8","0.4","0.2","","","","","0.3197257227","0.2255404594","0.3846584236","0.4464017809","","","","","","","","","","75","K","2","","","28","main_expt",""
"","bandit","108","654716","0.0-70.0-0.0","66125708","wem/bandit_party_1","ADXHWQLUQBK77","either","4","1313","","","","","","","0","0","1","","0.4417109462","0.6","0.8","0.4","0.2","0.3141869899","0.2730951691","0.3561298134","0.4417109462","","","","","","","","","","","","","","76","L","3","","","29","main_expt",""
"","bandit","109","657354","0.0-71.0-0.0","66125708","wem/bandit_party_1","ADXHWQLUQBK77","either","4","1128","","","","","","","1","0","0","0.3445991012","","0.6","0.8","0.4","0.2","","","","","0.3445991012","0.2890412698","0.3101363315","0.4065908859","","","","","","","","","","72","H","0","img/none_selected.jpg","","30","main_expt",""
"","bandit","110","659513","0.0-72.0-0.0","66125708","wem/bandit_party_1","ADXHWQLUQBK77","either","4","646","","","","","","","1","0","0","0.3456655029","","0.6","0.8","0.4","0.2","","","","","0.3456655029","0.3309226042","0.3322219809","0.3954582793","","","","","","","","","","72","H","0","img/none_selected.jpg","","31","main_expt",""
"","bandit","111","661517","0.0-73.0-0.0","66125708","wem/bandit_party_1","ADXHWQLUQBK77","either","4","488","","","","","","","1","0","0","0.3826172224","","0.6","0.8","0.4","0.2","","","","","0.3826172224","0.3519301717","0.3516269472","0.3716723047","","","","","","","","","","72","H","0","img/none_selected.jpg","","32","main_expt",""
"","bandit","112","663468","0.0-74.0-0.0","66125708","wem/bandit_party_1","ADXHWQLUQBK77","either","4","440","","","","","","","0","0","1","0.3804083149","","0.6","0.8","0.4","0.2","","","","","0.3804083149","0.3414953842","0.3852085553","0.3799724366","","","","","","","","","","72","H","0","img/none_selected.jpg","","33","main_expt",""
"","bandit","113","665408","0.0-75.0-0.0","66125708","wem/bandit_party_1","ADXHWQLUQBK77","either","4","427","","","","","","","0","0","1","0.3808178469","","0.6","0.8","0.4","0.2","","","","","0.3808178469","0.2938412915","0.4196644934","0.409480615","","","","","","","","","","72","H","0","img/none_selected.jpg","","34","main_expt",""
"","bandit","114","667291","0.0-76.0-0.0","66125708","wem/bandit_party_1","ADXHWQLUQBK77","either","4","366","","","","","","","0","0","1","0.376129724","","0.6","0.8","0.4","0.2","","","","","0.376129724","0.2256616696","0.420891004","0.3869649509","","","","","","","","","","72","H","0","img/none_selected.jpg","","35","main_expt",""
"","bandit","115","669095","0.0-77.0-0.0","66125708","wem/bandit_party_1","ADXHWQLUQBK77","either","4","294","","","","","","","0","0","1","","0.2525957923","0.6","0.8","0.4","0.2","0.4027809904","0.2525957923","0.3808881167","0.3045389962","","","","","","","","","","","","","","74","J","1","","","36","main_expt",""
"","bandit","116","671111","0.0-78.0-0.0","66125708","wem/bandit_party_1","ADXHWQLUQBK77","either","4","504","","","","","","","0","0","1","","0.3634360393","0.6","0.8","0.4","0.2","0.3715556026","0.2333373749","0.3634360393","0.2954217214","","","","","","","","","","","","","","75","K","2","","","37","main_expt",""
"","bandit","117","672896","0.0-79.0-0.0","66125708","wem/bandit_party_1","ADXHWQLUQBK77","either","4","276","","","","","","","0","0","1","0.2749906923","","0.6","0.8","0.4","0.2","","","","","0.354842885","0.2126884676","0.3432691328","0.2749906923","","","","","","","","","","76","L","3","","","38","main_expt",""
"","bandit","118","675248","0.0-80.0-0.0","66125708","wem/bandit_party_1","ADXHWQLUQBK77","either","4","839","","","","","","","0","1","0","","0.2911873598","0.6","0.8","0.4","0.2","0.3066825603","0.212498526","0.3113322025","0.2911873598","","","","","","","","","","","","","","76","L","3","","","39","main_expt",""
"","bandit","119","677076","0.0-81.0-0.0","66125708","wem/bandit_party_1","ADXHWQLUQBK77","either","4","317","","","","","","","0","1","0","","0.3066149412","0.6","0.8","0.4","0.2","0.3208648015","0.2031275136","0.3298138996","0.3066149412","","","","","","","","","","","","","","76","L","3","","","40","main_expt",""
"","bandit","120","679209","0.0-82.0-0.0","66125708","wem/bandit_party_1","ADXHWQLUQBK77","either","4","621","","","","","","","1","0","0","0.2612722093","","0.6","0.8","0.4","0.2","","","","","0.2774570704","0.2409224204","0.3590557929","0.2612722093","","","","","","","","","","76","L","3","","","41","main_expt",""
"","bandit","121","681157","0.0-83.0-0.0","66125708","wem/bandit_party_1","ADXHWQLUQBK77","either","4","440","","","","","","","0","0","1","","0.2579482203","0.6","0.8","0.4","0.2","0.3092882543","0.2166695961","0.3455434044","0.2579482203","","","","","","","","","","","","","","76","L","3","","","42","main_expt",""
"","bandit","122","683421","0.0-84.0-0.0","66125708","wem/bandit_party_1","ADXHWQLUQBK77","either","4","751","","","","","","","0","0","1","","0.2232302517","0.6","0.8","0.4","0.2","0.3161251671","0.2314197793","0.4020043176","0.2232302517","","","","","","","","","","","","","","76","L","3","","","43","main_expt",""
"","bandit","123","686788","0.0-85.0-0.0","66125708","wem/bandit_party_1","ADXHWQLUQBK77","either","4","1855","","","","","","","0","0","1","","0.3032549762","0.6","0.8","0.4","0.2","0.3032549762","0.1889371852","0.4088695108","0.2435669349","","","","","","","","","","","","","","72","H","0","img/none_selected.jpg","","44","main_expt",""
"","bandit","124","688603","0.0-86.0-0.0","66125708","wem/bandit_party_1","ADXHWQLUQBK77","either","4","302","","","","","","","0","0","1","0.2152104473","","0.6","0.8","0.4","0.2","","","","","0.3012359134","0.2152104473","0.3914045207","0.1885724617","","","","","","","","","","74","J","1","","","45","main_expt",""
"","bandit","125","690571","0.0-87.0-0.0","66125708","wem/bandit_party_1","ADXHWQLUQBK77","either","4","457","","","","","","","0","0","1","0.3682142312","","0.6","0.8","0.4","0.2","","","","","0.2994346937","0.2260726972","0.3682142312","0.104230756","","","","","","","","","","75","K","2","","","46","main_expt",""
"","bandit","126","692528","0.0-88.0-0.0","66125708","wem/bandit_party_1","ADXHWQLUQBK77","either","4","444","","","","","","","0","0","1","0.2330399618","","0.6","0.8","0.4","0.2","","","","","0.3169549043","0.2330399618","0.3462276735","0.09013225529","","","","","","","","","","74","J","1","","","47","main_expt",""
"","bandit","127","694313","0.0-89.0-0.0","66125708","wem/bandit_party_1","ADXHWQLUQBK77","either","4","272","","","","","","","0","0","1","0.3137179834","","0.6","0.8","0.4","0.2","","","","","0.3137179834","0.2769685944","0.3501405617","0.1066227192","","","","","","","","","","72","H","0","img/none_selected.jpg","","48","main_expt",""
"","bandit","128","696798","0.0-90.0-0.0","66125708","wem/bandit_party_1","ADXHWQLUQBK77","either","4","975","","","","","","","0","0","1","","0.1273062614","0.6","0.8","0.4","0.2","0.3026837323","0.2954986192","0.3607669766","0.1273062614","","","","","","","","","","","","","","76","L","3","","","49","main_expt",""
"","bandit","129","698441","0.0-91.0-0.0","66125708","wem/bandit_party_1","ADXHWQLUQBK77","either","4","135","","","","","","","0","0","1","0.08158159543","","0.6","0.8","0.4","0.2","","","","","0.2690248343","0.2730110453","0.3776327681","0.08158159543","","","","","","","","","","76","L","3","","","50","main_expt",""
"","bandit","130","700370","0.0-92.0-0.0","66125708","wem/bandit_party_1","ADXHWQLUQBK77","either","4","421","","","","","","","0","0","1","","0.3922012959","0.6","0.8","0.4","0.2","0.2407215714","0.2672659715","0.3922012959","0.08035098666","","","","","","","","","","","","","","75","K","2","","","51","main_expt",""
"","bandit","131","702177","0.0-93.0-0.0","66125708","wem/bandit_party_1","ADXHWQLUQBK77","either","4","300","","","","","","","0","0","1","0.3532085343","","0.6","0.8","0.4","0.2","","","","","0.2758158767","0.2552972095","0.3532085343","0.1007468434","","","","","","","","","","75","K","2","","","52","main_expt",""
"","bandit","132","703940","0.0-94.0-0.0","66125708","wem/bandit_party_1","ADXHWQLUQBK77","either","4","251","","","","","","","0","0","1","0.1954439593","","0.6","0.8","0.4","0.2","","","","","0.2661511239","0.1954439593","0.3597378762","0.1479770317","","","","","","","","","","74","J","1","","","53","main_expt",""
"","bandit","133","705750","0.0-95.0-0.0","66125708","wem/bandit_party_1","ADXHWQLUQBK77","either","4","298","","","","","","","0","0","1","","0.250303373","0.6","0.8","0.4","0.2","0.250303373","0.1250298759","0.3553644404","0.1450389045","","","","","","","","","","","","","","72","H","0","img/none_selected.jpg","","54","main_expt",""
"","bandit","134","707663","0.0-96.0-0.0","66125708","wem/bandit_party_1","ADXHWQLUQBK77","either","4","405","","","","","","","0","1","0","","0.1850572083","0.6","0.8","0.4","0.2","0.1850572083","0.1224949652","0.3427354451","0.1678096349","","","","","","","","","","","","","","72","H","0","img/none_selected.jpg","","55","main_expt",""
"","bandit","135","709538","0.0-97.0-0.0","66125708","wem/bandit_party_1","ADXHWQLUQBK77","either","4","367","","","","","","","0","1","0","","0.2410157884","0.6","0.8","0.4","0.2","0.2410157884","0.1312048923","0.3158877586","0.1748395718","","","","","","","","","","","","","","72","H","0","img/none_selected.jpg","","56","main_expt",""
"","bandit","136","711587","0.0-98.0-0.0","66125708","wem/bandit_party_1","ADXHWQLUQBK77","either","4","538","","","","","","","1","0","0","0.2657224069","","0.6","0.8","0.4","0.2","","","","","0.2657224069","0.14452077","0.3224611445","0.146986137","","","","","","","","","","72","H","0","img/none_selected.jpg","","57","main_expt",""
"","bandit","137","713565","0.0-99.0-0.0","66125708","wem/bandit_party_1","ADXHWQLUQBK77","either","4","469","","","","","","","0","0","1","","0.2361308133","0.6","0.8","0.4","0.2","0.2361308133","0.1198415177","0.3378672788","0.1316135006","","","","","","","","","","","","","","72","H","0","img/none_selected.jpg","","58","main_expt",""
"","bandit","138","715612","0.0-100.0-0.0","66125708","wem/bandit_party_1","ADXHWQLUQBK77","either","4","534","","","","","","","0","0","1","0.2078360154","","0.6","0.8","0.4","0.2","","","","","0.2078360154","0.1674914914","0.3438075972","0.1776120447","","","","","","","","","","72","H","0","img/none_selected.jpg","","59","main_expt",""
"","bandit","139","717444","0.0-101.0-0.0","66125708","wem/bandit_party_1","ADXHWQLUQBK77","either","4","319","","","","","","","0","1","0","","0.2034864675","0.6","0.8","0.4","0.2","0.2256957235","0.147959707","0.2950987239","0.2034864675","","","","","","","","","","","","","","76","L","3","","","60","main_expt",""
"","bandit","140","719302","0.0-102.0-0.0","66125708","wem/bandit_party_1","ADXHWQLUQBK77","either","4","350","","","","","","","0","0","1","","0.1325668513","0.6","0.8","0.4","0.2","0.2713547376","0.1217284172","0.2939622289","0.1325668513","","","","","","","","","","","","","","76","L","3","","","61","main_expt",""
"","bandit","141","721884","0.0-103.0-0.0","66125708","wem/bandit_party_1","ADXHWQLUQBK77","either","4","1069","","","","","","","0","0","1","0.125492747","","0.6","0.8","0.4","0.2","","","","","0.2800078023","0.1392905859","0.2907096119","0.125492747","","","","","","","","","","76","L","3","","","62","main_expt",""
"","bandit","142","723762","0.0-104.0-0.0","66125708","wem/bandit_party_1","ADXHWQLUQBK77","either","4","365","","","","","","","0","0","1","","0.2696382907","0.6","0.8","0.4","0.2","0.362183352","0.1953314019","0.2696382907","0.1081989139","","","","","","","","","","","","","","75","K","2","","","63","main_expt",""
"","bandit","143","725839","0.0-105.0-0.0","66125708","wem/bandit_party_1","ADXHWQLUQBK77","either","4","566","","","","","","","0","0","1","0.2618523415","","0.6","0.8","0.4","0.2","","","","","0.3354395381","0.2618523415","0.2496415039","0.09104284411","","","","","","","","","","74","J","1","","","64","main_expt",""
"","bandit","144","727690","0.0-106.0-0.0","66125708","wem/bandit_party_1","ADXHWQLUQBK77","either","4","339","","","","","","","0","0","1","","0.2364994079","0.6","0.8","0.4","0.2","0.2893845237","0.2686672798","0.2364994079","0.1264903162","","","","","","","","","","","","","","75","K","2","","","65","main_expt",""
"","bandit","145","729577","0.0-107.0-0.0","66125708","wem/bandit_party_1","ADXHWQLUQBK77","either","4","373","","","","","","","0","0","1","","0.2355717356","0.6","0.8","0.4","0.2","0.2355717356","0.2451656397","0.2541683514","0.1665937301","","","","","","","","","","","","","","72","H","0","img/none_selected.jpg","","66","main_expt",""
"","bandit","146","731866","0.0-108.0-0.0","66125708","wem/bandit_party_1","ADXHWQLUQBK77","either","4","776","","","","","","","0","1","0","","0.2848755716","0.6","0.8","0.4","0.2","0.2848755716","0.2445320338","0.2985471382","0.1740025863","","","","","","","","","","","","","","72","H","0","img/none_selected.jpg","","67","main_expt",""
"","bandit","147","733886","0.0-109.0-0.0","66125708","wem/bandit_party_1","ADXHWQLUQBK77","either","4","506","","","","","","","1","0","0","0.3341158043","","0.6","0.8","0.4","0.2","","","","","0.3341158043","0.2261158315","0.3391290389","0.2300011382","","","","","","","","","","72","H","0","img/none_selected.jpg","","68","main_expt",""
"","bandit","148","736014","0.0-110.0-0.0","66125708","wem/bandit_party_1","ADXHWQLUQBK77","either","4","619","","","","","","","0","0","1","","0.3253412689","0.6","0.8","0.4","0.2","0.3253412689","0.1627286519","0.3114764975","0.1768594062","","","","","","","","","","","","","","72","H","0","img/none_selected.jpg","","69","main_expt",""
"","bandit","149","738505","0.0-111.0-0.0","66125708","wem/bandit_party_1","ADXHWQLUQBK77","either","4","979","","","","","","","0","0","1","0.3280915152","","0.6","0.8","0.4","0.2","","","","","0.3280915152","0.1301009224","0.3056328376","0.1906145184","","","","","","","","","","72","H","0","img/none_selected.jpg","","70","main_expt",""
"","bandit","150","740423","0.0-112.0-0.0","66125708","wem/bandit_party_1","ADXHWQLUQBK77","either","4","403","","","","","","","0","0","1","0.3772643828","","0.6","0.8","0.4","0.2","","","","","0.3772643828","0.1356707761","0.3445325487","0.1451664327","","","","","","","","","","72","H","0","img/none_selected.jpg","","71","main_expt",""
"","bandit","151","742457","0.0-113.0-0.0","66125708","wem/bandit_party_1","ADXHWQLUQBK77","either","4","523","","","","","","","0","1","0","","0.1091447996","0.6","0.8","0.4","0.2","0.4074174212","0.1045412551","0.364612409","0.1091447996","","","","","","","","","","","","","","76","L","3","","","72","main_expt",""
"","bandit","152","744449","0.0-114.0-0.0","66125708","wem/bandit_party_1","ADXHWQLUQBK77","either","4","479","","","","","","","0","0","1","0.1248737042","","0.6","0.8","0.4","0.2","","","","","0.3736299767","0.0867882282","0.4454774056","0.1248737042","","","","","","","","","","76","L","3","","","73","main_expt",""
"","bandit","153","746479","0.0-115.0-0.0","66125708","wem/bandit_party_1","ADXHWQLUQBK77","either","4","523","","","","","","","0","0","1","","0.1073746888","0.6","0.8","0.4","0.2","0.383211712","0.1018359722","0.4492830973","0.1073746888","","","","","","","","","","","","","","76","L","3","","","74","main_expt",""
"","bandit","154","748414","0.0-116.0-0.0","66125708","wem/bandit_party_1","ADXHWQLUQBK77","either","4","425","","","","","","","0","0","1","0.09443707336","","0.6","0.8","0.4","0.2","","","","","0.3681962321","0.09443707336","0.449321966","0.1051395745","","","","","","","","","","74","J","1","","","75","main_expt",""
"","bandit","155","750235","0.0-117.0-0.0","66125708","wem/bandit_party_1","ADXHWQLUQBK77","either","4","309","","","","","","","0","0","1","","0.09171451076","0.6","0.8","0.4","0.2","0.3574328021","0.08768691443","0.4299726132","0.09171451076","","","","","","","","","","","","","","76","L","3","","","76","main_expt",""
"","bandit","156","752076","0.0-118.0-0.0","66125708","wem/bandit_party_1","ADXHWQLUQBK77","either","4","328","","","","","","","0","0","1","","0.4349340462","0.6","0.8","0.4","0.2","0.4041720962","0.07744448812","0.4349340462","0.1256070833","","","","","","","","","","","","","","75","K","2","","","77","main_expt",""
"","bandit","157","753900","0.0-119.0-0.0","66125708","wem/bandit_party_1","ADXHWQLUQBK77","either","4","314","","","","","","","1","0","0","0.4000946746","","0.6","0.8","0.4","0.2","","","","","0.4000946746","0.05712631425","0.4112950215","0.1398604905","","","","","","","","","","72","H","0","img/none_selected.jpg","","78","main_expt",""
"","bandit","158","755742","0.0-120.0-0.0","66125708","wem/bandit_party_1","ADXHWQLUQBK77","either","4","333","","","","","","","0","1","0","","0.425248604","0.6","0.8","0.4","0.2","0.425248604","0.03981704588","0.4123046053","0.1303191282","","","","","","","","","","","","","","72","H","0","img/none_selected.jpg","","79","main_expt",""
"","bandit","159","757796","0.0-121.0-0.0","66125708","wem/bandit_party_1","ADXHWQLUQBK77","either","4","543","","","","","","","0","0","1","","0.4263383456","0.6","0.8","0.4","0.2","0.4263383456","0.02961196177","0.4345430878","0.1491340647","","","","","","","","","","","","","","72","H","0","img/none_selected.jpg","","80","main_expt",""
"","bandit","160","759648","0.0-122.0-0.0","66125708","wem/bandit_party_1","ADXHWQLUQBK77","either","4","338","","","","","","","0","1","0","","0.4377411966","0.6","0.8","0.4","0.2","0.4377411966","0.0408206899","0.4255274095","0.1484119081","","","","","","","","","","","","","","72","H","0","img/none_selected.jpg","","81","main_expt",""
"","bandit","161","761739","0.0-123.0-0.0","66125708","wem/bandit_party_1","ADXHWQLUQBK77","either","4","579","","","","","","","0","0","1","","0.4263216968","0.6","0.8","0.4","0.2","0.4263216968","0.03491361241","0.4266934287","0.135460029","","","","","","","","","","","","","","72","H","0","img/none_selected.jpg","","82","main_expt",""
"","bandit","162","763623","0.0-124.0-0.0","66125708","wem/bandit_party_1","ADXHWQLUQBK77","either","4","369","","","","","","","1","0","0","0.4536492548","","0.6","0.8","0.4","0.2","","","","","0.4536492548","0.01881925386","0.4321646522","0.09497461961","","","","","","","","","","72","H","0","img/none_selected.jpg","","83","main_expt",""
"","bandit","163","765650","0.0-125.0-0.0","66125708","wem/bandit_party_1","ADXHWQLUQBK77","either","4","512","","","","","","","0","0","1","","0.4344769981","0.6","0.8","0.4","0.2","0.4344769981","0.03441768066","0.43129245","0.0956585677","","","","","","","","","","","","","","72","H","0","img/none_selected.jpg","","84","main_expt",""
"","bandit","164","767675","0.0-126.0-0.0","66125708","wem/bandit_party_1","ADXHWQLUQBK77","either","4","505","","","","","","","0","0","1","","0.4167097255","0.6","0.8","0.4","0.2","0.4167097255","0.04015732792","0.4307495417","0.08427930603","","","","","","","","","","","","","","72","H","0","img/none_selected.jpg","","85","main_expt",""
"","bandit","165","769662","0.0-127.0-0.0","66125708","wem/bandit_party_1","ADXHWQLUQBK77","either","4","472","","","","","","","1","0","0","0.4215971904","","0.6","0.8","0.4","0.2","","","","","0.4215971904","0.0462821445","0.4327415212","0.09540141202","","","","","","","","","","72","H","0","img/none_selected.jpg","","86","main_expt",""
"","bandit","166","771964","0.0-128.0-0.0","66125708","wem/bandit_party_1","ADXHWQLUQBK77","either","4","787","","","","","","","0","1","0","","0.3962725568","0.6","0.8","0.4","0.2","0.3962725568","0.07236867375","0.4507305815","0.06504543429","","","","","","","","","","","","","","72","H","0","img/none_selected.jpg","","87","main_expt",""
"","bandit","167","774034","0.0-129.0-0.0","66125708","wem/bandit_party_1","ADXHWQLUQBK77","either","4","555","","","","","","","0","0","1","","0.4038430626","0.6","0.8","0.4","0.2","0.4038430626","0.1132918069","0.4571393315","0.05894337134","","","","","","","","","","","","","","72","H","0","img/none_selected.jpg","","88","main_expt",""
"","bandit","168","775966","0.0-130.0-0.0","66125708","wem/bandit_party_1","ADXHWQLUQBK77","either","4","418","","","","","","","0","1","0","","0.4247877058","0.6","0.8","0.4","0.2","0.4247877058","0.1466354559","0.4639779763","0.06803635399","","","","","","","","","","","","","","72","H","0","img/none_selected.jpg","","89","main_expt",""
"","bandit","169","778057","0.0-131.0-0.0","66125708","wem/bandit_party_1","ADXHWQLUQBK77","either","4","577","","","","","","","0","0","1","","0.4196700557","0.6","0.8","0.4","0.2","0.4196700557","0.1746819083","0.4620017245","0.09657856289","","","","","","","","","","","","","","72","H","0","img/none_selected.jpg","","90","main_expt",""
"","bandit","170","780415","0.0-132.0-0.0","66125708","wem/bandit_party_1","ADXHWQLUQBK77","either","4","849","","","","","","","0","0","1","0.401758082","","0.6","0.8","0.4","0.2","","","","","0.401758082","0.1864657318","0.4492963398","0.08522031428","","","","","","","","","","72","H","0","img/none_selected.jpg","","91","main_expt",""
"","bandit","171","782326","0.0-133.0-0.0","66125708","wem/bandit_party_1","ADXHWQLUQBK77","either","4","400","","","","","","","0","0","1","0.3422099147","","0.6","0.8","0.4","0.2","","","","","0.3422099147","0.2124622091","0.462009279","0.07078380504","","","","","","","","","","72","H","0","img/none_selected.jpg","","92","main_expt",""
"","bandit","172","784219","0.0-134.0-0.0","66125708","wem/bandit_party_1","ADXHWQLUQBK77","either","4","380","","","","","","","0","0","1","","0.0564278809","0.6","0.8","0.4","0.2","0.3279059742","0.245786276","0.4363090379","0.0564278809","","","","","","","","","","","","","","76","L","3","","","93","main_expt",""
"","bandit","173","786147","0.0-135.0-0.0","66125708","wem/bandit_party_1","ADXHWQLUQBK77","either","4","409","","","","","","","0","1","0","","0.4457519602","0.6","0.8","0.4","0.2","0.3155724737","0.2316759231","0.4457519602","0.06067733924","","","","","","","","","","","","","","75","K","2","","","94","main_expt",""
"","bandit","174","788086","0.0-136.0-0.0","66125708","wem/bandit_party_1","ADXHWQLUQBK77","either","4","426","","","","","","","0","1","0","","0.4231248902","0.6","0.8","0.4","0.2","0.3519625041","0.2231756969","0.4231248902","0.08632751489","","","","","","","","","","","","","","75","K","2","","","95","main_expt",""
"","bandit","175","790062","0.0-137.0-0.0","66125708","wem/bandit_party_1","ADXHWQLUQBK77","either","4","461","","","","","","","0","1","0","","0.4210676831","0.6","0.8","0.4","0.2","0.3661455107","0.1957128212","0.4210676831","0.08481729553","","","","","","","","","","","","","","75","K","2","","","96","main_expt",""
"","bandit","176","792017","0.0-138.0-0.0","66125708","wem/bandit_party_1","ADXHWQLUQBK77","either","4","441","","","","","","","0","0","1","0.4022895305","","0.6","0.8","0.4","0.2","","","","","0.3558031673","0.1638116915","0.4022895305","0.08386440452","","","","","","","","","","75","K","2","","","97","main_expt",""
"","bandit","177","794216","0.0-139.0-0.0","66125708","wem/bandit_party_1","ADXHWQLUQBK77","either","4","684","","","","","","","0","0","1","0.4187351015","","0.6","0.8","0.4","0.2","","","","","0.3558230887","0.1405816365","0.4187351015","0.0940701929","","","","","","","","","","75","K","2","","","98","main_expt",""
"","bandit","178","796255","0.0-140.0-0.0","66125708","wem/bandit_party_1","ADXHWQLUQBK77","either","4","527","","","","","","","1","0","0","0.3981340028","","0.6","0.8","0.4","0.2","","","","","0.3064708089","0.1435678602","0.3981340028","0.1285058524","","","","","","","","","","75","K","2","","","99","main_expt",""
"","bandit","179","798261","0.0-141.0-0.0","66125708","wem/bandit_party_1","ADXHWQLUQBK77","either","4","490","","","","","","","0","0","1","0.3520446815","","0.6","0.8","0.4","0.2","","","","","0.352498313","0.1478754355","0.3520446815","0.065882019","","","","","","","","","","75","K","2","","","100","main_expt",""
"","bandit","180","800119","0.0-142.0-0.0","66125708","wem/bandit_party_1","ADXHWQLUQBK77","either","4","343","","","","","","","0","1","0","","0.3715523215","0.6","0.8","0.4","0.2","0.3511810171","0.1532559328","0.3715523215","0.05692140794","","","","","","","","","","","","","","75","K","2","","","101","main_expt",""
"","bandit","181","802047","0.0-143.0-0.0","66125708","wem/bandit_party_1","ADXHWQLUQBK77","either","4","414","","","","","","","0","0","1","","0.3966955113","0.6","0.8","0.4","0.2","0.3246867477","0.15857411","0.3966955113","0.04322280369","","","","","","","","","","","","","","75","K","2","","","102","main_expt",""
"","bandit","182","804030","0.0-144.0-0.0","66125708","wem/bandit_party_1","ADXHWQLUQBK77","either","4","469","","","","","","","0","0","1","","0.3865714765","0.6","0.8","0.4","0.2","0.2827689756","0.1552377357","0.3865714765","0.05121437093","","","","","","","","","","","","","","75","K","2","","","103","main_expt",""
"","bandit","183","806046","0.0-145.0-0.0","66125708","wem/bandit_party_1","ADXHWQLUQBK77","either","4","501","","","","","","","0","0","1","","0.3440646931","0.6","0.8","0.4","0.2","0.3307995119","0.1584193753","0.3440646931","0.06548077564","","","","","","","","","","","","","","75","K","2","","","104","main_expt",""
"","bandit","184","807846","0.0-146.0-0.0","66125708","wem/bandit_party_1","ADXHWQLUQBK77","either","4","284","","","","","","","0","0","1","","0.192058402","0.6","0.8","0.4","0.2","0.3078297571","0.192058402","0.330981063","0.07577357845","","","","","","","","","","","","","","74","J","1","","","105","main_expt",""
"","bandit","185","809755","0.0-147.0-0.0","66125708","wem/bandit_party_1","ADXHWQLUQBK77","either","4","397","","","","","","","0","0","1","","0.09041352565","0.6","0.8","0.4","0.2","0.3202685942","0.1562344916","0.3317280627","0.09041352565","","","","","","","","","","","","","","76","L","3","","","106","main_expt",""
"","bandit","186","811636","0.0-148.0-0.0","66125708","wem/bandit_party_1","ADXHWQLUQBK77","either","4","371","","","","","","","0","0","1","0.3163418234","","0.6","0.8","0.4","0.2","","","","","0.3163418234","0.1493116313","0.2760665195","0.1184921167","","","","","","","","","","72","H","0","img/none_selected.jpg","","107","main_expt",""
"","bandit","187","813483","0.0-149.0-0.0","66125708","wem/bandit_party_1","ADXHWQLUQBK77","either","4","331","","","","","","","0","0","1","0.1357435498","","0.6","0.8","0.4","0.2","","","","","0.3425943818","0.1357435498","0.2826301941","0.1057615429","","","","","","","","","","74","J","1","","","108","main_expt",""
"","bandit","188","815305","0.0-150.0-0.0","66125708","wem/bandit_party_1","ADXHWQLUQBK77","either","4","313","","","","","","","0","0","1","0.318117281","","0.6","0.8","0.4","0.2","","","","","0.2852030557","0.1164074326","0.318117281","0.1464484126","","","","","","","","","","75","K","2","","","109","main_expt",""
"","bandit","189","817194","0.0-151.0-0.0","66125708","wem/bandit_party_1","ADXHWQLUQBK77","either","4","383","","","","","","","0","0","1","0.1641354829","","0.6","0.8","0.4","0.2","","","","","0.3392406975","0.1444451916","0.3358587519","0.1641354829","","","","","","","","","","76","L","3","","","110","main_expt",""
"","bandit","190","819191","0.0-152.0-0.0","66125708","wem/bandit_party_1","ADXHWQLUQBK77","either","4","481","","","","","","","0","0","1","0.09905323685","","0.6","0.8","0.4","0.2","","","","","0.3023411017","0.09905323685","0.3031660534","0.1386891192","","","","","","","","","","74","J","1","","","111","main_expt",""
"","bandit","191","821018","0.0-153.0-0.0","66125708","wem/bandit_party_1","ADXHWQLUQBK77","either","4","312","","","","","","","0","0","1","","0.296849772","0.6","0.8","0.4","0.2","0.296849772","0.09652445584","0.2773548355","0.1847512065","","","","","","","","","","","","","","72","H","0","img/none_selected.jpg","","112","main_expt",""
"","bandit","192","823020","0.0-154.0-0.0","66125708","wem/bandit_party_1","ADXHWQLUQBK77","either","4","488","","","","","","","0","0","1","0.2370758425","","0.6","0.8","0.4","0.2","","","","","0.2673419259","0.09961189632","0.2370758425","0.1304555333","","","","","","","","","","75","K","2","","","113","main_expt",""
"","bandit","193","824857","0.0-155.0-0.0","66125708","wem/bandit_party_1","ADXHWQLUQBK77","either","4","322","","","","","","","0","0","1","","0.1770102637","0.6","0.8","0.4","0.2","0.2670531803","0.1036139638","0.1821928837","0.1770102637","","","","","","","","","","","","","","76","L","3","","","114","main_expt",""
"","bandit","194","826711","0.0-156.0-0.0","66125708","wem/bandit_party_1","ADXHWQLUQBK77","either","4","338","","","","","","","0","0","1","0.2825009356","","0.6","0.8","0.4","0.2","","","","","0.2825009356","0.0968506792","0.1315453283","0.1564651975","","","","","","","","","","72","H","0","img/none_selected.jpg","","115","main_expt",""
"","bandit","195","828624","0.0-157.0-0.0","66125708","wem/bandit_party_1","ADXHWQLUQBK77","either","4","395","","","","","","","0","0","1","0.08782875681","","0.6","0.8","0.4","0.2","","","","","0.3237719372","0.08782875681","0.1102777544","0.1665702367","","","","","","","","","","74","J","1","","","116","main_expt",""
"","bandit","196","830846","0.0-158.0-0.0","66125708","wem/bandit_party_1","ADXHWQLUQBK77","either","4","706","","","","","","","0","0","1","","0.1101610351","0.6","0.8","0.4","0.2","0.3154846423","0.06031800864","0.1101610351","0.1530687496","","","","","","","","","","","","","","75","K","2","","","117","main_expt",""
"","bandit","197","832732","0.0-159.0-0.0","66125708","wem/bandit_party_1","ADXHWQLUQBK77","either","4","371","","","","","","","0","0","1","","0.1674206906","0.6","0.8","0.4","0.2","0.2584508078","0.05633053331","0.122460482","0.1674206906","","","","","","","","","","","","","","76","L","3","","","118","main_expt",""
"","bandit","198","835106","0.0-160.0-0.0","66125708","wem/bandit_party_1","ADXHWQLUQBK77","either","4","861","","","","","","","0","0","1","0.2141905193","","0.6","0.8","0.4","0.2","","","","","0.2141905193","0.07530514027","0.1451868924","0.1990215448","","","","","","","","","","72","H","0","img/none_selected.jpg","","119","main_expt",""
"","bandit","199","836998","0.0-161.0-0.0","66125708","wem/bandit_party_1","ADXHWQLUQBK77","either","4","375","","","","","","","0","0","1","0.09639595661","","0.6","0.8","0.4","0.2","","","","","0.2341954374","0.09639595661","0.09092593383","0.2208640619","","","","","","","","","","74","J","1","","","120","main_expt",""
"","bandit","200","839032","0.0-162.0-0.0","66125708","wem/bandit_party_1","ADXHWQLUQBK77","either","4","522","","","","","","","0","0","1","0.1080456108","","0.6","0.8","0.4","0.2","","","","","0.1886372651","0.1421799471","0.1080456108","0.2602917539","","","","","","","","","","75","K","2","","","121","main_expt",""
"","bandit","201","840918","0.0-163.0-0.0","66125708","wem/bandit_party_1","ADXHWQLUQBK77","either","4","372","","","","","","","0","0","1","","0.2512498235","0.6","0.8","0.4","0.2","0.1597592322","0.1624760489","0.1169053248","0.2512498235","","","","","","","","","","","","","","76","L","3","","","122","main_expt",""
"","bandit","202","843307","0.0-164.0-0.0","66125708","wem/bandit_party_1","ADXHWQLUQBK77","either","4","875","","","","","","","0","0","1","0.2266242761","","0.6","0.8","0.4","0.2","","","","","0.1895266442","0.1640214383","0.1571594809","0.2266242761","","","","","","","","","","76","L","3","","","123","main_expt",""
"","bandit","203","845219","0.0-165.0-0.0","66125708","wem/bandit_party_1","ADXHWQLUQBK77","either","4","395","","","","","","","0","0","1","0.2042850732","","0.6","0.8","0.4","0.2","","","","","0.2042850732","0.2014340991","0.2231804049","0.2373824638","","","","","","","","","","72","H","0","img/none_selected.jpg","","124","main_expt",""
"","bandit","204","847099","0.0-166.0-0.0","66125708","wem/bandit_party_1","ADXHWQLUQBK77","either","4","364","","","","","","","0","0","1","","0.2232794356","0.6","0.8","0.4","0.2","0.1812515389","0.2229229076","0.2232794356","0.2538727107","","","","","","","","","","","","","","75","K","2","","","125","main_expt",""
"","bandit","205","848933","0.0-167.0-0.0","66125708","wem/bandit_party_1","ADXHWQLUQBK77","either","4","319","","","","","","","0","0","1","0.2324712723","","0.6","0.8","0.4","0.2","","","","","0.1694736183","0.2324712723","0.2316903634","0.290219491","","","","","","","","","","74","J","1","","","126","main_expt",""
"","bandit","206","850889","0.0-168.0-0.0","66125708","wem/bandit_party_1","ADXHWQLUQBK77","either","4","441","","","","","","","0","0","1","0.1624528765","","0.6","0.8","0.4","0.2","","","","","0.1624528765","0.2628391623","0.2337524142","0.2542505169","","","","","","","","","","72","H","0","img/none_selected.jpg","","127","main_expt",""
"","bandit","207","852767","0.0-169.0-0.0","66125708","wem/bandit_party_1","ADXHWQLUQBK77","either","4","362","","","","","","","0","0","1","0.2654356302","","0.6","0.8","0.4","0.2","","","","","0.1632982916","0.2654356302","0.2198210178","0.2582316027","","","","","","","","","","74","J","1","","","128","main_expt",""
"","bandit","208","854632","0.0-170.0-0.0","66125708","wem/bandit_party_1","ADXHWQLUQBK77","either","4","352","","","","","","","0","1","0","","0.3267566011","0.6","0.8","0.4","0.2","0.2264598068","0.2070569149","0.2280168395","0.3267566011","","","","","","","","","","","","","","76","L","3","","","129","main_expt",""
"","bandit","209","856555","0.0-171.0-0.0","66125708","wem/bandit_party_1","ADXHWQLUQBK77","either","4","414","","","","","","","0","1","0","","0.3323271388","0.6","0.8","0.4","0.2","0.202760285","0.2579182239","0.243895296","0.3323271388","","","","","","","","","","","","","","76","L","3","","","130","main_expt",""
"","bandit","210","858628","0.0-172.0-0.0","66125708","wem/bandit_party_1","ADXHWQLUQBK77","either","4","557","","","","","","","0","0","1","0.2666668646","","0.6","0.8","0.4","0.2","","","","","0.1585094705","0.2329110821","0.2164454501","0.2666668646","","","","","","","","","","76","L","3","","","131","main_expt",""
"","bandit","211","860599","0.0-173.0-0.0","66125708","wem/bandit_party_1","ADXHWQLUQBK77","either","4","455","","","","","","","1","0","0","0.2359119393","","0.6","0.8","0.4","0.2","","","","","0.1304261544","0.2400232435","0.200468731","0.2359119393","","","","","","","","","","76","L","3","","","132","main_expt",""
"","bandit","212","862502","0.0-174.0-0.0","66125708","wem/bandit_party_1","ADXHWQLUQBK77","either","4","391","","","","","","","0","1","0","","0.2540740643","0.6","0.8","0.4","0.2","0.09339990826","0.2084798617","0.2038597077","0.2540740643","","","","","","","","","","","","","","76","L","3","","","133","main_expt",""
"","bandit","213","864437","0.0-175.0-0.0","66125708","wem/bandit_party_1","ADXHWQLUQBK77","either","4","420","","","","","","","0","0","1","","0.2414927735","0.6","0.8","0.4","0.2","0.08524612959","0.2034544","0.2263269307","0.2414927735","","","","","","","","","","","","","","76","L","3","","","134","main_expt",""
"","bandit","214","866373","0.0-176.0-0.0","66125708","wem/bandit_party_1","ADXHWQLUQBK77","either","4","422","","","","","","","0","0","1","","0.2632369982","0.6","0.8","0.4","0.2","0.0622033461","0.2088958693","0.2686469146","0.2632369982","","","","","","","","","","","","","","76","L","3","","","135","main_expt",""
"","bandit","215","868300","0.0-177.0-0.0","66125708","wem/bandit_party_1","ADXHWQLUQBK77","either","4","412","","","","","","","0","0","1","","0.3032623762","0.6","0.8","0.4","0.2","0.05632890875","0.2573758916","0.3170393738","0.3032623762","","","","","","","","","","","","","","76","L","3","","","136","main_expt",""
"","bandit","216","870148","0.0-178.0-0.0","66125708","wem/bandit_party_1","ADXHWQLUQBK77","either","4","334","","","","","","","0","0","1","0.338962466","","0.6","0.8","0.4","0.2","","","","","0.06052980877","0.2467438462","0.338962466","0.2984046037","","","","","","","","","","75","K","2","","","137","main_expt",""
"","bandit","217","871913","0.0-179.0-0.0","66125708","wem/bandit_party_1","ADXHWQLUQBK77","either","4","250","","","","","","","0","0","1","","0.2221944767","0.6","0.8","0.4","0.2","0.1038497792","0.2221944767","0.3586643031","0.3110629865","","","","","","","","","","","","","","74","J","1","","","138","main_expt",""
"","bandit","218","873909","0.0-180.0-0.0","66125708","wem/bandit_party_1","ADXHWQLUQBK77","either","4","481","","","","","","","0","0","1","","0.08561062373","0.6","0.8","0.4","0.2","0.08561062373","0.2750517365","0.3430902759","0.3048373826","","","","","","","","","","","","","","72","H","0","img/none_selected.jpg","","139","main_expt",""
"","bandit","219","875691","0.0-181.0-0.0","66125708","wem/bandit_party_1","ADXHWQLUQBK77","either","4","266","","","","","","","0","0","1","","0.3163642845","0.6","0.8","0.4","0.2","0.08025295029","0.277474309","0.3777112835","0.3163642845","","","","","","","","","","","","","","76","L","3","","","140","main_expt",""
"","bandit","220","877474","0.0-182.0-0.0","66125708","wem/bandit_party_1","ADXHWQLUQBK77","either","4","267","","","","","","","0","0","1","0.2932007391","","0.6","0.8","0.4","0.2","","","","","0.09309891757","0.2932007391","0.4276051364","0.2213861514","","","","","","","","","","74","J","1","","","141","main_expt",""
"","bandit","221","879295","0.0-183.0-0.0","66125708","wem/bandit_party_1","ADXHWQLUQBK77","either","4","305","","","","","","","0","0","1","0.4312347149","","0.6","0.8","0.4","0.2","","","","","0.1107976638","0.3001807938","0.4312347149","0.2492613222","","","","","","","","","","75","K","2","","","142","main_expt",""
"","bandit","222","881123","0.0-184.0-0.0","66125708","wem/bandit_party_1","ADXHWQLUQBK77","either","4","311","","","","","","","0","0","1","","0.2645663874","0.6","0.8","0.4","0.2","0.09575525052","0.3640878437","0.386657586","0.2645663874","","","","","","","","","","","","","","76","L","3","","","143","main_expt",""
"","bandit","223","882944","0.0-185.0-0.0","66125708","wem/bandit_party_1","ADXHWQLUQBK77","either","4","304","","","","","","","0","0","1","0.07222794989","","0.6","0.8","0.4","0.2","","","","","0.07222794989","0.2706796495","0.3409851627","0.2928215939","","","","","","","","","","72","H","0","img/none_selected.jpg","","144","main_expt",""
"","bandit","224","884811","0.0-186.0-0.0","66125708","wem/bandit_party_1","ADXHWQLUQBK77","either","4","351","","","","","","","0","0","1","0.03203798906","","0.6","0.8","0.4","0.2","","","","","0.03203798906","0.2359726437","0.3538709708","0.3178979655","","","","","","","","","","72","H","0","img/none_selected.jpg","","145","main_expt",""
"","bandit","225","886777","0.0-187.0-0.0","66125708","wem/bandit_party_1","ADXHWQLUQBK77","either","4","449","","","","","","","0","0","1","0.2200332621","","0.6","0.8","0.4","0.2","","","","","0.03073079809","0.2200332621","0.2745956728","0.2850957273","","","","","","","","","","74","J","1","","","146","main_expt",""
"","bandit","226","888644","0.0-188.0-0.0","66125708","wem/bandit_party_1","ADXHWQLUQBK77","either","4","348","","","","","","","0","0","1","0.2483519338","","0.6","0.8","0.4","0.2","","","","","0.05105424151","0.1957794229","0.2375793476","0.2483519338","","","","","","","","","","76","L","3","","","147","main_expt",""
"","bandit","227","890481","0.0-189.0-0.0","66125708","wem/bandit_party_1","ADXHWQLUQBK77","either","4","321","","","","","","","0","0","1","0.2954602587","","0.6","0.8","0.4","0.2","","","","","0.04045355104","0.1790722045","0.2954602587","0.2309770791","","","","","","","","","","75","K","2","","","148","main_expt",""
"","bandit","228","892243","0.0-190.0-0.0","66125708","wem/bandit_party_1","ADXHWQLUQBK77","either","4","246","","","","","","","0","0","1","","0.2189150546","0.6","0.8","0.4","0.2","0.06416506337","0.2189150546","0.3435099865","0.1759049641","","","","","","","","","","","","","","74","J","1","","","149","main_expt",""
"","bandit","229","894068","0.0-191.0-0.0","66125708","wem/bandit_party_1","ADXHWQLUQBK77","either","4","316","","","","","","","0","0","1","0.07819388902","","0.6","0.8","0.4","0.2","","","","","0.07819388902","0.2119229637","0.268900415","0.1910702346","","","","","","","","","","72","H","0","img/none_selected.jpg","","150","main_expt",""
"","bandit","230","895853","0.0-192.0-0.0","66125708","wem/bandit_party_1","ADXHWQLUQBK77","either","4","271","","","","","","","0","0","1","","0.1799178466","0.6","0.8","0.4","0.2","0.1186979887","0.2472398003","0.2326488896","0.1799178466","","","","","","","","","","","","","","76","L","3","","","151","main_expt",""
"","bandit","231","897693","0.0-193.0-0.0","66125708","wem/bandit_party_1","ADXHWQLUQBK77","either","4","323","","","","","","","0","1","0","","0.2768057641","0.6","0.8","0.4","0.2","0.1084773402","0.2148428051","0.2768057641","0.1826140084","","","","","","","","","","","","","","75","K","2","","","152","main_expt",""
"","bandit","232","899676","0.0-194.0-0.0","66125708","wem/bandit_party_1","ADXHWQLUQBK77","either","4","471","","","","","","","0","0","1","","0.2997660112","0.6","0.8","0.4","0.2","0.1314289417","0.1598057249","0.2997660112","0.147924298","","","","","","","","","","","","","","75","K","2","","","153","main_expt",""
"","bandit","233","901504","0.0-195.0-0.0","66125708","wem/bandit_party_1","ADXHWQLUQBK77","either","4","312","","","","","","","0","1","0","","0.3196464983","0.6","0.8","0.4","0.2","0.1354051011","0.1489099923","0.3196464983","0.1388357139","","","","","","","","","","","","","","75","K","2","","","154","main_expt",""
"","bandit","234","903480","0.0-196.0-0.0","66125708","wem/bandit_party_1","ADXHWQLUQBK77","either","4","461","","","","","","","0","0","1","","0.3141654429","0.6","0.8","0.4","0.2","0.1085215933","0.1502541116","0.3141654429","0.1658398244","","","","","","","","","","","","","","75","K","2","","","155","main_expt",""
"","bandit","235","905599","0.0-197.0-0.0","66125708","wem/bandit_party_1","ADXHWQLUQBK77","either","4","601","","","","","","","0","0","1","0.2667217688","","0.6","0.8","0.4","0.2","","","","","0.1383379057","0.1605084188","0.2667217688","0.1104921729","","","","","","","","","","75","K","2","","","156","main_expt",""
"","bandit","236","907390","0.0-198.0-0.0","66125708","wem/bandit_party_1","ADXHWQLUQBK77","either","4","277","","","","","","","0","0","1","0.09530810267","","0.6","0.8","0.4","0.2","","","","","0.1428990181","0.1684101418","0.2867075714","0.09530810267","","","","","","","","","","76","L","3","","","157","main_expt",""
"","bandit","237","909367","0.0-199.0-0.0","66125708","wem/bandit_party_1","ADXHWQLUQBK77","either","4","469","","","","","","","0","0","1","0.1807688322","","0.6","0.8","0.4","0.2","","","","","0.07455979893","0.1807688322","0.2788639118","0.1211627972","","","","","","","","","","74","J","1","","","158","main_expt",""
"","bandit","238","911171","0.0-200.0-0.0","66125708","wem/bandit_party_1","ADXHWQLUQBK77","either","4","295","","","","","","","0","0","1","","0.1009372764","0.6","0.8","0.4","0.2","0.1009372764","0.1516426412","0.3020710819","0.1012897464","","","","","","","","","","","","","","72","H","0","img/none_selected.jpg","","159","main_expt",""
"","bandit","239","912967","0.0-201.0-0.0","66125708","wem/bandit_party_1","ADXHWQLUQBK77","either","4","279","","","","","","","0","0","1","","0.1188035868","0.6","0.8","0.4","0.2","0.05118862797","0.1638698877","0.3404227007","0.1188035868","","","","","","","","","","","","","","76","L","3","","","160","main_expt",""
"","bandit","240","917270","0.0-202.0-0.0","66125708","wem/bandit_party_1","ADXHWQLUQBK77","either","4","2785","","","","","","","0","0","1","0.05265847637","","0.6","0.8","0.4","0.2","","","","","0.05265847637","0.1645359983","0.2876249865","0.1606836622","","","","","","","","","","72","H","0","img/none_selected.jpg","","161","main_expt",""
"","bandit","241","919127","0.0-203.0-0.0","66125708","wem/bandit_party_1","ADXHWQLUQBK77","either","4","340","","","","","","","0","0","1","0.2509918509","","0.6","0.8","0.4","0.2","","","","","0.07938684611","0.2509918509","0.2401308511","0.1859884171","","","","","","","","","","74","J","1","","","162","main_expt",""
"","bandit","242","921388","0.0-204.0-0.0","66125708","wem/bandit_party_1","ADXHWQLUQBK77","either","4","742","","","","","","","0","0","1","","0.2486605046","0.6","0.8","0.4","0.2","0.0970900163","0.1883685458","0.2486605046","0.2528258464","","","","","","","","","","","","","","75","K","2","","","163","main_expt",""
"","bandit","243","923103","0.0-205.0-0.0","66125708","wem/bandit_party_1","ADXHWQLUQBK77","either","4","203","","","","","","","0","1","0","","0.2515292425","0.6","0.8","0.4","0.2","0.07401968201","0.2179532334","0.22675384","0.2515292425","","","","","","","","","","","","","","76","L","3","","","164","main_expt",""
"","bandit","244","924949","0.0-206.0-0.0","66125708","wem/bandit_party_1","ADXHWQLUQBK77","either","4","334","","","","","","","1","0","0","0.2068970429","","0.6","0.8","0.4","0.2","","","","","0.06633104104","0.2143704678","0.2841151948","0.2068970429","","","","","","","","","","76","L","3","","","165","main_expt",""
"","bandit","245","926866","0.0-207.0-0.0","66125708","wem/bandit_party_1","ADXHWQLUQBK77","either","4","395","","","","","","","0","0","1","","0.1413778631","0.6","0.8","0.4","0.2","0.05309652092","0.2175899085","0.2842980464","0.1413778631","","","","","","","","","","","","","","76","L","3","","","166","main_expt",""
"","bandit","246","928881","0.0-208.0-0.0","66125708","wem/bandit_party_1","ADXHWQLUQBK77","either","4","506","","","","","","","0","0","1","","0.1999497975","0.6","0.8","0.4","0.2","0.07357446968","0.2137120923","0.3007590714","0.1999497975","","","","","","","","","","","","","","76","L","3","","","167","main_expt",""
"","bandit","247","930913","0.0-209.0-0.0","66125708","wem/bandit_party_1","ADXHWQLUQBK77","either","4","513","","","","","","","0","0","1","","0.1696145944","0.6","0.8","0.4","0.2","0.1054325378","0.2331560811","0.2884936601","0.1696145944","","","","","","","","","","","","","","76","L","3","","","168","main_expt",""
"","bandit","248","932684","0.0-210.0-0.0","66125708","wem/bandit_party_1","ADXHWQLUQBK77","either","4","259","","","","","","","0","0","1","0.08536867429","","0.6","0.8","0.4","0.2","","","","","0.08536867429","0.2367963754","0.2803439438","0.1338518967","","","","","","","","","","72","H","0","img/none_selected.jpg","","169","main_expt",""
"","bandit","249","934679","0.0-211.0-0.0","66125708","wem/bandit_party_1","ADXHWQLUQBK77","either","4","479","","","","","","","0","0","1","0.2378050175","","0.6","0.8","0.4","0.2","","","","","0.1083432756","0.2378050175","0.3010437192","0.1307598277","","","","","","","","","","74","J","1","","","170","main_expt",""
"","bandit","250","936406","0.0-212.0-0.0","66125708","wem/bandit_party_1","ADXHWQLUQBK77","either","4","217","","","","","","","0","0","1","0.3243802095","","0.6","0.8","0.4","0.2","","","","","0.09185370626","0.2253696972","0.3243802095","0.1200375331","","","","","","","","","","75","K","2","","","171","main_expt",""
"","bandit","251","938224","0.0-213.0-0.0","66125708","wem/bandit_party_1","ADXHWQLUQBK77","either","4","307","","","","","","","0","0","1","0.07514546963","","0.6","0.8","0.4","0.2","","","","","0.09458096772","0.2903394368","0.3140094691","0.07514546963","","","","","","","","","","76","L","3","","","172","main_expt",""
"","bandit","252","939934","0.0-214.0-0.0","66125708","wem/bandit_party_1","ADXHWQLUQBK77","either","4","193","","","","","","","1","0","0","0.2384828248","","0.6","0.8","0.4","0.2","","","","","0.1016296913","0.2384828248","0.2433770114","0.07704486673","","","","","","","","","","74","J","1","","","173","main_expt",""
"","bandit","253","941780","0.0-215.0-0.0","66125708","wem/bandit_party_1","ADXHWQLUQBK77","either","4","327","","","","","","","1","0","0","0.2823111034","","0.6","0.8","0.4","0.2","","","","","0.117107939","0.2823111034","0.2080779891","0.04061738922","","","","","","","","","","74","J","1","","","174","main_expt",""
"","bandit","254","943712","0.0-216.0-0.0","66125708","wem/bandit_party_1","ADXHWQLUQBK77","either","4","413","","","","","","","0","0","1","","0.292147578","0.6","0.8","0.4","0.2","0.1254773658","0.292147578","0.2211365803","0.02968316822","","","","","","","","","","","","","","74","J","1","","","175","main_expt",""
"","bandit","255","945577","0.0-217.0-0.0","66125708","wem/bandit_party_1","ADXHWQLUQBK77","either","4","348","","","","","","","0","0","1","0.2928295457","","0.6","0.8","0.4","0.2","","","","","0.1518856622","0.2928295457","0.231280906","0.04419366322","","","","","","","","","","74","J","1","","","176","main_expt",""
"","bandit","256","947420","0.0-218.0-0.0","66125708","wem/bandit_party_1","ADXHWQLUQBK77","either","4","325","","","","","","","0","0","1","0.1502483312","","0.6","0.8","0.4","0.2","","","","","0.1502483312","0.297241693","0.1689881391","0.04140429262","","","","","","","","","","72","H","0","img/none_selected.jpg","","177","main_expt",""
"","bandit","257","949014","0.0-219.0-0.0","66125708","wem/bandit_party_1","ADXHWQLUQBK77","either","4","84","","","","","","","0","0","1","0.276241128","","0.6","0.8","0.4","0.2","","","","","0.2073149786","0.276241128","0.1699404395","0.06103489621","","","","","","","","","","74","J","1","","","178","main_expt",""
"","bandit","258","950728","0.0-220.0-0.0","66125708","wem/bandit_party_1","ADXHWQLUQBK77","either","4","197","","","","","","","0","0","1","","0.1571972967","0.6","0.8","0.4","0.2","0.1928578162","0.2405339857","0.1571972967","0.053608248","","","","","","","","","","","","","","75","K","2","","","179","main_expt",""
"","bandit","259","952445","0.0-221.0-0.0","66125708","wem/bandit_party_1","ADXHWQLUQBK77","either","4","200","","","","","","","0","0","1","","0.06289379635","0.6","0.8","0.4","0.2","0.1412953234","0.233428307","0.1567782565","0.06289379635","","","","","","","","","","","","","","76","L","3","","","180","main_expt",""
"","bandit","260","954222","0.0-222.0-0.0","66125708","wem/bandit_party_1","ADXHWQLUQBK77","either","4","267","","","","","","","0","0","1","0.1492691696","","0.6","0.8","0.4","0.2","","","","","0.1258774719","0.1459310114","0.1492691696","0.07748386732","","","","","","","","","","75","K","2","","","181","main_expt",""
"","bandit","261","955897","0.0-223.0-0.0","66125708","wem/bandit_party_1","ADXHWQLUQBK77","either","4","156","","","","","","","0","0","1","0.1121960069","","0.6","0.8","0.4","0.2","","","","","0.1121960069","0.1796360657","0.1609613705","0.096714051","","","","","","","","","","72","H","0","img/none_selected.jpg","","182","main_expt",""
"","bandit","262","958070","0.0-224.0-0.0","66125708","wem/bandit_party_1","ADXHWQLUQBK77","either","4","654","","","","","","","0","0","1","0.1907874973","","0.6","0.8","0.4","0.2","","","","","0.08335286121","0.1907874973","0.1982891881","0.05351369794","","","","","","","","","","74","J","1","","","183","main_expt",""
"","bandit","263","959807","0.0-225.0-0.0","66125708","wem/bandit_party_1","ADXHWQLUQBK77","either","4","218","","","","","","","0","0","1","","0.08854511538","0.6","0.8","0.4","0.2","0.1085923678","0.1451627339","0.1703318442","0.08854511538","","","","","","","","","","","","","","76","L","3","","","184","main_expt",""
"","bandit","264","961560","0.0-226.0-0.0","66125708","wem/bandit_party_1","ADXHWQLUQBK77","either","4","242","","","","","","","0","0","1","","0.09566746086","0.6","0.8","0.4","0.2","0.1113654269","0.1692531577","0.09566746086","0.136385666","","","","","","","","","","","","","","75","K","2","","","185","main_expt",""
"","bandit","265","963215","0.0-227.0-0.0","66125708","wem/bandit_party_1","ADXHWQLUQBK77","either","4","136","","","","","","","0","0","1","0.1383531569","","0.6","0.8","0.4","0.2","","","","","0.1383531569","0.1885113298","0.1254261761","0.1848043888","","","","","","","","","","72","H","0","img/none_selected.jpg","","186","main_expt",""
"","bandit","266","964843","0.0-228.0-0.0","66125708","wem/bandit_party_1","ADXHWQLUQBK77","either","4","107","","","","","","","0","0","1","0.2088125345","","0.6","0.8","0.4","0.2","","","","","0.1739713275","0.2088125345","0.1081798115","0.1640989128","","","","","","","","","","74","J","1","","","187","main_expt",""
"","bandit","267","966605","0.0-229.0-0.0","66125708","wem/bandit_party_1","ADXHWQLUQBK77","either","4","243","","","","","","","0","0","1","","0.08529062399","0.6","0.8","0.4","0.2","0.1926366302","0.2228369986","0.08529062399","0.1301402021","","","","","","","","","","","","","","75","K","2","","","188","main_expt",""
"","bandit","268","968200","0.0-230.0-0.0","66125708","wem/bandit_party_1","ADXHWQLUQBK77","either","4","85","","","","","","","0","0","1","","0.1980942663","0.6","0.8","0.4","0.2","0.2499935398","0.2567428292","0.07250281893","0.1980942663","","","","","","","","","","","","","","76","L","3","","","189","main_expt",""
"","bandit","269","969839","0.0-231.0-0.0","66125708","wem/bandit_party_1","ADXHWQLUQBK77","either","4","121","","","","","","","0","0","1","0.07895395147","","0.6","0.8","0.4","0.2","","","","","0.2367317824","0.3177850294","0.07895395147","0.1842725295","","","","","","","","","","75","K","2","","","190","main_expt",""
"","bandit","270","972600","0.0-232.0-0.0","66125708","wem/bandit_party_1","ADXHWQLUQBK77","either","4","1242","","","","","","","0","0","1","","0.2087081259","0.6","0.8","0.4","0.2","0.2515026666","0.2876912335","0.06204701637","0.2087081259","","","","","","","","","","","","","","76","L","3","","","191","main_expt",""
"","bandit","271","975579","0.0-233.0-0.0","66125708","wem/bandit_party_1","ADXHWQLUQBK77","either","4","1463","","","","","","","0","0","1","0.2383873749","","0.6","0.8","0.4","0.2","","","","","0.2451916405","0.2383873749","0.064067899","0.1800110976","","","","","","","","","","74","J","1","","","192","main_expt",""
"","bandit","272","977487","0.0-234.0-0.0","66125708","wem/bandit_party_1","ADXHWQLUQBK77","either","4","386","","","","","","","0","0","1","","0.2353451433","0.6","0.8","0.4","0.2","0.2353451433","0.24690957","0.1286650472","0.1519186298","","","","","","","","","","","","","","72","H","0","img/none_selected.jpg","","193","main_expt",""
"","bandit","273","979450","0.0-235.0-0.0","66125708","wem/bandit_party_1","ADXHWQLUQBK77","either","4","446","","","","","","","0","0","1","0.307075739","","0.6","0.8","0.4","0.2","","","","","0.307075739","0.2728455101","0.1746490116","0.1431656489","","","","","","","","","","72","H","0","img/none_selected.jpg","","194","main_expt",""
"","bandit","274","981140","0.0-236.0-0.0","66125708","wem/bandit_party_1","ADXHWQLUQBK77","either","4","182","","","","","","","1","0","0","0.1868251083","","0.6","0.8","0.4","0.2","","","","","0.3011001907","0.2421292151","0.129035247","0.1868251083","","","","","","","","","","76","L","3","","","195","main_expt",""
"","bandit","275","982948","0.0-237.0-0.0","66125708","wem/bandit_party_1","ADXHWQLUQBK77","either","4","297","","","","","","","0","0","1","","0.176624335","0.6","0.8","0.4","0.2","0.2861216794","0.2598052724","0.09052040682","0.176624335","","","","","","","","","","","","","","76","L","3","","","196","main_expt",""
"","bandit","276","984785","0.0-238.0-0.0","66125708","wem/bandit_party_1","ADXHWQLUQBK77","either","4","317","","","","","","","0","0","1","","0.2383323772","0.6","0.8","0.4","0.2","0.2121549007","0.2540930088","0.08675464884","0.2383323772","","","","","","","","","","","","","","76","L","3","","","197","main_expt",""
"","bandit","277","986665","0.0-239.0-0.0","66125708","wem/bandit_party_1","ADXHWQLUQBK77","either","4","358","","","","","","","0","0","1","","0.260618614","0.6","0.8","0.4","0.2","0.260340052","0.2460150375","0.09429549835","0.260618614","","","","","","","","","","","","","","76","L","3","","","198","main_expt",""
"","bandit","278","988465","0.0-240.0-0.0","66125708","wem/bandit_party_1","ADXHWQLUQBK77","either","4","280","","","","","","","0","0","1","","0.09303778716","0.6","0.8","0.4","0.2","0.3009562829","0.2217343644","0.09303778716","0.2935067364","","","","","","","","","","","","","","75","K","2","","","199","main_expt",""
"","bandit","279","990153","0.0-241.0-0.0","66125708","wem/bandit_party_1","ADXHWQLUQBK77","either","4","178","","","","","","","0","0","1","","0.2830302048","0.6","0.8","0.4","0.2","0.3430896668","0.2830302048","0.07354084322","0.362920627","","","","","","","","","","","","","","74","J","1","","","200","main_expt",""
"","bandit","280","991789","0.0-242.0-0.0","66125708","wem/bandit_party_1","ADXHWQLUQBK77","either","4","121","","","","","","","0","1","0","","0.3119044903","0.6","0.8","0.4","0.2","0.2973668079","0.3175621279","0.08115367452","0.3119044903","","","","","","","","","","","","","","76","L","3","","","201","main_expt",""
"","bandit","281","993639","0.0-243.0-0.0","66125708","wem/bandit_party_1","ADXHWQLUQBK77","either","4","328","","","","","","","0","0","1","","0.3095695708","0.6","0.8","0.4","0.2","0.3219337599","0.3049471546","0.0774842685","0.3095695708","","","","","","","","","","","","","","76","L","3","","","202","main_expt",""
"","bandit","282","995635","0.0-244.0-0.0","66125708","wem/bandit_party_1","ADXHWQLUQBK77","either","4","474","","","","","","","0","0","1","0.3229991028","","0.6","0.8","0.4","0.2","","","","","0.3229991028","0.2975042969","0.09704724367","0.3005459379","","","","","","","","","","72","H","0","img/none_selected.jpg","","203","main_expt",""
"","bandit","283","997353","0.0-245.0-0.0","66125708","wem/bandit_party_1","ADXHWQLUQBK77","either","4","198","","","","","","","0","1","0","","0.3116824409","0.6","0.8","0.4","0.2","0.3077995671","0.2268457719","0.1224111047","0.3116824409","","","","","","","","","","","","","","76","L","3","","","204","main_expt",""
"","bandit","284","999109","0.0-246.0-0.0","66125708","wem/bandit_party_1","ADXHWQLUQBK77","either","4","247","","","","","","","0","0","1","","0.3291635812","0.6","0.8","0.4","0.2","0.3070199156","0.2582085449","0.1627664319","0.3291635812","","","","","","","","","","","","","","76","L","3","","","205","main_expt",""
"","bandit","285","1000927","0.0-247.0-0.0","66125708","wem/bandit_party_1","ADXHWQLUQBK77","either","4","304","","","","","","","0","0","1","","0.4008790519","0.6","0.8","0.4","0.2","0.3109683939","0.2841247045","0.1604236747","0.4008790519","","","","","","","","","","","","","","76","L","3","","","206","main_expt",""
"","bandit","286","1002550","0.0-248.0-0.0","66125708","wem/bandit_party_1","ADXHWQLUQBK77","either","4","104","","","","","","","0","0","1","","0.3333225396","0.6","0.8","0.4","0.2","0.2845075958","0.3333225396","0.126388554","0.4202180382","","","","","","","","","","","","","","74","J","1","","","207","main_expt",""
"","bandit","287","1004260","0.0-249.0-0.0","66125708","wem/bandit_party_1","ADXHWQLUQBK77","either","4","200","","","","","","","0","1","0","","0.4168586074","0.6","0.8","0.4","0.2","0.2419557814","0.290219871","0.1602309633","0.4168586074","","","","","","","","","","","","","","76","L","3","","","208","main_expt",""
"","bandit","288","1006144","0.0-250.0-0.0","66125708","wem/bandit_party_1","ADXHWQLUQBK77","either","4","363","","","","","","","0","0","1","","0.3949328033","0.6","0.8","0.4","0.2","0.2449545816","0.3426384504","0.2009997365","0.3949328033","","","","","","","","","","","","","","76","L","3","","","209","main_expt",""
"","bandit","289","1008009","0.0-251.0-0.0","66125708","wem/bandit_party_1","ADXHWQLUQBK77","either","4","345","","","","","","","0","0","1","","0.1997114924","0.6","0.8","0.4","0.2","0.2176860071","0.2932754766","0.1997114924","0.41782505","","","","","","","","","","","","","","75","K","2","","","210","main_expt",""
"","bandit","290","1009744","0.0-252.0-0.0","66125708","wem/bandit_party_1","ADXHWQLUQBK77","either","4","212","","","","","","","0","1","0","","0.4377941382","0.6","0.8","0.4","0.2","0.2460847292","0.2522206247","0.2631807131","0.4377941382","","","","","","","","","","","","","","76","L","3","","","211","main_expt",""
"","bandit","291","1011548","0.0-253.0-0.0","66125708","wem/bandit_party_1","ADXHWQLUQBK77","either","4","285","","","","","","","0","1","0","","0.4619006446","0.6","0.8","0.4","0.2","0.2017704833","0.2323705111","0.2008991105","0.4619006446","","","","","","","","","","","","","","76","L","3","","","212","main_expt",""
"","bandit","292","1013460","0.0-254.0-0.0","66125708","wem/bandit_party_1","ADXHWQLUQBK77","either","4","403","","","","","","","0","1","0","","0.4508737721","0.6","0.8","0.4","0.2","0.1891715169","0.2815580385","0.1656487101","0.4508737721","","","","","","","","","","","","","","76","L","3","","","213","main_expt",""
"","bandit","293","1015459","0.0-255.0-0.0","66125708","wem/bandit_party_1","ADXHWQLUQBK77","either","4","479","","","","","","","0","1","0","","0.4639731149","0.6","0.8","0.4","0.2","0.1819308411","0.2955812139","0.213788386","0.4639731149","","","","","","","","","","","","","","76","L","3","","","214","main_expt",""
"","bandit","294","1017324","0.0-256.0-0.0","66125708","wem/bandit_party_1","ADXHWQLUQBK77","either","4","351","","","","","","","0","0","1","","0.4690757113","0.6","0.8","0.4","0.2","0.1406935411","0.2988647484","0.2206736926","0.4690757113","","","","","","","","","","","","","","76","L","3","","","215","main_expt",""
"","bandit","295","1019146","0.0-257.0-0.0","66125708","wem/bandit_party_1","ADXHWQLUQBK77","either","4","312","","","","","","","0","1","0","","0.4685680314","0.6","0.8","0.4","0.2","0.206739756","0.3361974059","0.2270120675","0.4685680314","","","","","","","","","","","","","","76","L","3","","","216","main_expt",""
"","bandit","296","1021004","0.0-258.0-0.0","66125708","wem/bandit_party_1","ADXHWQLUQBK77","either","4","338","","","","","","","0","0","1","0.4873952874","","0.6","0.8","0.4","0.2","","","","","0.178624692","0.2764506131","0.2561581829","0.4873952874","","","","","","","","","","76","L","3","","","217","main_expt",""
"","bandit","297","1022949","0.0-259.0-0.0","66125708","wem/bandit_party_1","ADXHWQLUQBK77","either","4","426","","","","","","","0","0","1","","0.4790671899","0.6","0.8","0.4","0.2","0.2021641755","0.299893698","0.2785758431","0.4790671899","","","","","","","","","","","","","","76","L","3","","","218","main_expt",""
"","bandit","298","1024979","0.0-260.0-0.0","66125708","wem/bandit_party_1","ADXHWQLUQBK77","either","4","507","","","","","","","1","0","0","0.2076996705","","0.6","0.8","0.4","0.2","","","","","0.2076996705","0.3213687962","0.2707863597","0.4769795117","","","","","","","","","","72","H","0","img/none_selected.jpg","","219","main_expt",""
"","bandit","299","1026760","0.0-261.0-0.0","66125708","wem/bandit_party_1","ADXHWQLUQBK77","either","4","263","","","","","","","0","1","0","","0.2479045362","0.6","0.8","0.4","0.2","0.2479045362","0.3782095139","0.2262269101","0.4746148145","","","","","","","","","","","","","","72","H","0","img/none_selected.jpg","","220","main_expt",""
"","bandit","300","1028619","0.0-262.0-0.0","66125708","wem/bandit_party_1","ADXHWQLUQBK77","either","4","338","","","","","","","0","0","1","0.251163546","","0.6","0.8","0.4","0.2","","","","","0.251163546","0.3572699546","0.2522421151","0.4789253058","","","","","","","","","","72","H","0","img/none_selected.jpg","","221","main_expt",""
"","bandit","301","1030476","0.0-263.0-0.0","66125708","wem/bandit_party_1","ADXHWQLUQBK77","either","4","334","","","","","","","0","0","1","","0.2653622565","0.6","0.8","0.4","0.2","0.2653622565","0.332217079","0.2323100388","0.4765400837","","","","","","","","","","","","","","72","H","0","img/none_selected.jpg","","222","main_expt",""
"","bandit","302","1032293","0.0-264.0-0.0","66125708","wem/bandit_party_1","ADXHWQLUQBK77","either","4","295","","","","","","","0","1","0","","0.4872993944","0.6","0.8","0.4","0.2","0.2034578964","0.3327789551","0.2013525365","0.4872993944","","","","","","","","","","","","","","76","L","3","","","223","main_expt",""
"","bandit","303","1034165","0.0-265.0-0.0","66125708","wem/bandit_party_1","ADXHWQLUQBK77","either","4","352","","","","","","","0","1","0","","0.4864577786","0.6","0.8","0.4","0.2","0.1176985371","0.3720138676","0.2017363432","0.4864577786","","","","","","","","","","","","","","76","L","3","","","224","main_expt",""
"","bandit","304","1036088","0.0-266.0-0.0","66125708","wem/bandit_party_1","ADXHWQLUQBK77","either","4","409","","","","","","","0","0","1","","0.4815865163","0.6","0.8","0.4","0.2","0.08531446518","0.4035982493","0.1608447522","0.4815865163","","","","","","","","","","","","","","76","L","3","","","225","main_expt",""
"","bandit","305","1037949","0.0-267.0-0.0","66125708","wem/bandit_party_1","ADXHWQLUQBK77","either","4","341","","","","","","","0","0","1","","0.4781941344","0.6","0.8","0.4","0.2","0.0901010045","0.3538577565","0.2023183299","0.4781941344","","","","","","","","","","","","","","76","L","3","","","226","main_expt",""
"","bandit","306","1039792","0.0-268.0-0.0","66125708","wem/bandit_party_1","ADXHWQLUQBK77","either","4","324","","","","","","","0","0","1","","0.4742279627","0.6","0.8","0.4","0.2","0.06499555022","0.4205879778","0.1555458008","0.4742279627","","","","","","","","","","","","","","76","L","3","","","227","main_expt",""
"","bandit","307","1041615","0.0-269.0-0.0","66125708","wem/bandit_party_1","ADXHWQLUQBK77","either","4","313","","","","","","","0","0","1","","0.06967502077","0.6","0.8","0.4","0.2","0.06967502077","0.4082381823","0.1210896773","0.4597327255","","","","","","","","","","","","","","72","H","0","img/none_selected.jpg","","228","main_expt",""
"","bandit","308","1043239","0.0-270.0-0.0","66125708","wem/bandit_party_1","ADXHWQLUQBK77","either","4","104","","","","","","","1","0","0","0.07642173418","","0.6","0.8","0.4","0.2","","","","","0.07642173418","0.4274963613","0.1206830913","0.4733003713","","","","","","","","","","72","H","0","img/none_selected.jpg","","229","main_expt",""
"","bandit","309","1045091","0.0-271.0-0.0","66125708","wem/bandit_party_1","ADXHWQLUQBK77","either","4","333","","","","","","","0","0","1","","0.04973788902","0.6","0.8","0.4","0.2","0.04973788902","0.4362488765","0.1334008039","0.4832022084","","","","","","","","","","","","","","72","H","0","img/none_selected.jpg","","230","main_expt",""
"","bandit","310","1046812","0.0-272.0-0.0","66125708","wem/bandit_party_1","ADXHWQLUQBK77","either","4","200","","","","","","","0","1","0","","0.4802630573","0.6","0.8","0.4","0.2","0.07419495466","0.4420629534","0.1048467088","0.4802630573","","","","","","","","","","","","","","76","L","3","","","231","main_expt",""
"","bandit","311","1048596","0.0-273.0-0.0","66125708","wem/bandit_party_1","ADXHWQLUQBK77","either","4","262","","","","","","","0","1","0","","0.4739318499","0.6","0.8","0.4","0.2","0.08125260149","0.4287414635","0.1184002818","0.4739318499","","","","","","","","","","","","","","76","L","3","","","232","main_expt",""
"","bandit","312","1050457","0.0-274.0-0.0","66125708","wem/bandit_party_1","ADXHWQLUQBK77","either","4","339","","","","","","","0","1","0","","0.4709765286","0.6","0.8","0.4","0.2","0.06057073796","0.4395511981","0.08533064469","0.4709765286","","","","","","","","","","","","","","76","L","3","","","233","main_expt",""
"","bandit","313","1052268","0.0-275.0-0.0","66125708","wem/bandit_party_1","ADXHWQLUQBK77","either","4","298","","","","","","","0","0","1","","0.4658145356","0.6","0.8","0.4","0.2","0.1037411708","0.4479240545","0.1190123434","0.4658145356","","","","","","","","","","","","","","76","L","3","","","234","main_expt",""
"","bandit","314","1054105","0.0-276.0-0.0","66125708","wem/bandit_party_1","ADXHWQLUQBK77","either","4","317","","","","","","","0","1","0","","0.4312508187","0.6","0.8","0.4","0.2","0.1267441937","0.4476644646","0.1392024459","0.4312508187","","","","","","","","","","","","","","76","L","3","","","235","main_expt",""
"","bandit","315","1055923","0.0-277.0-0.0","66125708","wem/bandit_party_1","ADXHWQLUQBK77","either","4","296","","","","","","","0","0","1","","0.4323277229","0.6","0.8","0.4","0.2","0.1002206095","0.457106966","0.1076242464","0.4323277229","","","","","","","","","","","","","","76","L","3","","","236","main_expt",""
