"consent","trial_type","trial_index","time_elapsed","internal_node_id","subjID","study","MID","cond","drift","rt","responses","button_pressed","key_press","like","value","connected","gems","bombs","no_reward","GemPrChosen","BombPrChosen","GainOverPainPr_0","GainOverPainPr_1","GainOverPainPr_2","GainOverPainPr_3","LosePr_0","LosePr_1","LosePr_2","LosePr_3","WinPr_0","WinPr_1","WinPr_2","WinPr_3","Q0","Q1","Q2","gender","age","ethnicity","label","expt_phase","target","respCharCode","respKey","respChoiceNum","respChoice","practice","trial_counter","trial_label","Q0_index"
"GDM/GDM_behavioral_consent_30min_online.html","consent","0","12892","0.0-0.0","66310027","wem/bandit_party_1","A3URNV625JS985","either","1","","","","","","","","","","","","","","","","","","","","","","","","","","","","","","","","","","","","","","","","",""
"","survey-text","1","21765","0.0-1.0","66310027","wem/bandit_party_1","A3URNV625JS985","either","1","7847","{""Q0"":""A3URNV625JS985""}","","","","","","","","","","","","","","","","","","","","","","","","","","","","","","","","","","","","","","",""
"","button-response","2","27090","0.0-2.0","66310027","wem/bandit_party_1","A3URNV625JS985","either","1","4310","","1","","","","","","","","","","","","","","","","","","","","","","","","","","","","","","","","","","","","","",""
"","text-replacement","3","46759","0.0-3.0","66310027","wem/bandit_party_1","A3URNV625JS985","either","1","18660","","","32","","","","","","","","","","","","","","","","","","","","","","","","","","","","","","","","","","","","",""
"","text-replacement","4","54847","0.0-4.0","66310027","wem/bandit_party_1","A3URNV625JS985","either","1","8084","","","32","","","","","","","","","","","","","","","","","","","","","","","","","","","","","","","","","","","","",""
"","identification","5","67273","0.0-6.0-0.0","66310027","wem/bandit_party_1","A3URNV625JS985","either","1","12369","","","","3","4","4","","","","","","","","","","","","","","","","","","","","","","","","pre","identification_pre","the Democratic Party","","","","","","","",""
"","identification","6","78060","0.0-6.0-1.0","66310027","wem/bandit_party_1","A3URNV625JS985","either","1","9735","","","","2","2","1","","","","","","","","","","","","","","","","","","","","","","","","pre","identification_pre","the Republican party","","","","","","","",""
"","text-replacement","7","86324","0.0-7.0","66310027","wem/bandit_party_1","A3URNV625JS985","either","1","7260","","","32","","","","","","","","","","","","","","","","","","","","","","","","","","","","","","","","","","","","",""
"","text-replacement","8","93639","0.0-8.0","66310027","wem/bandit_party_1","A3URNV625JS985","either","1","7311","","","32","","","","","","","","","","","","","","","","","","","","","","","","","","","","","","","","","","","","",""
"","text-replacement","9","104466","0.0-9.0","66310027","wem/bandit_party_1","A3URNV625JS985","either","1","10818","","","32","","","","","","","","","","","","","","","","","","","","","","","","","","","","","","","","","","","","",""
"","text-replacement","10","107402","0.0-10.0","66310027","wem/bandit_party_1","A3URNV625JS985","either","1","2930","","","32","","","","","","","","","","","","","","","","","","","","","","","","","","","","","","","","","","","","",""
"","text-replacement","11","115382","0.0-11.0","66310027","wem/bandit_party_1","A3URNV625JS985","either","1","7976","","","32","","","","","","","","","","","","","","","","","","","","","","","","","","","","","","","","","","","","",""
"","bandit","12","120137","0.0-12.0-0.0","66310027","wem/bandit_party_1","A3URNV625JS985","either","1","3238","","","","","","","0","0","1","0","0","","","","","0","","","","0","","","","","","","","","","","","","74","J","0","img/none_selected_demo.jpg","true","0","",""
"","bandit","13","122447","0.0-13.0-0.0","66310027","wem/bandit_party_1","A3URNV625JS985","either","1","795","","","","","","","0","0","1","0","0","","","","","0","","","","0","","","","","","","","","","","","","75","K","0","img/none_selected_demo.jpg","true","0","",""
"","text-replacement","14","131812","0.0-14.0","66310027","wem/bandit_party_1","A3URNV625JS985","either","1","9358","","","32","","","","","","","","","","","","","","","","","","","","","","","","","","","","","","","","","","","","",""
"","text-replacement","15","137985","0.0-15.0","66310027","wem/bandit_party_1","A3URNV625JS985","either","1","6167","","","32","","","","","","","","","","","","","","","","","","","","","","","","","","","","","","","","","","","","",""
"","text-replacement","16","144844","0.0-16.0","66310027","wem/bandit_party_1","A3URNV625JS985","either","1","6854","","","32","","","","","","","","","","","","","","","","","","","","","","","","","","","","","","","","","","","","",""
"","text-replacement","17","155696","0.0-17.0","66310027","wem/bandit_party_1","A3URNV625JS985","either","1","10848","","","32","","","","","","","","","","","","","","","","","","","","","","","","","","","","","","","","","","","","",""
"","bandit","18","158052","0.0-18.0-0.0","66310027","wem/bandit_party_1","A3URNV625JS985","either","1","843","","","","","","","0","1","0","","0.8","0.5","0.5","","","0.8","0.2","","","","","","","","","","","","","","","","74","J","0","img/none_selected_demo.jpg","true","0","80_20_practice",""
"","bandit","19","160374","0.0-18.0-1.0","66310027","wem/bandit_party_1","A3URNV625JS985","either","1","806","","","","","","","0","1","0","","0.8","0.5","0.5","","","0.8","0.2","","","","","","","","","","","","","","","","74","J","0","img/none_selected_demo.jpg","true","0","80_20_practice",""
"","bandit","20","162569","0.0-18.0-2.0","66310027","wem/bandit_party_1","A3URNV625JS985","either","1","674","","","","","","","0","1","0","","0.8","0.5","0.5","","","0.8","0.2","","","","","","","","","","","","","","","","74","J","0","img/none_selected_demo.jpg","true","0","80_20_practice",""
"","bandit","21","164616","0.0-18.0-3.0","66310027","wem/bandit_party_1","A3URNV625JS985","either","1","527","","","","","","","0","0","1","","0.2","0.5","0.5","","","0.8","0.2","","","","","","","","","","","","","","","","75","K","1","","true","0","80_20_practice",""
"","bandit","22","166400","0.0-18.0-4.0","66310027","wem/bandit_party_1","A3URNV625JS985","either","1","265","","","","","","","0","0","1","0.2","","0.5","0.5","","","","","","","0.8","0.2","","","","","","","","","","","","75","K","1","","true","0","80_20_practice",""
"","bandit","23","168173","0.0-18.0-5.0","66310027","wem/bandit_party_1","A3URNV625JS985","either","1","239","","","","","","","0","1","0","","0.8","0.5","0.5","","","0.8","0.2","","","","","","","","","","","","","","","","74","J","0","img/none_selected_demo.jpg","true","0","80_20_practice",""
"","bandit","24","169954","0.0-18.0-6.0","66310027","wem/bandit_party_1","A3URNV625JS985","either","1","264","","","","","","","0","1","0","","0.8","0.5","0.5","","","0.8","0.2","","","","","","","","","","","","","","","","74","J","0","img/none_selected_demo.jpg","true","0","80_20_practice",""
"","bandit","25","171754","0.0-18.0-7.0","66310027","wem/bandit_party_1","A3URNV625JS985","either","1","288","","","","","","","0","1","0","","0.8","0.5","0.5","","","0.8","0.2","","","","","","","","","","","","","","","","74","J","0","img/none_selected_demo.jpg","true","0","80_20_practice",""
"","bandit","26","173523","0.0-18.0-8.0","66310027","wem/bandit_party_1","A3URNV625JS985","either","1","253","","","","","","","0","1","0","","0.8","0.5","0.5","","","0.8","0.2","","","","","","","","","","","","","","","","74","J","0","img/none_selected_demo.jpg","true","0","80_20_practice",""
"","bandit","27","175333","0.0-18.0-9.0","66310027","wem/bandit_party_1","A3URNV625JS985","either","1","295","","","","","","","1","0","0","0.8","","0.5","0.5","","","","","","","0.8","0.2","","","","","","","","","","","","74","J","0","img/none_selected_demo.jpg","true","0","80_20_practice",""
"","bandit","28","177101","0.0-18.0-10.0","66310027","wem/bandit_party_1","A3URNV625JS985","either","1","255","","","","","","","0","1","0","","0.8","0.5","0.5","","","0.8","0.2","","","","","","","","","","","","","","","","74","J","0","img/none_selected_demo.jpg","true","0","80_20_practice",""
"","bandit","29","178922","0.0-18.0-11.0","66310027","wem/bandit_party_1","A3URNV625JS985","either","1","302","","","","","","","1","0","0","0.8","","0.5","0.5","","","","","","","0.8","0.2","","","","","","","","","","","","74","J","0","img/none_selected_demo.jpg","true","0","80_20_practice",""
"","bandit","30","180688","0.0-18.0-12.0","66310027","wem/bandit_party_1","A3URNV625JS985","either","1","249","","","","","","","1","0","0","0.8","","0.5","0.5","","","","","","","0.8","0.2","","","","","","","","","","","","74","J","0","img/none_selected_demo.jpg","true","0","80_20_practice",""
"","bandit","31","182433","0.0-18.0-13.0","66310027","wem/bandit_party_1","A3URNV625JS985","either","1","228","","","","","","","0","1","0","","0.8","0.5","0.5","","","0.8","0.2","","","","","","","","","","","","","","","","74","J","0","img/none_selected_demo.jpg","true","0","80_20_practice",""
"","bandit","32","184223","0.0-18.0-14.0","66310027","wem/bandit_party_1","A3URNV625JS985","either","1","274","","","","","","","1","0","0","0.8","","0.5","0.5","","","","","","","0.8","0.2","","","","","","","","","","","","74","J","0","img/none_selected_demo.jpg","true","0","80_20_practice",""
"","bandit","33","186033","0.0-18.0-15.0","66310027","wem/bandit_party_1","A3URNV625JS985","either","1","295","","","","","","","0","0","1","0.8","","0.5","0.5","","","","","","","0.8","0.2","","","","","","","","","","","","74","J","0","img/none_selected_demo.jpg","true","0","80_20_practice",""
"","bandit","34","187770","0.0-18.0-16.0","66310027","wem/bandit_party_1","A3URNV625JS985","either","1","221","","","","","","","0","1","0","","0.8","0.5","0.5","","","0.8","0.2","","","","","","","","","","","","","","","","74","J","0","img/none_selected_demo.jpg","true","0","80_20_practice",""
"","bandit","35","189551","0.0-18.0-17.0","66310027","wem/bandit_party_1","A3URNV625JS985","either","1","268","","","","","","","0","0","1","0.8","","0.5","0.5","","","","","","","0.8","0.2","","","","","","","","","","","","74","J","0","img/none_selected_demo.jpg","true","0","80_20_practice",""
"","bandit","36","191119","0.0-18.0-18.0","66310027","wem/bandit_party_1","A3URNV625JS985","either","1","57","","","","","","","1","0","0","0.8","","0.5","0.5","","","","","","","0.8","0.2","","","","","","","","","","","","74","J","0","img/none_selected_demo.jpg","true","0","80_20_practice",""
"","bandit","37","192859","0.0-18.0-19.0","66310027","wem/bandit_party_1","A3URNV625JS985","either","1","229","","","","","","","0","1","0","","0.8","0.5","0.5","","","0.8","0.2","","","","","","","","","","","","","","","","74","J","0","img/none_selected_demo.jpg","true","0","80_20_practice",""
"","text-replacement","38","198110","0.0-19.0","66310027","wem/bandit_party_1","A3URNV625JS985","either","1","5243","","","32","","","","","","","","","","","","","","","","","","","","","","","","","","","","","","","","","","","","",""
"","bandit","39","200424","0.0-20.0-0.0","66310027","wem/bandit_party_1","A3URNV625JS985","either","1","803","","","","","","","1","0","0","1","0","","","","","0","1","","","1","0","","","","","","","","","","","","74","J","0","img/none_selected_demo.jpg","true","0","",""
"","text-replacement","40","205584","0.0-21.0","66310027","wem/bandit_party_1","A3URNV625JS985","either","1","5154","","","32","","","","","","","","","","","","","","","","","","","","","","","","","","","","","","","","","","","","",""
"","text-replacement","41","208475","0.0-22.0","66310027","wem/bandit_party_1","A3URNV625JS985","either","1","2886","","","32","","","","","","","","","","","","","","","","","","","","","","","","","","","","","","","","","","","","",""
"","text-replacement","42","210965","0.0-23.0","66310027","wem/bandit_party_1","A3URNV625JS985","either","1","2483","","","32","","","","","","","","","","","","","","","","","","","","","","","","","","","","","","","","","","","","",""
"","text-replacement","43","215264","0.0-24.0","66310027","wem/bandit_party_1","A3URNV625JS985","either","1","4295","","","32","","","","","","","","","","","","","","","","","","","","","","","","","","","","","","","","","","","","",""
"","text-replacement","44","221074","0.0-25.0","66310027","wem/bandit_party_1","A3URNV625JS985","either","1","5805","","","32","","","","","","","","","","","","","","","","","","","","","","","","","","","","","","","","","","","","",""
"","text-replacement","45","223651","0.0-26.0","66310027","wem/bandit_party_1","A3URNV625JS985","either","1","2573","","","32","","","","","","","","","","","","","","","","","","","","","","","","","","","","","","","","","","","","",""
"","text-replacement","46","227307","0.0-27.0","66310027","wem/bandit_party_1","A3URNV625JS985","either","1","3650","","","32","","","","","","","","","","","","","","","","","","","","","","","","","","","","","","","","","","","","",""
"","text-replacement","47","230921","0.0-28.0","66310027","wem/bandit_party_1","A3URNV625JS985","either","1","3605","","","32","","","","","","","","","","","","","","","","","","","","","","","","","","","","","","","","","","","","",""
"","text-replacement","48","234463","0.0-29.0","66310027","wem/bandit_party_1","A3URNV625JS985","either","1","3537","","","32","","","","","","","","","","","","","","","","","","","","","","","","","","","","","","","","","","","","",""
"","text-replacement","49","236285","0.0-30.0","66310027","wem/bandit_party_1","A3URNV625JS985","either","1","1817","","","32","","","","","","","","","","","","","","","","","","","","","","","","","","","","","","","","","","","","",""
"","text-replacement","50","247865","0.0-31.0","66310027","wem/bandit_party_1","A3URNV625JS985","either","1","11575","","","32","","","","","","","","","","","","","","","","","","","","","","","","","","","","","","","","","","","","",""
"","bandit","51","251049","0.0-32.0-0.0","66310027","wem/bandit_party_1","A3URNV625JS985","either","1","1659","","","","","","","0","0","1","","0.2","0.5","0.5","0.5","0.5","0.8","0.2","0.6","0.2","","","","","","","","","","","","","","74","J","1","","true","0","full_practice",""
"","bandit","52","252882","0.0-32.0-1.0","66310027","wem/bandit_party_1","A3URNV625JS985","either","1","317","","","","","","","0","0","1","0.2","","0.5","0.5","0.5","0.5","","","","","0.8","0.2","0.6","0.2","","","","","","","","","","74","J","1","","true","0","full_practice",""
"","bandit","53","254691","0.0-32.0-2.0","66310027","wem/bandit_party_1","A3URNV625JS985","either","1","295","","","","","","","0","1","0","","0.8","0.5","0.5","0.5","0.5","0.8","0.2","0.6","0.2","","","","","","","","","","","","","","72","H","0","img/none_selected.jpg","true","0","full_practice",""
"","bandit","54","256550","0.0-32.0-3.0","66310027","wem/bandit_party_1","A3URNV625JS985","either","1","342","","","","","","","1","0","0","0.8","","0.5","0.5","0.5","0.5","","","","","0.8","0.2","0.6","0.2","","","","","","","","","","72","H","0","img/none_selected.jpg","true","0","full_practice",""
"","bandit","55","258328","0.0-32.0-4.0","66310027","wem/bandit_party_1","A3URNV625JS985","either","1","262","","","","","","","0","1","0","","0.8","0.5","0.5","0.5","0.5","0.8","0.2","0.6","0.2","","","","","","","","","","","","","","72","H","0","img/none_selected.jpg","true","0","full_practice",""
"","bandit","56","260090","0.0-32.0-5.0","66310027","wem/bandit_party_1","A3URNV625JS985","either","1","246","","","","","","","0","1","0","","0.8","0.5","0.5","0.5","0.5","0.8","0.2","0.6","0.2","","","","","","","","","","","","","","72","H","0","img/none_selected.jpg","true","0","full_practice",""
"","bandit","57","261843","0.0-32.0-6.0","66310027","wem/bandit_party_1","A3URNV625JS985","either","1","233","","","","","","","1","0","0","0.8","","0.5","0.5","0.5","0.5","","","","","0.8","0.2","0.6","0.2","","","","","","","","","","72","H","0","img/none_selected.jpg","true","0","full_practice",""
"","bandit","58","263619","0.0-32.0-7.0","66310027","wem/bandit_party_1","A3URNV625JS985","either","1","258","","","","","","","0","1","0","","0.8","0.5","0.5","0.5","0.5","0.8","0.2","0.6","0.2","","","","","","","","","","","","","","72","H","0","img/none_selected.jpg","true","0","full_practice",""
"","bandit","59","265367","0.0-32.0-8.0","66310027","wem/bandit_party_1","A3URNV625JS985","either","1","233","","","","","","","1","0","0","0.8","","0.5","0.5","0.5","0.5","","","","","0.8","0.2","0.6","0.2","","","","","","","","","","72","H","0","img/none_selected.jpg","true","0","full_practice",""
"","bandit","60","267151","0.0-32.0-9.0","66310027","wem/bandit_party_1","A3URNV625JS985","either","1","266","","","","","","","0","1","0","","0.8","0.5","0.5","0.5","0.5","0.8","0.2","0.6","0.2","","","","","","","","","","","","","","72","H","0","img/none_selected.jpg","true","0","full_practice",""
"","bandit","61","268838","0.0-32.0-10.0","66310027","wem/bandit_party_1","A3URNV625JS985","either","1","174","","","","","","","1","0","0","0.8","","0.5","0.5","0.5","0.5","","","","","0.8","0.2","0.6","0.2","","","","","","","","","","72","H","0","img/none_selected.jpg","true","0","full_practice",""
"","bandit","62","270538","0.0-32.0-11.0","66310027","wem/bandit_party_1","A3URNV625JS985","either","1","183","","","","","","","1","0","0","0.8","","0.5","0.5","0.5","0.5","","","","","0.8","0.2","0.6","0.2","","","","","","","","","","72","H","0","img/none_selected.jpg","true","0","full_practice",""
"","bandit","63","272350","0.0-32.0-12.0","66310027","wem/bandit_party_1","A3URNV625JS985","either","1","295","","","","","","","1","0","0","0.8","","0.5","0.5","0.5","0.5","","","","","0.8","0.2","0.6","0.2","","","","","","","","","","72","H","0","img/none_selected.jpg","true","0","full_practice",""
"","bandit","64","274121","0.0-32.0-13.0","66310027","wem/bandit_party_1","A3URNV625JS985","either","1","256","","","","","","","1","0","0","0.8","","0.5","0.5","0.5","0.5","","","","","0.8","0.2","0.6","0.2","","","","","","","","","","72","H","0","img/none_selected.jpg","true","0","full_practice",""
"","bandit","65","275872","0.0-32.0-14.0","66310027","wem/bandit_party_1","A3URNV625JS985","either","1","231","","","","","","","1","0","0","0.8","","0.5","0.5","0.5","0.5","","","","","0.8","0.2","0.6","0.2","","","","","","","","","","72","H","0","img/none_selected.jpg","true","0","full_practice",""
"","bandit","66","277598","0.0-32.0-15.0","66310027","wem/bandit_party_1","A3URNV625JS985","either","1","213","","","","","","","0","1","0","","0.8","0.5","0.5","0.5","0.5","0.8","0.2","0.6","0.2","","","","","","","","","","","","","","72","H","0","img/none_selected.jpg","true","0","full_practice",""
"","bandit","67","279381","0.0-32.0-16.0","66310027","wem/bandit_party_1","A3URNV625JS985","either","1","266","","","","","","","0","1","0","","0.8","0.5","0.5","0.5","0.5","0.8","0.2","0.6","0.2","","","","","","","","","","","","","","72","H","0","img/none_selected.jpg","true","0","full_practice",""
"","bandit","68","281115","0.0-32.0-17.0","66310027","wem/bandit_party_1","A3URNV625JS985","either","1","222","","","","","","","0","0","1","","0.8","0.5","0.5","0.5","0.5","0.8","0.2","0.6","0.2","","","","","","","","","","","","","","72","H","0","img/none_selected.jpg","true","0","full_practice",""
"","bandit","69","282872","0.0-32.0-18.0","66310027","wem/bandit_party_1","A3URNV625JS985","either","1","242","","","","","","","1","0","0","0.8","","0.5","0.5","0.5","0.5","","","","","0.8","0.2","0.6","0.2","","","","","","","","","","72","H","0","img/none_selected.jpg","true","0","full_practice",""
"","bandit","70","284644","0.0-32.0-19.0","66310027","wem/bandit_party_1","A3URNV625JS985","either","1","245","","","","","","","0","0","1","0.8","","0.5","0.5","0.5","0.5","","","","","0.8","0.2","0.6","0.2","","","","","","","","","","72","H","0","img/none_selected.jpg","true","0","full_practice",""
"","text","71","289223","0.0-33.0","66310027","wem/bandit_party_1","A3URNV625JS985","either","1","4563","","","32","","","","","","","","","","","","","","","","","","","","","","","","","","","","","","","","","","","","",""
"","text-replacement","72","317309","0.0-34.0","66310027","wem/bandit_party_1","A3URNV625JS985","either","1","27078","","","32","","","","","","","","","","","","","","","","","","","","","","","","","","","","","","","","","","","","",""
"","text-replacement","73","327124","0.0-35.0","66310027","wem/bandit_party_1","A3URNV625JS985","either","1","9809","","","32","","","","","","","","","","","","","","","","","","","","","","","","","","","","","","","","","","","","",""
"","text-replacement","74","331939","0.0-36.0","66310027","wem/bandit_party_1","A3URNV625JS985","either","1","4806","","","32","","","","","","","","","","","","","","","","","","","","","","","","","","","","","","","","","","","","",""
"","text-replacement","75","336831","0.0-37.0","66310027","wem/bandit_party_1","A3URNV625JS985","either","1","4886","","","32","","","","","","","","","","","","","","","","","","","","","","","","","","","","","","","","","","","","",""
"","text-replacement","76","341229","0.0-38.0","66310027","wem/bandit_party_1","A3URNV625JS985","either","1","4390","","","32","","","","","","","","","","","","","","","","","","","","","","","","","","","","","","","","","","","","",""
"","survey-multi-choice-replacement","77","349371","0.0-39.0-0.0","66310027","wem/bandit_party_1","A3URNV625JS985","either","1","8100","","","","","","","","","","","","","","","","","","","","","","","","Money will be added to the pool for <span style='color:blue;'>DEMOCRATS</span>","","","","","","","attn_check","","","","","","","","","0"
"","survey-multi-choice-replacement","78","356720","0.0-40.0-0.0","66310027","wem/bandit_party_1","A3URNV625JS985","either","1","6324","","","","","","","","","","","","","","","","","","","","","","","","Equal amounts of money will be added to the pool for <span style='color:blue;'>DEMOCRATS</span> and subtracted from the pool for <span style='color:red;'>REPUBLICANS</span>","","","","","","","attn_check","","","","","","","","","2"
"","survey-multi-choice-replacement","79","361860","0.0-41.0-0.0","66310027","wem/bandit_party_1","A3URNV625JS985","either","1","4120","","","","","","","","","","","","","","","","","","","","","","","","No money will be added to either pool","","","","","","","attn_check","","","","","","","","","3"
"","bandit","80","366875","0.0-42.0-0.0","66310027","wem/bandit_party_1","A3URNV625JS985","either","1","2493","","","","","","","0","0","1","","0.0798457429","0.2","0.6","0.4","0.8","0.0798457429","0.4269289603","0.02943109976","0.3592836462","","","","","","","","","","","","","","72","H","0","img/none_selected.jpg","","1","main_expt",""
"","bandit","81","368965","0.0-43.0-0.0","66310027","wem/bandit_party_1","A3URNV625JS985","either","1","573","","","","","","","0","0","1","","0.4660243271","0.2","0.6","0.4","0.8","0.07621336767","0.4660243271","0.06336112212","0.3454903542","","","","","","","","","","","","","","74","J","1","","","2","main_expt",""
"","bandit","82","370857","0.0-44.0-0.0","66310027","wem/bandit_party_1","A3URNV625JS985","either","1","375","","","","","","","0","0","1","0.07335687118","","0.2","0.6","0.4","0.8","","","","","0.07476295528","0.4738503749","0.07335687118","0.2941512374","","","","","","","","","","75","K","2","","","3","main_expt",""
"","bandit","83","372701","0.0-45.0-0.0","66310027","wem/bandit_party_1","A3URNV625JS985","either","1","327","","","","","","","0","0","1","","0.2851241965","0.2","0.6","0.4","0.8","0.06526985361","0.4618500418","0.06156305515","0.2851241965","","","","","","","","","","","","","","76","L","3","","","4","main_expt",""
"","bandit","84","374587","0.0-46.0-0.0","66310027","wem/bandit_party_1","A3URNV625JS985","either","1","368","","","","","","","0","0","1","","0.05487735528","0.2","0.6","0.4","0.8","0.05487735528","0.4488935273","0.08141194251","0.3172925843","","","","","","","","","","","","","","72","H","0","img/none_selected.jpg","","5","main_expt",""
"","bandit","85","376429","0.0-47.0-0.0","66310027","wem/bandit_party_1","A3URNV625JS985","either","1","325","","","","","","","0","0","1","","0.04340015571","0.2","0.6","0.4","0.8","0.04340015571","0.4437832297","0.1104821702","0.3319153021","","","","","","","","","","","","","","72","H","0","img/none_selected.jpg","","6","main_expt",""
"","bandit","86","378236","0.0-48.0-0.0","66310027","wem/bandit_party_1","A3URNV625JS985","either","1","291","","","","","","","0","0","1","0.4310077805","","0.2","0.6","0.4","0.8","","","","","0.04575060371","0.4310077805","0.1191408541","0.3553039772","","","","","","","","","","74","J","1","","","7","main_expt",""
"","bandit","87","380147","0.0-49.0-0.0","66310027","wem/bandit_party_1","A3URNV625JS985","either","1","387","","","","","","","0","0","1","0.4480386191","","0.2","0.6","0.4","0.8","","","","","0.06112087539","0.4480386191","0.1517570037","0.3868093767","","","","","","","","","","74","J","1","","","8","main_expt",""
"","bandit","88","381908","0.0-50.0-0.0","66310027","wem/bandit_party_1","A3URNV625JS985","either","1","243","","","","","","","0","0","1","","0.1738087075","0.2","0.6","0.4","0.8","0.07854191076","0.4460224538","0.1738087075","0.3754406694","","","","","","","","","","","","","","75","K","2","","","9","main_expt",""
"","bandit","89","383782","0.0-51.0-0.0","66310027","wem/bandit_party_1","A3URNV625JS985","either","1","338","","","","","","","0","0","1","0.3537433427","","0.2","0.6","0.4","0.8","","","","","0.06865483858","0.3954493452","0.2033535465","0.3537433427","","","","","","","","","","76","L","3","","","10","main_expt",""
"","bandit","90","385543","0.0-52.0-0.0","66310027","wem/bandit_party_1","A3URNV625JS985","either","1","235","","","","","","","0","0","1","","0.3793358735","0.2","0.6","0.4","0.8","0.05083805298","0.4064238371","0.1751631116","0.3793358735","","","","","","","","","","","","","","76","L","3","","","11","main_expt",""
"","bandit","91","387327","0.0-53.0-0.0","66310027","wem/bandit_party_1","A3URNV625JS985","either","1","267","","","","","","","0","1","0","","0.3800428212","0.2","0.6","0.4","0.8","0.1038792476","0.3800839449","0.1787487179","0.3800428212","","","","","","","","","","","","","","76","L","3","","","12","main_expt",""
"","bandit","92","389085","0.0-54.0-0.0","66310027","wem/bandit_party_1","A3URNV625JS985","either","1","242","","","","","","","1","0","0","0.3647981021","","0.2","0.6","0.4","0.8","","","","","0.1197284353","0.3866628193","0.1794712961","0.3647981021","","","","","","","","","","76","L","3","","","13","main_expt",""
"","bandit","93","390843","0.0-55.0-0.0","66310027","wem/bandit_party_1","A3URNV625JS985","either","1","241","","","","","","","0","1","0","","0.3646471907","0.2","0.6","0.4","0.8","0.135681701","0.326509825","0.2482140722","0.3646471907","","","","","","","","","","","","","","76","L","3","","","14","main_expt",""
"","bandit","94","392584","0.0-56.0-0.0","66310027","wem/bandit_party_1","A3URNV625JS985","either","1","223","","","","","","","0","0","1","","0.3549291363","0.2","0.6","0.4","0.8","0.125153919","0.2428529647","0.2859415589","0.3549291363","","","","","","","","","","","","","","76","L","3","","","15","main_expt",""
"","bandit","95","394268","0.0-57.0-0.0","66310027","wem/bandit_party_1","A3URNV625JS985","either","1","163","","","","","","","0","0","1","0.3727350689","","0.2","0.6","0.4","0.8","","","","","0.1096891688","0.2332962783","0.26587149","0.3727350689","","","","","","","","","","76","L","3","","","16","main_expt",""
"","bandit","96","395903","0.0-58.0-0.0","66310027","wem/bandit_party_1","A3URNV625JS985","either","1","120","","","","","","","0","0","1","","0.3112083829","0.2","0.6","0.4","0.8","0.1051581447","0.2271032234","0.2776265896","0.3112083829","","","","","","","","","","","","","","76","L","3","","","17","main_expt",""
"","bandit","97","397531","0.0-59.0-0.0","66310027","wem/bandit_party_1","A3URNV625JS985","either","1","105","","","","","","","0","0","1","","0.3223387563","0.2","0.6","0.4","0.8","0.1437943492","0.1701710303","0.3223387563","0.2403081055","","","","","","","","","","","","","","75","K","2","","","18","main_expt",""
"","bandit","98","399220","0.0-60.0-0.0","66310027","wem/bandit_party_1","A3URNV625JS985","either","1","171","","","","","","","0","0","1","","0.3192918255","0.2","0.6","0.4","0.8","0.1405615485","0.2070198111","0.3192918255","0.2377482675","","","","","","","","","","","","","","75","K","2","","","19","main_expt",""
"","bandit","99","400954","0.0-61.0-0.0","66310027","wem/bandit_party_1","A3URNV625JS985","either","1","206","","","","","","","0","1","0","","0.2739159796","0.2","0.6","0.4","0.8","0.1063334751","0.2412547966","0.2739159796","0.2607530295","","","","","","","","","","","","","","75","K","2","","","20","main_expt",""
"","bandit","100","402689","0.0-62.0-0.0","66310027","wem/bandit_party_1","A3URNV625JS985","either","1","213","","","","","","","0","0","1","0.2454385858","","0.2","0.6","0.4","0.8","","","","","0.07848250716","0.2184758186","0.2454385858","0.2919400674","","","","","","","","","","75","K","2","","","21","main_expt",""
"","bandit","101","404395","0.0-63.0-0.0","66310027","wem/bandit_party_1","A3URNV625JS985","either","1","186","","","","","","","0","0","1","","0.2340842041","0.2","0.6","0.4","0.8","0.1005082742","0.1849325376","0.2340842041","0.2995681058","","","","","","","","","","","","","","75","K","2","","","22","main_expt",""
"","bandit","102","406049","0.0-64.0-0.0","66310027","wem/bandit_party_1","A3URNV625JS985","either","1","134","","","","","","","0","0","1","","0.0792694407","0.2","0.6","0.4","0.8","0.0792694407","0.1521197653","0.1840173947","0.292554742","","","","","","","","","","","","","","72","H","0","img/none_selected.jpg","","23","main_expt",""
"","bandit","103","407850","0.0-65.0-0.0","66310027","wem/bandit_party_1","A3URNV625JS985","either","1","281","","","","","","","0","0","1","","0.07358699385","0.2","0.6","0.4","0.8","0.07358699385","0.1759403195","0.1745529383","0.3616894364","","","","","","","","","","","","","","72","H","0","img/none_selected.jpg","","24","main_expt",""
"","bandit","104","409615","0.0-66.0-0.0","66310027","wem/bandit_party_1","A3URNV625JS985","either","1","249","","","","","","","0","1","0","","0.142208116","0.2","0.6","0.4","0.8","0.142208116","0.09479311865","0.1756582033","0.3575757263","","","","","","","","","","","","","","72","H","0","img/none_selected.jpg","","25","main_expt",""
"","bandit","105","411326","0.0-67.0-0.0","66310027","wem/bandit_party_1","A3URNV625JS985","either","1","190","","","","","","","0","0","1","","0.1245113583","0.2","0.6","0.4","0.8","0.1245113583","0.08156123497","0.2086365416","0.3635346368","","","","","","","","","","","","","","72","H","0","img/none_selected.jpg","","26","main_expt",""
"","bandit","106","413077","0.0-68.0-0.0","66310027","wem/bandit_party_1","A3URNV625JS985","either","1","235","","","","","","","0","0","1","","0.118364605","0.2","0.6","0.4","0.8","0.118364605","0.1102307873","0.2139763749","0.4109801844","","","","","","","","","","","","","","72","H","0","img/none_selected.jpg","","27","main_expt",""
"","bandit","107","414659","0.0-69.0-0.0","66310027","wem/bandit_party_1","A3URNV625JS985","either","1","63","","","","","","","0","0","1","","0.08274430796","0.2","0.6","0.4","0.8","0.1105930361","0.08274430796","0.1613483267","0.3772962545","","","","","","","","","","","","","","74","J","1","","","28","main_expt",""
"","bandit","108","416457","0.0-70.0-0.0","66310027","wem/bandit_party_1","A3URNV625JS985","either","1","278","","","","","","","0","0","1","0.1086911099","","0.2","0.6","0.4","0.8","","","","","0.1118713044","0.1086911099","0.1712488152","0.3875745016","","","","","","","","","","74","J","1","","","29","main_expt",""
"","bandit","109","418249","0.0-71.0-0.0","66310027","wem/bandit_party_1","A3URNV625JS985","either","1","263","","","","","","","0","0","1","","0.1116575632","0.2","0.6","0.4","0.8","0.1914750456","0.1116575632","0.1675524316","0.3780019893","","","","","","","","","","","","","","74","J","1","","","30","main_expt",""
"","bandit","110","420046","0.0-72.0-0.0","66310027","wem/bandit_party_1","A3URNV625JS985","either","1","274","","","","","","","0","0","1","0.07828091442","","0.2","0.6","0.4","0.8","","","","","0.2367730164","0.07828091442","0.140325158","0.416860241","","","","","","","","","","74","J","1","","","31","main_expt",""
"","bandit","111","421818","0.0-73.0-0.0","66310027","wem/bandit_party_1","A3URNV625JS985","either","1","257","","","","","","","1","0","0","0.4242573056","","0.2","0.6","0.4","0.8","","","","","0.2109574779","0.07550395781","0.1553940025","0.4242573056","","","","","","","","","","76","L","3","","","32","main_expt",""
"","bandit","112","423666","0.0-74.0-0.0","66310027","wem/bandit_party_1","A3URNV625JS985","either","1","326","","","","","","","0","0","1","0.4185546122","","0.2","0.6","0.4","0.8","","","","","0.2005542758","0.1445529326","0.1925614924","0.4185546122","","","","","","","","","","76","L","3","","","33","main_expt",""
"","bandit","113","425502","0.0-75.0-0.0","66310027","wem/bandit_party_1","A3URNV625JS985","either","1","312","","","","","","","1","0","0","0.4268308419","","0.2","0.6","0.4","0.8","","","","","0.180377021","0.1091775744","0.2150530123","0.4268308419","","","","","","","","","","76","L","3","","","34","main_expt",""
"","bandit","114","427369","0.0-76.0-0.0","66310027","wem/bandit_party_1","A3URNV625JS985","either","1","347","","","","","","","1","0","0","0.4265642185","","0.2","0.6","0.4","0.8","","","","","0.2111187229","0.1297995116","0.2688968874","0.4265642185","","","","","","","","","","76","L","3","","","35","main_expt",""
"","bandit","115","429175","0.0-77.0-0.0","66310027","wem/bandit_party_1","A3URNV625JS985","either","1","290","","","","","","","0","0","1","0.4066287969","","0.2","0.6","0.4","0.8","","","","","0.2119332756","0.09468550628","0.2977459964","0.4066287969","","","","","","","","","","76","L","3","","","36","main_expt",""
"","bandit","116","430984","0.0-78.0-0.0","66310027","wem/bandit_party_1","A3URNV625JS985","either","1","288","","","","","","","0","0","1","0.4611471687","","0.2","0.6","0.4","0.8","","","","","0.2256131965","0.09396978408","0.2684429955","0.4611471687","","","","","","","","","","76","L","3","","","37","main_expt",""
"","bandit","117","432788","0.0-79.0-0.0","66310027","wem/bandit_party_1","A3URNV625JS985","either","1","282","","","","","","","0","0","1","0.4482708269","","0.2","0.6","0.4","0.8","","","","","0.1975147253","0.1062257399","0.2490186117","0.4482708269","","","","","","","","","","76","L","3","","","38","main_expt",""
"","bandit","118","434556","0.0-80.0-0.0","66310027","wem/bandit_party_1","A3URNV625JS985","either","1","246","","","","","","","1","0","0","0.4402774387","","0.2","0.6","0.4","0.8","","","","","0.1595648847","0.09676453159","0.2548033483","0.4402774387","","","","","","","","","","76","L","3","","","39","main_expt",""
"","bandit","119","436333","0.0-81.0-0.0","66310027","wem/bandit_party_1","A3URNV625JS985","either","1","253","","","","","","","0","0","1","0.4385128538","","0.2","0.6","0.4","0.8","","","","","0.1626610004","0.08197179495","0.2688720753","0.4385128538","","","","","","","","","","76","L","3","","","40","main_expt",""
"","bandit","120","438097","0.0-82.0-0.0","66310027","wem/bandit_party_1","A3URNV625JS985","either","1","240","","","","","","","0","0","1","0.4380640779","","0.2","0.6","0.4","0.8","","","","","0.1982402655","0.14416382","0.297778532","0.4380640779","","","","","","","","","","76","L","3","","","41","main_expt",""
"","bandit","121","439926","0.0-83.0-0.0","66310027","wem/bandit_party_1","A3URNV625JS985","either","1","312","","","","","","","1","0","0","0.4265224768","","0.2","0.6","0.4","0.8","","","","","0.1863610343","0.1070927036","0.2449207522","0.4265224768","","","","","","","","","","76","L","3","","","42","main_expt",""
"","bandit","122","441687","0.0-84.0-0.0","66310027","wem/bandit_party_1","A3URNV625JS985","either","1","239","","","","","","","0","0","1","0.435880106","","0.2","0.6","0.4","0.8","","","","","0.2418389683","0.1214526226","0.2457567503","0.435880106","","","","","","","","","","76","L","3","","","43","main_expt",""
"","bandit","123","443502","0.0-85.0-0.0","66310027","wem/bandit_party_1","A3URNV625JS985","either","1","296","","","","","","","0","0","1","0.4450576882","","0.2","0.6","0.4","0.8","","","","","0.1943491227","0.1450738833","0.2432732657","0.4450576882","","","","","","","","","","76","L","3","","","44","main_expt",""
"","bandit","124","445174","0.0-86.0-0.0","66310027","wem/bandit_party_1","A3URNV625JS985","either","1","152","","","","","","","0","0","1","0.2656772236","","0.2","0.6","0.4","0.8","","","","","0.1543250971","0.09632230927","0.2656772236","0.4382030275","","","","","","","","","","75","K","2","","","45","main_expt",""
"","bandit","125","447036","0.0-87.0-0.0","66310027","wem/bandit_party_1","A3URNV625JS985","either","1","334","","","","","","","1","0","0","0.2432112423","","0.2","0.6","0.4","0.8","","","","","0.09719433791","0.103211431","0.2432112423","0.4412369426","","","","","","","","","","75","K","2","","","46","main_expt",""
"","bandit","126","448993","0.0-88.0-0.0","66310027","wem/bandit_party_1","A3URNV625JS985","either","1","436","","","","","","","0","1","0","","0.2992745976","0.2","0.6","0.4","0.8","0.1228880329","0.09916324924","0.2992745976","0.4588863431","","","","","","","","","","","","","","75","K","2","","","47","main_expt",""
"","bandit","127","450822","0.0-89.0-0.0","66310027","wem/bandit_party_1","A3URNV625JS985","either","1","307","","","","","","","0","0","1","0.2594611615","","0.2","0.6","0.4","0.8","","","","","0.1068532567","0.1090242341","0.2594611615","0.4408788818","","","","","","","","","","75","K","2","","","48","main_expt",""
"","bandit","128","452635","0.0-90.0-0.0","66310027","wem/bandit_party_1","A3URNV625JS985","either","1","293","","","","","","","0","0","1","0.2767916858","","0.2","0.6","0.4","0.8","","","","","0.1044048509","0.1265186769","0.2767916858","0.4232064109","","","","","","","","","","75","K","2","","","49","main_expt",""
"","bandit","129","454664","0.0-91.0-0.0","66310027","wem/bandit_party_1","A3URNV625JS985","either","1","515","","","","","","","0","0","1","0.2762534014","","0.2","0.6","0.4","0.8","","","","","0.1072026782","0.1397440907","0.2762534014","0.4210883962","","","","","","","","","","75","K","2","","","50","main_expt",""
"","bandit","130","456441","0.0-92.0-0.0","66310027","wem/bandit_party_1","A3URNV625JS985","either","1","256","","","","","","","0","0","1","","0.3379376541","0.2","0.6","0.4","0.8","0.1287882573","0.153600331","0.3379376541","0.4225635581","","","","","","","","","","","","","","75","K","2","","","51","main_expt",""
"","bandit","131","458125","0.0-93.0-0.0","66310027","wem/bandit_party_1","A3URNV625JS985","either","1","159","","","","","","","0","0","1","","0.3395267946","0.2","0.6","0.4","0.8","0.1298059469","0.1718407591","0.3395267946","0.4146237098","","","","","","","","","","","","","","75","K","2","","","52","main_expt",""
"","bandit","132","459911","0.0-94.0-0.0","66310027","wem/bandit_party_1","A3URNV625JS985","either","1","262","","","","","","","0","0","1","","0.1945727614","0.2","0.6","0.4","0.8","0.07423060895","0.1945727614","0.29674647","0.3763623321","","","","","","","","","","","","","","74","J","1","","","53","main_expt",""
"","bandit","133","461695","0.0-95.0-0.0","66310027","wem/bandit_party_1","A3URNV625JS985","either","1","253","","","","","","","1","0","0","0.2450542523","","0.2","0.6","0.4","0.8","","","","","0.08562383645","0.2450542523","0.3372955831","0.3289081181","","","","","","","","","","74","J","1","","","54","main_expt",""
"","bandit","134","463579","0.0-96.0-0.0","66310027","wem/bandit_party_1","A3URNV625JS985","either","1","357","","","","","","","1","0","0","0.2547241938","","0.2","0.6","0.4","0.8","","","","","0.0757818623","0.2547241938","0.3506099842","0.3025984711","","","","","","","","","","74","J","1","","","55","main_expt",""
"","bandit","135","465391","0.0-97.0-0.0","66310027","wem/bandit_party_1","A3URNV625JS985","either","1","291","","","","","","","0","0","1","0.2595112895","","0.2","0.6","0.4","0.8","","","","","0.09897923035","0.2595112895","0.3418029788","0.2921333137","","","","","","","","","","74","J","1","","","56","main_expt",""
"","bandit","136","467074","0.0-98.0-0.0","66310027","wem/bandit_party_1","A3URNV625JS985","either","1","166","","","","","","","0","0","1","0.2610276213","","0.2","0.6","0.4","0.8","","","","","0.1160875525","0.2610276213","0.3162475816","0.3317177772","","","","","","","","","","74","J","1","","","57","main_expt",""
"","bandit","137","468839","0.0-99.0-0.0","66310027","wem/bandit_party_1","A3URNV625JS985","either","1","239","","","","","","","0","0","1","0.2354201416","","0.2","0.6","0.4","0.8","","","","","0.1134641846","0.2354201416","0.3269881105","0.3240244649","","","","","","","","","","74","J","1","","","58","main_expt",""
"","bandit","138","470592","0.0-100.0-0.0","66310027","wem/bandit_party_1","A3URNV625JS985","either","1","229","","","","","","","0","0","1","0.2346370837","","0.2","0.6","0.4","0.8","","","","","0.1177083384","0.2346370837","0.2901324944","0.2988076671","","","","","","","","","","74","J","1","","","59","main_expt",""
"","bandit","139","472298","0.0-101.0-0.0","66310027","wem/bandit_party_1","A3URNV625JS985","either","1","189","","","","","","","0","1","0","","0.2315637733","0.2","0.6","0.4","0.8","0.1125723432","0.2315637733","0.289588464","0.3096792726","","","","","","","","","","","","","","74","J","1","","","60","main_expt",""
"","bandit","140","474085","0.0-102.0-0.0","66310027","wem/bandit_party_1","A3URNV625JS985","either","1","265","","","","","","","0","0","1","","0.2599537756","0.2","0.6","0.4","0.8","0.09911093426","0.2599537756","0.2782845563","0.2821336973","","","","","","","","","","","","","","74","J","1","","","61","main_expt",""
"","bandit","141","475867","0.0-103.0-0.0","66310027","wem/bandit_party_1","A3URNV625JS985","either","1","262","","","","","","","0","0","1","0.2594941563","","0.2","0.6","0.4","0.8","","","","","0.09440438105","0.2594941563","0.3165490401","0.2414244345","","","","","","","","","","74","J","1","","","62","main_expt",""
"","bandit","142","477660","0.0-104.0-0.0","66310027","wem/bandit_party_1","A3URNV625JS985","either","1","260","","","","","","","0","0","1","","0.1015409351","0.2","0.6","0.4","0.8","0.1015409351","0.2660839385","0.3034564924","0.213639373","","","","","","","","","","","","","","72","H","0","img/none_selected.jpg","","63","main_expt",""
"","bandit","143","479700","0.0-105.0-0.0","66310027","wem/bandit_party_1","A3URNV625JS985","either","1","519","","","","","","","0","0","1","","0.07049798599","0.2","0.6","0.4","0.8","0.07049798599","0.2426585031","0.2506654962","0.1876308072","","","","","","","","","","","","","","72","H","0","img/none_selected.jpg","","64","main_expt",""
"","bandit","144","481510","0.0-106.0-0.0","66310027","wem/bandit_party_1","A3URNV625JS985","either","1","292","","","","","","","0","0","1","0.05735603507","","0.2","0.6","0.4","0.8","","","","","0.05735603507","0.2581047566","0.253414466","0.1841803182","","","","","","","","","","72","H","0","img/none_selected.jpg","","65","main_expt",""
"","bandit","145","483278","0.0-107.0-0.0","66310027","wem/bandit_party_1","A3URNV625JS985","either","1","245","","","","","","","0","0","1","0.0621258055","","0.2","0.6","0.4","0.8","","","","","0.0621258055","0.2872127433","0.2836500186","0.187417598","","","","","","","","","","72","H","0","img/none_selected.jpg","","66","main_expt",""
"","bandit","146","485050","0.0-108.0-0.0","66310027","wem/bandit_party_1","A3URNV625JS985","either","1","244","","","","","","","0","0","1","0.06966106928","","0.2","0.6","0.4","0.8","","","","","0.06966106928","0.3232337643","0.3217852231","0.1395950637","","","","","","","","","","72","H","0","img/none_selected.jpg","","67","main_expt",""
"","bandit","147","486840","0.0-109.0-0.0","66310027","wem/bandit_party_1","A3URNV625JS985","either","1","267","","","","","","","0","0","1","","0.3574581916","0.2","0.6","0.4","0.8","0.09965709916","0.3376006622","0.3574581916","0.1363519197","","","","","","","","","","","","","","75","K","2","","","68","main_expt",""
"","bandit","148","488698","0.0-110.0-0.0","66310027","wem/bandit_party_1","A3URNV625JS985","either","1","327","","","","","","","0","0","1","0.3884563005","","0.2","0.6","0.4","0.8","","","","","0.1428217854","0.2917609244","0.3884563005","0.1117144852","","","","","","","","","","75","K","2","","","69","main_expt",""
"","bandit","149","490498","0.0-111.0-0.0","66310027","wem/bandit_party_1","A3URNV625JS985","either","1","277","","","","","","","0","0","1","0.3920047773","","0.2","0.6","0.4","0.8","","","","","0.1866845388","0.2218665627","0.3920047773","0.09667493602","","","","","","","","","","75","K","2","","","70","main_expt",""
"","bandit","150","492411","0.0-112.0-0.0","66310027","wem/bandit_party_1","A3URNV625JS985","either","1","395","","","","","","","0","0","1","0.09186933139","","0.2","0.6","0.4","0.8","","","","","0.1702545286","0.2409383839","0.4066376731","0.09186933139","","","","","","","","","","76","L","3","","","71","main_expt",""
"","bandit","151","494195","0.0-113.0-0.0","66310027","wem/bandit_party_1","A3URNV625JS985","either","1","257","","","","","","","0","0","1","","0.09472009463","0.2","0.6","0.4","0.8","0.1836279043","0.1920783453","0.3443789926","0.09472009463","","","","","","","","","","","","","","76","L","3","","","72","main_expt",""
"","bandit","152","496089","0.0-114.0-0.0","66310027","wem/bandit_party_1","A3URNV625JS985","either","1","368","","","","","","","1","0","0","0.1905254877","","0.2","0.6","0.4","0.8","","","","","0.1644348242","0.1905254877","0.3227553012","0.1167805336","","","","","","","","","","74","J","1","","","73","main_expt",""
"","bandit","153","497919","0.0-115.0-0.0","66310027","wem/bandit_party_1","A3URNV625JS985","either","1","307","","","","","","","0","0","1","0.184198213","","0.2","0.6","0.4","0.8","","","","","0.1833421201","0.184198213","0.3336652139","0.1465151254","","","","","","","","","","74","J","1","","","74","main_expt",""
"","bandit","154","499750","0.0-116.0-0.0","66310027","wem/bandit_party_1","A3URNV625JS985","either","1","312","","","","","","","0","1","0","","0.1881920243","0.2","0.6","0.4","0.8","0.1519653276","0.1881920243","0.2890150868","0.123285719","","","","","","","","","","","","","","74","J","1","","","75","main_expt",""
"","bandit","155","501619","0.0-117.0-0.0","66310027","wem/bandit_party_1","A3URNV625JS985","either","1","346","","","","","","","1","0","0","0.1988930589","","0.2","0.6","0.4","0.8","","","","","0.1506622639","0.1988930589","0.2673490463","0.1392606081","","","","","","","","","","74","J","1","","","76","main_expt",""
"","bandit","156","503441","0.0-118.0-0.0","66310027","wem/bandit_party_1","A3URNV625JS985","either","1","294","","","","","","","0","0","1","","0.2255968657","0.2","0.6","0.4","0.8","0.1860897766","0.2255968657","0.2858541315","0.099337717","","","","","","","","","","","","","","74","J","1","","","77","main_expt",""
"","bandit","157","505257","0.0-119.0-0.0","66310027","wem/bandit_party_1","A3URNV625JS985","either","1","296","","","","","","","0","0","1","","0.1917014014","0.2","0.6","0.4","0.8","0.1618556875","0.1917014014","0.2639968829","0.09666605973","","","","","","","","","","","","","","74","J","1","","","78","main_expt",""
"","bandit","158","507053","0.0-120.0-0.0","66310027","wem/bandit_party_1","A3URNV625JS985","either","1","271","","","","","","","0","0","1","0.2092129429","","0.2","0.6","0.4","0.8","","","","","0.1976853889","0.2092129429","0.2304888896","0.09639353985","","","","","","","","","","74","J","1","","","79","main_expt",""
"","bandit","159","508841","0.0-121.0-0.0","66310027","wem/bandit_party_1","A3URNV625JS985","either","1","261","","","","","","","0","0","1","0.1974306726","","0.2","0.6","0.4","0.8","","","","","0.2198838985","0.1974306726","0.1991809665","0.09566996791","","","","","","","","","","74","J","1","","","80","main_expt",""
"","bandit","160","510647","0.0-122.0-0.0","66310027","wem/bandit_party_1","A3URNV625JS985","either","1","285","","","","","","","0","0","1","0.1414754506","","0.2","0.6","0.4","0.8","","","","","0.2167005254","0.1414754506","0.1627434897","0.07958501382","","","","","","","","","","74","J","1","","","81","main_expt",""
"","bandit","161","512777","0.0-123.0-0.0","66310027","wem/bandit_party_1","A3URNV625JS985","either","1","604","","","","","","","0","1","0","","0.2527486409","0.2","0.6","0.4","0.8","0.2527486409","0.1422587364","0.1624637972","0.08833774835","","","","","","","","","","","","","","72","H","0","img/none_selected.jpg","","82","main_expt",""
"","bandit","162","514632","0.0-124.0-0.0","66310027","wem/bandit_party_1","A3URNV625JS985","either","1","326","","","","","","","0","0","1","","0.2569721607","0.2","0.6","0.4","0.8","0.2569721607","0.1079415531","0.1900332","0.09109006352","","","","","","","","","","","","","","72","H","0","img/none_selected.jpg","","83","main_expt",""
"","bandit","163","516457","0.0-125.0-0.0","66310027","wem/bandit_party_1","A3URNV625JS985","either","1","296","","","","","","","0","0","1","","0.2535394321","0.2","0.6","0.4","0.8","0.2535394321","0.07696487024","0.1705646391","0.05321730921","","","","","","","","","","","","","","72","H","0","img/none_selected.jpg","","84","main_expt",""
"","bandit","164","518268","0.0-126.0-0.0","66310027","wem/bandit_party_1","A3URNV625JS985","either","1","264","","","","","","","0","0","1","","0.2255799186","0.2","0.6","0.4","0.8","0.2255799186","0.08313016423","0.2053302659","0.03321009489","","","","","","","","","","","","","","72","H","0","img/none_selected.jpg","","85","main_expt",""
"","bandit","165","520061","0.0-127.0-0.0","66310027","wem/bandit_party_1","A3URNV625JS985","either","1","270","","","","","","","0","0","1","","0.2197080914","0.2","0.6","0.4","0.8","0.2197080914","0.102083396","0.2128685413","0.04864990798","","","","","","","","","","","","","","72","H","0","img/none_selected.jpg","","86","main_expt",""
"","bandit","166","521675","0.0-128.0-0.0","66310027","wem/bandit_party_1","A3URNV625JS985","either","1","89","","","","","","","0","0","1","0.213778815","","0.2","0.6","0.4","0.8","","","","","0.2230338057","0.09067070718","0.213778815","0.07919268752","","","","","","","","","","75","K","2","","","87","main_expt",""
"","bandit","167","523414","0.0-129.0-0.0","66310027","wem/bandit_party_1","A3URNV625JS985","either","1","216","","","","","","","0","0","1","0.2102340809","","0.2","0.6","0.4","0.8","","","","","0.2484269739","0.1421970704","0.2102340809","0.05835116993","","","","","","","","","","75","K","2","","","88","main_expt",""
"","bandit","168","525181","0.0-130.0-0.0","66310027","wem/bandit_party_1","A3URNV625JS985","either","1","238","","","","","","","0","0","1","","0.1809358483","0.2","0.6","0.4","0.8","0.2733562597","0.219142046","0.1809358483","0.05115519592","","","","","","","","","","","","","","75","K","2","","","89","main_expt",""
"","bandit","169","526935","0.0-131.0-0.0","66310027","wem/bandit_party_1","A3URNV625JS985","either","1","233","","","","","","","0","0","1","0.07819273649","","0.2","0.6","0.4","0.8","","","","","0.2973868449","0.2806923657","0.1293356972","0.07819273649","","","","","","","","","","76","L","3","","","90","main_expt",""
"","bandit","170","528658","0.0-132.0-0.0","66310027","wem/bandit_party_1","A3URNV625JS985","either","1","193","","","","","","","0","0","1","0.05564661524","","0.2","0.6","0.4","0.8","","","","","0.3067689268","0.2819660137","0.1136224352","0.05564661524","","","","","","","","","","76","L","3","","","91","main_expt",""
"","bandit","171","530461","0.0-133.0-0.0","66310027","wem/bandit_party_1","A3URNV625JS985","either","1","276","","","","","","","0","0","1","0.05914103421","","0.2","0.6","0.4","0.8","","","","","0.2719776188","0.3370305887","0.07539152519","0.05914103421","","","","","","","","","","76","L","3","","","92","main_expt",""
"","bandit","172","532346","0.0-134.0-0.0","66310027","wem/bandit_party_1","A3URNV625JS985","either","1","355","","","","","","","0","0","1","0.03944324463","","0.2","0.6","0.4","0.8","","","","","0.3081791896","0.3722719914","0.08243558305","0.03944324463","","","","","","","","","","76","L","3","","","93","main_expt",""
"","bandit","173","534141","0.0-135.0-0.0","66310027","wem/bandit_party_1","A3URNV625JS985","either","1","270","","","","","","","0","0","1","","0.3840030774","0.2","0.6","0.4","0.8","0.356667856","0.3840030774","0.09807673793","0.05023017475","","","","","","","","","","","","","","74","J","1","","","94","main_expt",""
"","bandit","174","535932","0.0-136.0-0.0","66310027","wem/bandit_party_1","A3URNV625JS985","either","1","269","","","","","","","0","0","1","0.4050844552","","0.2","0.6","0.4","0.8","","","","","0.3300765204","0.4050844552","0.09746204728","0.07311956304","","","","","","","","","","74","J","1","","","95","main_expt",""
"","bandit","175","537809","0.0-137.0-0.0","66310027","wem/bandit_party_1","A3URNV625JS985","either","1","351","","","","","","","1","0","0","0.4081076376","","0.2","0.6","0.4","0.8","","","","","0.3642735905","0.4081076376","0.08559835745","0.09573717159","","","","","","","","","","74","J","1","","","96","main_expt",""
"","bandit","176","539719","0.0-138.0-0.0","66310027","wem/bandit_party_1","A3URNV625JS985","either","1","387","","","","","","","0","0","1","0.4142780263","","0.2","0.6","0.4","0.8","","","","","0.3885664579","0.4142780263","0.0732645996","0.1235519285","","","","","","","","","","74","J","1","","","97","main_expt",""
"","bandit","177","541543","0.0-139.0-0.0","66310027","wem/bandit_party_1","A3URNV625JS985","either","1","299","","","","","","","0","0","1","","0.4131193208","0.2","0.6","0.4","0.8","0.4162912028","0.4131193208","0.05343209845","0.1274282425","","","","","","","","","","","","","","74","J","1","","","98","main_expt",""
"","bandit","178","543326","0.0-140.0-0.0","66310027","wem/bandit_party_1","A3URNV625JS985","either","1","261","","","","","","","1","0","0","0.428944851","","0.2","0.6","0.4","0.8","","","","","0.4074153657","0.428944851","0.05144299931","0.1457321849","","","","","","","","","","74","J","1","","","99","main_expt",""
"","bandit","179","545138","0.0-141.0-0.0","66310027","wem/bandit_party_1","A3URNV625JS985","either","1","288","","","","","","","0","0","1","","0.4279797645","0.2","0.6","0.4","0.8","0.3349137267","0.4279797645","0.03934302155","0.1492128348","","","","","","","","","","","","","","74","J","1","","","100","main_expt",""
"","bandit","180","546966","0.0-142.0-0.0","66310027","wem/bandit_party_1","A3URNV625JS985","either","1","308","","","","","","","0","0","1","0.4189249443","","0.2","0.6","0.4","0.8","","","","","0.2732947861","0.4189249443","0.05783306622","0.125019219","","","","","","","","","","74","J","1","","","101","main_expt",""
"","bandit","181","548801","0.0-143.0-0.0","66310027","wem/bandit_party_1","A3URNV625JS985","either","1","309","","","","","","","0","0","1","0.4279241466","","0.2","0.6","0.4","0.8","","","","","0.2584454073","0.4279241466","0.06484492547","0.1008510245","","","","","","","","","","74","J","1","","","102","main_expt",""
"","bandit","182","550608","0.0-144.0-0.0","66310027","wem/bandit_party_1","A3URNV625JS985","either","1","283","","","","","","","0","0","1","","0.419390052","0.2","0.6","0.4","0.8","0.2143891894","0.419390052","0.0701259157","0.1087281004","","","","","","","","","","","","","","74","J","1","","","103","main_expt",""
"","bandit","183","552649","0.0-145.0-0.0","66310027","wem/bandit_party_1","A3URNV625JS985","either","1","514","","","","","","","0","0","1","0.3761202226","","0.2","0.6","0.4","0.8","","","","","0.1354346047","0.3761202226","0.06922647753","0.143855427","","","","","","","","","","74","J","1","","","104","main_expt",""
"","bandit","184","554442","0.0-146.0-0.0","66310027","wem/bandit_party_1","A3URNV625JS985","either","1","271","","","","","","","0","0","1","0.1615963473","","0.2","0.6","0.4","0.8","","","","","0.1615963473","0.4229881466","0.07802312096","0.1606853024","","","","","","","","","","72","H","0","img/none_selected.jpg","","105","main_expt",""
"","bandit","185","556272","0.0-147.0-0.0","66310027","wem/bandit_party_1","A3URNV625JS985","either","1","305","","","","","","","0","0","1","","0.1738621023","0.2","0.6","0.4","0.8","0.1738621023","0.4110558218","0.08930313369","0.1612939645","","","","","","","","","","","","","","72","H","0","img/none_selected.jpg","","106","main_expt",""
"","bandit","186","558208","0.0-148.0-0.0","66310027","wem/bandit_party_1","A3URNV625JS985","either","1","404","","","","","","","0","0","1","","0.1799671425","0.2","0.6","0.4","0.8","0.1799671425","0.4176599015","0.1397733654","0.1778053335","","","","","","","","","","","","","","72","H","0","img/none_selected.jpg","","107","main_expt",""
"","bandit","187","560084","0.0-149.0-0.0","66310027","wem/bandit_party_1","A3URNV625JS985","either","1","349","","","","","","","0","0","1","0.1505899732","","0.2","0.6","0.4","0.8","","","","","0.1844274074","0.4210396584","0.1505899732","0.1826465361","","","","","","","","","","75","K","2","","","108","main_expt",""
"","bandit","188","561917","0.0-150.0-0.0","66310027","wem/bandit_party_1","A3URNV625JS985","either","1","309","","","","","","","0","0","1","","0.1162436109","0.2","0.6","0.4","0.8","0.1702708828","0.4328015469","0.1162436109","0.1737022726","","","","","","","","","","","","","","75","K","2","","","109","main_expt",""
"","bandit","189","563744","0.0-151.0-0.0","66310027","wem/bandit_party_1","A3URNV625JS985","either","1","299","","","","","","","0","0","1","","0.08267976014","0.2","0.6","0.4","0.8","0.1964407335","0.4495585744","0.08267976014","0.1658344406","","","","","","","","","","","","","","75","K","2","","","110","main_expt",""
"","bandit","190","565618","0.0-152.0-0.0","66310027","wem/bandit_party_1","A3URNV625JS985","either","1","344","","","","","","","0","0","1","0.09389793805","","0.2","0.6","0.4","0.8","","","","","0.1777579569","0.4237631325","0.09389793805","0.240619448","","","","","","","","","","75","K","2","","","111","main_expt",""
"","bandit","191","567401","0.0-153.0-0.0","66310027","wem/bandit_party_1","A3URNV625JS985","either","1","251","","","","","","","0","0","1","0.1927397719","","0.2","0.6","0.4","0.8","","","","","0.1395994444","0.4521571561","0.07903418564","0.1927397719","","","","","","","","","","76","L","3","","","112","main_expt",""
"","bandit","192","569275","0.0-154.0-0.0","66310027","wem/bandit_party_1","A3URNV625JS985","either","1","356","","","","","","","0","0","1","0.234725565","","0.2","0.6","0.4","0.8","","","","","0.1205999431","0.4350762846","0.05501139052","0.234725565","","","","","","","","","","76","L","3","","","113","main_expt",""
"","bandit","193","571195","0.0-155.0-0.0","66310027","wem/bandit_party_1","A3URNV625JS985","either","1","382","","","","","","","0","0","1","","0.07627702456","0.2","0.6","0.4","0.8","0.09123355482","0.4315824664","0.07627702456","0.1950215869","","","","","","","","","","","","","","75","K","2","","","114","main_expt",""
"","bandit","194","572880","0.0-156.0-0.0","66310027","wem/bandit_party_1","A3URNV625JS985","either","1","150","","","","","","","0","0","1","0.2575833325","","0.2","0.6","0.4","0.8","","","","","0.09554471192","0.4127349624","0.03985247356","0.2575833325","","","","","","","","","","76","L","3","","","115","main_expt",""
"","bandit","195","574733","0.0-157.0-0.0","66310027","wem/bandit_party_1","A3URNV625JS985","either","1","327","","","","","","","0","0","1","0.2296468005","","0.2","0.6","0.4","0.8","","","","","0.1942182492","0.4468356006","0.0683792979","0.2296468005","","","","","","","","","","76","L","3","","","116","main_expt",""
"","bandit","196","576671","0.0-158.0-0.0","66310027","wem/bandit_party_1","A3URNV625JS985","either","1","418","","","","","","","1","0","0","0.4458703805","","0.2","0.6","0.4","0.8","","","","","0.2208250117","0.4458703805","0.03956212276","0.2816483341","","","","","","","","","","74","J","1","","","117","main_expt",""
"","bandit","197","578484","0.0-159.0-0.0","66310027","wem/bandit_party_1","A3URNV625JS985","either","1","291","","","","","","","1","0","0","0.4500370674","","0.2","0.6","0.4","0.8","","","","","0.1687975443","0.4500370674","0.04459229253","0.2626769985","","","","","","","","","","74","J","1","","","118","main_expt",""
"","bandit","198","580383","0.0-160.0-0.0","66310027","wem/bandit_party_1","A3URNV625JS985","either","1","372","","","","","","","0","1","0","","0.4704359259","0.2","0.6","0.4","0.8","0.1546105485","0.4704359259","0.03386957434","0.2418090277","","","","","","","","","","","","","","74","J","1","","","119","main_expt",""
"","bandit","199","582270","0.0-161.0-0.0","66310027","wem/bandit_party_1","A3URNV625JS985","either","1","362","","","","","","","1","0","0","0.4578798539","","0.2","0.6","0.4","0.8","","","","","0.143668411","0.4578798539","0.03305427522","0.2603236095","","","","","","","","","","74","J","1","","","120","main_expt",""
"","bandit","200","584106","0.0-162.0-0.0","66310027","wem/bandit_party_1","A3URNV625JS985","either","1","309","","","","","","","0","0","1","0.4591190262","","0.2","0.6","0.4","0.8","","","","","0.1098317425","0.4591190262","0.03146098963","0.2381785671","","","","","","","","","","74","J","1","","","121","main_expt",""
"","bandit","201","586023","0.0-163.0-0.0","66310027","wem/bandit_party_1","A3URNV625JS985","either","1","389","","","","","","","1","0","0","0.4643737298","","0.2","0.6","0.4","0.8","","","","","0.1097832873","0.4643737298","0.02311797033","0.2388462554","","","","","","","","","","74","J","1","","","122","main_expt",""
"","bandit","202","587873","0.0-164.0-0.0","66310027","wem/bandit_party_1","A3URNV625JS985","either","1","316","","","","","","","0","0","1","0.451586091","","0.2","0.6","0.4","0.8","","","","","0.1145900252","0.451586091","0.0171261738","0.2079929623","","","","","","","","","","74","J","1","","","123","main_expt",""
"","bandit","203","589704","0.0-165.0-0.0","66310027","wem/bandit_party_1","A3URNV625JS985","either","1","301","","","","","","","0","0","1","0.4456906556","","0.2","0.6","0.4","0.8","","","","","0.1137783892","0.4456906556","0.03468299263","0.2148400852","","","","","","","","","","74","J","1","","","124","main_expt",""
"","bandit","204","591546","0.0-166.0-0.0","66310027","wem/bandit_party_1","A3URNV625JS985","either","1","319","","","","","","","1","0","0","0.4240876494","","0.2","0.6","0.4","0.8","","","","","0.145605256","0.4240876494","0.02544516396","0.2185056602","","","","","","","","","","74","J","1","","","125","main_expt",""
"","bandit","205","593433","0.0-167.0-0.0","66310027","wem/bandit_party_1","A3URNV625JS985","either","1","360","","","","","","","0","1","0","","0.4008501573","0.2","0.6","0.4","0.8","0.1443839055","0.4008501573","0.03059506073","0.2152323899","","","","","","","","","","","","","","74","J","1","","","126","main_expt",""
"","bandit","206","595278","0.0-168.0-0.0","66310027","wem/bandit_party_1","A3URNV625JS985","either","1","318","","","","","","","1","0","0","0.4066073101","","0.2","0.6","0.4","0.8","","","","","0.1434222382","0.4066073101","0.0339638967","0.1699446714","","","","","","","","","","74","J","1","","","127","main_expt",""
"","bandit","207","597116","0.0-169.0-0.0","66310027","wem/bandit_party_1","A3URNV625JS985","either","1","315","","","","","","","1","0","0","0.4270302575","","0.2","0.6","0.4","0.8","","","","","0.1412168693","0.4270302575","0.02632978063","0.1299446217","","","","","","","","","","74","J","1","","","128","main_expt",""
"","bandit","208","599035","0.0-170.0-0.0","66310027","wem/bandit_party_1","A3URNV625JS985","either","1","397","","","","","","","0","0","1","0.4401824822","","0.2","0.6","0.4","0.8","","","","","0.1086871361","0.4401824822","0.02640977482","0.1299487573","","","","","","","","","","74","J","1","","","129","main_expt",""
"","bandit","209","600831","0.0-171.0-0.0","66310027","wem/bandit_party_1","A3URNV625JS985","either","1","258","","","","","","","0","1","0","","0.4160959849","0.2","0.6","0.4","0.8","0.1672766288","0.4160959849","0.03646961518","0.1172580566","","","","","","","","","","","","","","74","J","1","","","130","main_expt",""
"","bandit","210","602725","0.0-172.0-0.0","66310027","wem/bandit_party_1","A3URNV625JS985","either","1","358","","","","","","","0","1","0","","0.4374535298","0.2","0.6","0.4","0.8","0.157110596","0.4374535298","0.02171712127","0.1289979545","","","","","","","","","","","","","","74","J","1","","","131","main_expt",""
"","bandit","211","604516","0.0-173.0-0.0","66310027","wem/bandit_party_1","A3URNV625JS985","either","1","259","","","","","","","1","0","0","0.4382483821","","0.2","0.6","0.4","0.8","","","","","0.1338697581","0.4382483821","0.01004766493","0.1243754988","","","","","","","","","","74","J","1","","","132","main_expt",""
"","bandit","212","606357","0.0-174.0-0.0","66310027","wem/bandit_party_1","A3URNV625JS985","either","1","318","","","","","","","0","0","1","","0.3913946914","0.2","0.6","0.4","0.8","0.1101669797","0.3913946914","0.005153708139","0.1189203389","","","","","","","","","","","","","","74","J","1","","","133","main_expt",""
"","bandit","213","608186","0.0-175.0-0.0","66310027","wem/bandit_party_1","A3URNV625JS985","either","1","304","","","","","","","0","1","0","","0.4280120537","0.2","0.6","0.4","0.8","0.060775537","0.4280120537","0.01308543257","0.07075860378","","","","","","","","","","","","","","74","J","1","","","134","main_expt",""
"","bandit","214","610105","0.0-176.0-0.0","66310027","wem/bandit_party_1","A3URNV625JS985","either","1","391","","","","","","","0","0","1","","0.4385213509","0.2","0.6","0.4","0.8","0.0714416082","0.4385213509","0.02634180281","0.1073185777","","","","","","","","","","","","","","74","J","1","","","135","main_expt",""
"","bandit","215","611909","0.0-177.0-0.0","66310027","wem/bandit_party_1","A3URNV625JS985","either","1","281","","","","","","","1","0","0","0.4605212521","","0.2","0.6","0.4","0.8","","","","","0.1115096907","0.4605212521","0.04122629063","0.1001442491","","","","","","","","","","74","J","1","","","136","main_expt",""
"","bandit","216","613717","0.0-178.0-0.0","66310027","wem/bandit_party_1","A3URNV625JS985","either","1","288","","","","","","","1","0","0","0.4729500637","","0.2","0.6","0.4","0.8","","","","","0.1307091067","0.4729500637","0.05517648788","0.1736681681","","","","","","","","","","74","J","1","","","137","main_expt",""
"","bandit","217","615550","0.0-179.0-0.0","66310027","wem/bandit_party_1","A3URNV625JS985","either","1","299","","","","","","","1","0","0","0.4705425907","","0.2","0.6","0.4","0.8","","","","","0.1289533412","0.4705425907","0.05929415862","0.1839908368","","","","","","","","","","74","J","1","","","138","main_expt",""
"","bandit","218","617447","0.0-180.0-0.0","66310027","wem/bandit_party_1","A3URNV625JS985","either","1","372","","","","","","","1","0","0","0.465423541","","0.2","0.6","0.4","0.8","","","","","0.1215972271","0.465423541","0.05470710098","0.1500833973","","","","","","","","","","74","J","1","","","139","main_expt",""
"","bandit","219","619372","0.0-181.0-0.0","66310027","wem/bandit_party_1","A3URNV625JS985","either","1","402","","","","","","","0","0","1","0.4486857012","","0.2","0.6","0.4","0.8","","","","","0.1158179575","0.4486857012","0.06062538604","0.1718879457","","","","","","","","","","74","J","1","","","140","main_expt",""
"","bandit","220","621232","0.0-182.0-0.0","66310027","wem/bandit_party_1","A3URNV625JS985","either","1","334","","","","","","","0","1","0","","0.4053061298","0.2","0.6","0.4","0.8","0.08691297649","0.4053061298","0.05819772386","0.2025036279","","","","","","","","","","","","","","74","J","1","","","141","main_expt",""
"","bandit","221","623066","0.0-183.0-0.0","66310027","wem/bandit_party_1","A3URNV625JS985","either","1","299","","","","","","","0","0","1","","0.3989731656","0.2","0.6","0.4","0.8","0.1425267255","0.3989731656","0.05329701838","0.1872564568","","","","","","","","","","","","","","74","J","1","","","142","main_expt",""
"","bandit","222","624930","0.0-184.0-0.0","66310027","wem/bandit_party_1","A3URNV625JS985","either","1","335","","","","","","","0","0","1","0.3783570596","","0.2","0.6","0.4","0.8","","","","","0.1425141192","0.3783570596","0.06209903385","0.1676641842","","","","","","","","","","74","J","1","","","143","main_expt",""
"","bandit","223","626821","0.0-185.0-0.0","66310027","wem/bandit_party_1","A3URNV625JS985","either","1","367","","","","","","","0","0","1","","0.3485663762","0.2","0.6","0.4","0.8","0.1362652721","0.3485663762","0.06954729647","0.1502987652","","","","","","","","","","","","","","74","J","1","","","144","main_expt",""
"","bandit","224","628666","0.0-186.0-0.0","66310027","wem/bandit_party_1","A3URNV625JS985","either","1","320","","","","","","","1","0","0","0.3534190037","","0.2","0.6","0.4","0.8","","","","","0.1335650053","0.3534190037","0.062760129","0.1050568962","","","","","","","","","","74","J","1","","","145","main_expt",""
"","bandit","225","630527","0.0-187.0-0.0","66310027","wem/bandit_party_1","A3URNV625JS985","either","1","333","","","","","","","0","1","0","","0.342282706","0.2","0.6","0.4","0.8","0.1392461982","0.342282706","0.05014677947","0.1266784727","","","","","","","","","","","","","","74","J","1","","","146","main_expt",""
"","bandit","226","632298","0.0-188.0-0.0","66310027","wem/bandit_party_1","A3URNV625JS985","either","1","244","","","","","","","0","1","0","","0.3497384939","0.2","0.6","0.4","0.8","0.1060810453","0.3497384939","0.04801868921","0.1121887101","","","","","","","","","","","","","","74","J","1","","","147","main_expt",""
"","bandit","227","634112","0.0-189.0-0.0","66310027","wem/bandit_party_1","A3URNV625JS985","either","1","287","","","","","","","0","0","1","0.3507348305","","0.2","0.6","0.4","0.8","","","","","0.1076054289","0.3507348305","0.05298179562","0.1050077765","","","","","","","","","","74","J","1","","","148","main_expt",""
"","bandit","228","635929","0.0-190.0-0.0","66310027","wem/bandit_party_1","A3URNV625JS985","either","1","278","","","","","","","0","0","1","0.306786392","","0.2","0.6","0.4","0.8","","","","","0.09143227578","0.306786392","0.05271587927","0.08725679698","","","","","","","","","","74","J","1","","","149","main_expt",""
"","bandit","229","637758","0.0-191.0-0.0","66310027","wem/bandit_party_1","A3URNV625JS985","either","1","301","","","","","","","0","0","1","0.3289077467","","0.2","0.6","0.4","0.8","","","","","0.08361181256","0.3289077467","0.06153260368","0.04813781364","","","","","","","","","","74","J","1","","","150","main_expt",""
"","bandit","230","639574","0.0-192.0-0.0","66310027","wem/bandit_party_1","A3URNV625JS985","either","1","287","","","","","","","0","0","1","0.2844912386","","0.2","0.6","0.4","0.8","","","","","0.1038450747","0.2844912386","0.07716317934","0.04690393958","","","","","","","","","","74","J","1","","","151","main_expt",""
"","bandit","231","641390","0.0-193.0-0.0","66310027","wem/bandit_party_1","A3URNV625JS985","either","1","290","","","","","","","1","0","0","0.3221551402","","0.2","0.6","0.4","0.8","","","","","0.1311897928","0.3221551402","0.08370894892","0.05051779207","","","","","","","","","","74","J","1","","","152","main_expt",""
"","bandit","232","643313","0.0-194.0-0.0","66310027","wem/bandit_party_1","A3URNV625JS985","either","1","394","","","","","","","0","0","1","","0.288581716","0.2","0.6","0.4","0.8","0.1106636196","0.288581716","0.06235129306","0.0417019452","","","","","","","","","","","","","","74","J","1","","","153","main_expt",""
"","bandit","233","645097","0.0-195.0-0.0","66310027","wem/bandit_party_1","A3URNV625JS985","either","1","261","","","","","","","0","0","1","","0.3674714493","0.2","0.6","0.4","0.8","0.08044616817","0.3674714493","0.08808261531","0.04565059468","","","","","","","","","","","","","","74","J","1","","","154","main_expt",""
"","bandit","234","646945","0.0-196.0-0.0","66310027","wem/bandit_party_1","A3URNV625JS985","either","1","323","","","","","","","1","0","0","0.3836765626","","0.2","0.6","0.4","0.8","","","","","0.09849608375","0.3836765626","0.08415746701","0.0249337719","","","","","","","","","","74","J","1","","","155","main_expt",""
"","bandit","235","648901","0.0-197.0-0.0","66310027","wem/bandit_party_1","A3URNV625JS985","either","1","430","","","","","","","0","1","0","","0.3499766022","0.2","0.6","0.4","0.8","0.0679626842","0.3499766022","0.1363215429","0.0207568711","","","","","","","","","","","","","","74","J","1","","","156","main_expt",""
"","bandit","236","650801","0.0-198.0-0.0","66310027","wem/bandit_party_1","A3URNV625JS985","either","1","369","","","","","","","0","1","0","","0.3083455354","0.2","0.6","0.4","0.8","0.06316877849","0.3083455354","0.176329139","0.01044871803","","","","","","","","","","","","","","74","J","1","","","157","main_expt",""
"","bandit","237","652731","0.0-199.0-0.0","66310027","wem/bandit_party_1","A3URNV625JS985","either","1","392","","","","","","","0","0","1","0.2780985587","","0.2","0.6","0.4","0.8","","","","","0.06381796224","0.2780985587","0.2239815039","0.008486032171","","","","","","","","","","74","J","1","","","158","main_expt",""
"","bandit","238","654567","0.0-200.0-0.0","66310027","wem/bandit_party_1","A3URNV625JS985","either","1","312","","","","","","","0","0","1","0.2721424699","","0.2","0.6","0.4","0.8","","","","","0.09986374221","0.2721424699","0.1754735631","0.006770001311","","","","","","","","","","74","J","1","","","159","main_expt",""
"","bandit","239","656418","0.0-201.0-0.0","66310027","wem/bandit_party_1","A3URNV625JS985","either","1","328","","","","","","","0","0","1","0.3005636977","","0.2","0.6","0.4","0.8","","","","","0.08334790929","0.3005636977","0.1820859676","0.005009972043","","","","","","","","","","74","J","1","","","160","main_expt",""
"","bandit","240","658200","0.0-202.0-0.0","66310027","wem/bandit_party_1","A3URNV625JS985","either","1","259","","","","","","","0","0","1","0.2481613967","","0.2","0.6","0.4","0.8","","","","","0.1094566723","0.2481613967","0.1771527669","0.003825417776","","","","","","","","","","74","J","1","","","161","main_expt",""
"","bandit","241","660061","0.0-203.0-0.0","66310027","wem/bandit_party_1","A3URNV625JS985","either","1","332","","","","","","","0","0","1","0.2040880477","","0.2","0.6","0.4","0.8","","","","","0.1287108975","0.2040880477","0.209245514","0.006458278423","","","","","","","","","","74","J","1","","","162","main_expt",""
"","bandit","242","661870","0.0-204.0-0.0","66310027","wem/bandit_party_1","A3URNV625JS985","either","1","281","","","","","","","0","0","1","","0.256608811","0.2","0.6","0.4","0.8","0.1811808859","0.256608811","0.1864252411","0.01344146107","","","","","","","","","","","","","","74","J","1","","","163","main_expt",""
"","bandit","243","663797","0.0-205.0-0.0","66310027","wem/bandit_party_1","A3URNV625JS985","either","1","393","","","","","","","0","0","1","","0.2798468236","0.2","0.6","0.4","0.8","0.1374611454","0.2798468236","0.1662237337","0.004940614731","","","","","","","","","","","","","","74","J","1","","","164","main_expt",""
"","bandit","244","665580","0.0-206.0-0.0","66310027","wem/bandit_party_1","A3URNV625JS985","either","1","258","","","","","","","0","0","1","","0.1640313333","0.2","0.6","0.4","0.8","0.1640313333","0.2689568899","0.1375661656","0.007349038951","","","","","","","","","","","","","","72","H","0","img/none_selected.jpg","","165","main_expt",""
"","bandit","245","667395","0.0-207.0-0.0","66310027","wem/bandit_party_1","A3URNV625JS985","either","1","279","","","","","","","0","0","1","0.20052236","","0.2","0.6","0.4","0.8","","","","","0.20052236","0.2786045926","0.1416727521","0.005679103294","","","","","","","","","","72","H","0","img/none_selected.jpg","","166","main_expt",""
"","bandit","246","669201","0.0-208.0-0.0","66310027","wem/bandit_party_1","A3URNV625JS985","either","1","280","","","","","","","0","0","1","","0.1497541138","0.2","0.6","0.4","0.8","0.1945206589","0.2507583434","0.1497541138","0.004037182679","","","","","","","","","","","","","","75","K","2","","","167","main_expt",""
"","bandit","247","671099","0.0-209.0-0.0","66310027","wem/bandit_party_1","A3URNV625JS985","either","1","371","","","","","","","0","0","1","","0.1761460581","0.2","0.6","0.4","0.8","0.1902154162","0.1827624484","0.1761460581","0.007111326723","","","","","","","","","","","","","","75","K","2","","","168","main_expt",""
"","bandit","248","672909","0.0-210.0-0.0","66310027","wem/bandit_party_1","A3URNV625JS985","either","1","281","","","","","","","0","0","1","","0.2248215173","0.2","0.6","0.4","0.8","0.1931964682","0.1558723634","0.2248215173","0.01708305062","","","","","","","","","","","","","","75","K","2","","","169","main_expt",""
"","bandit","249","674697","0.0-211.0-0.0","66310027","wem/bandit_party_1","A3URNV625JS985","either","1","264","","","","","","","0","0","1","0.02105388628","","0.2","0.6","0.4","0.8","","","","","0.236179436","0.1757164868","0.2503105048","0.02105388628","","","","","","","","","","76","L","3","","","170","main_expt",""
"","bandit","250","676599","0.0-212.0-0.0","66310027","wem/bandit_party_1","A3URNV625JS985","either","1","375","","","","","","","0","1","0","","0.01477187034","0.2","0.6","0.4","0.8","0.2229285478","0.1985597056","0.2515708499","0.01477187034","","","","","","","","","","","","","","76","L","3","","","171","main_expt",""
"","bandit","251","678539","0.0-213.0-0.0","66310027","wem/bandit_party_1","A3URNV625JS985","either","1","415","","","","","","","0","0","1","0.00639283578","","0.2","0.6","0.4","0.8","","","","","0.1805811295","0.1725269859","0.2601117771","0.00639283578","","","","","","","","","","76","L","3","","","172","main_expt",""
"","bandit","252","680366","0.0-214.0-0.0","66310027","wem/bandit_party_1","A3URNV625JS985","either","1","301","","","","","","","0","0","1","0.008503536177","","0.2","0.6","0.4","0.8","","","","","0.2203049146","0.1955807132","0.2277859889","0.008503536177","","","","","","","","","","76","L","3","","","173","main_expt",""
"","bandit","253","682190","0.0-215.0-0.0","66310027","wem/bandit_party_1","A3URNV625JS985","either","1","295","","","","","","","0","0","1","0.01512836446","","0.2","0.6","0.4","0.8","","","","","0.2079245196","0.1712969398","0.204090619","0.01512836446","","","","","","","","","","76","L","3","","","174","main_expt",""
"","bandit","254","684068","0.0-216.0-0.0","66310027","wem/bandit_party_1","A3URNV625JS985","either","1","354","","","","","","","0","0","1","0.034550241","","0.2","0.6","0.4","0.8","","","","","0.1904909119","0.2145566876","0.2264282848","0.034550241","","","","","","","","","","76","L","3","","","175","main_expt",""
"","bandit","255","685961","0.0-217.0-0.0","66310027","wem/bandit_party_1","A3URNV625JS985","either","1","363","","","","","","","0","0","1","0.01969997198","","0.2","0.6","0.4","0.8","","","","","0.1611975006","0.1987050603","0.2263436383","0.01969997198","","","","","","","","","","76","L","3","","","176","main_expt",""
"","bandit","256","687910","0.0-218.0-0.0","66310027","wem/bandit_party_1","A3URNV625JS985","either","1","422","","","","","","","0","0","1","","0.02558747067","0.2","0.6","0.4","0.8","0.1747210449","0.2161967517","0.2449632337","0.02558747067","","","","","","","","","","","","","","76","L","3","","","177","main_expt",""
"","bandit","257","689687","0.0-219.0-0.0","66310027","wem/bandit_party_1","A3URNV625JS985","either","1","243","","","","","","","0","0","1","","0.1923885174","0.2","0.6","0.4","0.8","0.1667690144","0.1790488899","0.1923885174","0.02865462312","","","","","","","","","","","","","","75","K","2","","","178","main_expt",""
"","bandit","258","691508","0.0-220.0-0.0","66310027","wem/bandit_party_1","A3URNV625JS985","either","1","288","","","","","","","0","1","0","","0.1791230597","0.2","0.6","0.4","0.8","0.248539666","0.1254539317","0.1791230597","0.05873937836","","","","","","","","","","","","","","75","K","2","","","179","main_expt",""
"","bandit","259","693404","0.0-221.0-0.0","66310027","wem/bandit_party_1","A3URNV625JS985","either","1","363","","","","","","","0","1","0","","0.1641305094","0.2","0.6","0.4","0.8","0.2393284063","0.1761702366","0.1641305094","0.04996702027","","","","","","","","","","","","","","75","K","2","","","180","main_expt",""
"","bandit","260","695410","0.0-222.0-0.0","66310027","wem/bandit_party_1","A3URNV625JS985","either","1","468","","","","","","","0","0","1","0.1567194189","","0.2","0.6","0.4","0.8","","","","","0.2450765022","0.2307221343","0.1567194189","0.06192223509","","","","","","","","","","75","K","2","","","181","main_expt",""
"","bandit","261","697302","0.0-223.0-0.0","66310027","wem/bandit_party_1","A3URNV625JS985","either","1","363","","","","","","","0","0","1","","0.1805899487","0.2","0.6","0.4","0.8","0.2898963007","0.1656926355","0.1805899487","0.07865608963","","","","","","","","","","","","","","75","K","2","","","182","main_expt",""
"","bandit","262","699207","0.0-224.0-0.0","66310027","wem/bandit_party_1","A3URNV625JS985","either","1","381","","","","","","","0","0","1","","0.1381226487","0.2","0.6","0.4","0.8","0.337419987","0.1997223474","0.1381226487","0.0695036973","","","","","","","","","","","","","","75","K","2","","","183","main_expt",""
"","bandit","263","701051","0.0-225.0-0.0","66310027","wem/bandit_party_1","A3URNV625JS985","either","1","319","","","","","","","0","0","1","0.1157029232","","0.2","0.6","0.4","0.8","","","","","0.3334404967","0.1936006223","0.1157029232","0.09883674892","","","","","","","","","","75","K","2","","","184","main_expt",""
"","bandit","264","702860","0.0-226.0-0.0","66310027","wem/bandit_party_1","A3URNV625JS985","either","1","278","","","","","","","0","0","1","","0.09007466759","0.2","0.6","0.4","0.8","0.3049781316","0.1794548994","0.09007466759","0.1344132801","","","","","","","","","","","","","","75","K","2","","","185","main_expt",""
"","bandit","265","704643","0.0-227.0-0.0","66310027","wem/bandit_party_1","A3URNV625JS985","either","1","252","","","","","","","0","1","0","","0.322039184","0.2","0.6","0.4","0.8","0.322039184","0.1679588243","0.07784091677","0.1194183803","","","","","","","","","","","","","","72","H","0","img/none_selected.jpg","","186","main_expt",""
"","bandit","266","706567","0.0-228.0-0.0","66310027","wem/bandit_party_1","A3URNV625JS985","either","1","396","","","","","","","0","0","1","","0.2898485093","0.2","0.6","0.4","0.8","0.2898485093","0.1692259204","0.1332261693","0.1456002269","","","","","","","","","","","","","","72","H","0","img/none_selected.jpg","","187","main_expt",""
"","bandit","267","708464","0.0-229.0-0.0","66310027","wem/bandit_party_1","A3URNV625JS985","either","1","374","","","","","","","0","1","0","","0.3046836684","0.2","0.6","0.4","0.8","0.3046836684","0.1796926114","0.1302169342","0.1008589119","","","","","","","","","","","","","","72","H","0","img/none_selected.jpg","","188","main_expt",""
"","bandit","268","710354","0.0-230.0-0.0","66310027","wem/bandit_party_1","A3URNV625JS985","either","1","362","","","","","","","0","0","1","0.3437642557","","0.2","0.6","0.4","0.8","","","","","0.3437642557","0.1463090895","0.1459867673","0.09109327247","","","","","","","","","","72","H","0","img/none_selected.jpg","","189","main_expt",""
"","bandit","269","712142","0.0-231.0-0.0","66310027","wem/bandit_party_1","A3URNV625JS985","either","1","257","","","","","","","0","0","1","","0.3685715368","0.2","0.6","0.4","0.8","0.3685715368","0.1670442817","0.1930387326","0.133333279","","","","","","","","","","","","","","72","H","0","img/none_selected.jpg","","190","main_expt",""
"","bandit","270","714047","0.0-232.0-0.0","66310027","wem/bandit_party_1","A3URNV625JS985","either","1","370","","","","","","","0","0","1","","0.4063368095","0.2","0.6","0.4","0.8","0.4063368095","0.2148667481","0.1447045196","0.1253338948","","","","","","","","","","","","","","72","H","0","img/none_selected.jpg","","191","main_expt",""
"","bandit","271","715868","0.0-233.0-0.0","66310027","wem/bandit_party_1","A3URNV625JS985","either","1","293","","","","","","","0","1","0","","0.4194789623","0.2","0.6","0.4","0.8","0.4194789623","0.1891029698","0.1521301445","0.1371372983","","","","","","","","","","","","","","72","H","0","img/none_selected.jpg","","192","main_expt",""
"","bandit","272","717747","0.0-234.0-0.0","66310027","wem/bandit_party_1","A3URNV625JS985","either","1","351","","","","","","","0","1","0","","0.3914453041","0.2","0.6","0.4","0.8","0.3914453041","0.1818436489","0.1216552598","0.1269519223","","","","","","","","","","","","","","72","H","0","img/none_selected.jpg","","193","main_expt",""
"","bandit","273","719623","0.0-235.0-0.0","66310027","wem/bandit_party_1","A3URNV625JS985","either","1","341","","","","","","","0","1","0","","0.3988429791","0.2","0.6","0.4","0.8","0.3988429791","0.2036833838","0.07681554104","0.1253972088","","","","","","","","","","","","","","72","H","0","img/none_selected.jpg","","194","main_expt",""
"","bandit","274","721460","0.0-236.0-0.0","66310027","wem/bandit_party_1","A3URNV625JS985","either","1","308","","","","","","","0","0","1","","0.4212514022","0.2","0.6","0.4","0.8","0.4212514022","0.2189502041","0.07468822185","0.1231557279","","","","","","","","","","","","","","72","H","0","img/none_selected.jpg","","195","main_expt",""
"","bandit","275","723317","0.0-237.0-0.0","66310027","wem/bandit_party_1","A3URNV625JS985","either","1","328","","","","","","","0","1","0","","0.4128950903","0.2","0.6","0.4","0.8","0.4128950903","0.2011136523","0.07634526252","0.2304226507","","","","","","","","","","","","","","72","H","0","img/none_selected.jpg","","196","main_expt",""
"","bandit","276","725247","0.0-238.0-0.0","66310027","wem/bandit_party_1","A3URNV625JS985","either","1","391","","","","","","","0","0","1","0.3979973083","","0.2","0.6","0.4","0.8","","","","","0.3979973083","0.2295646827","0.06680697181","0.3102822931","","","","","","","","","","72","H","0","img/none_selected.jpg","","197","main_expt",""
"","bandit","277","727061","0.0-239.0-0.0","66310027","wem/bandit_party_1","A3URNV625JS985","either","1","287","","","","","","","0","0","1","","0.3153467244","0.2","0.6","0.4","0.8","0.3153467244","0.2570874699","0.05107679344","0.3222054514","","","","","","","","","","","","","","72","H","0","img/none_selected.jpg","","198","main_expt",""
"","bandit","278","728940","0.0-240.0-0.0","66310027","wem/bandit_party_1","A3URNV625JS985","either","1","339","","","","","","","0","0","1","","0.3121882746","0.2","0.6","0.4","0.8","0.3121882746","0.2215013189","0.06140804873","0.3416159467","","","","","","","","","","","","","","72","H","0","img/none_selected.jpg","","199","main_expt",""
"","bandit","279","730756","0.0-241.0-0.0","66310027","wem/bandit_party_1","A3URNV625JS985","either","1","287","","","","","","","0","0","1","","0.3789620948","0.2","0.6","0.4","0.8","0.3789620948","0.1681318695","0.05697288244","0.3826655938","","","","","","","","","","","","","","72","H","0","img/none_selected.jpg","","200","main_expt",""
"","bandit","280","732579","0.0-242.0-0.0","66310027","wem/bandit_party_1","A3URNV625JS985","either","1","298","","","","","","","0","0","1","","0.3575696279","0.2","0.6","0.4","0.8","0.3575696279","0.1787039029","0.04802221103","0.4117435103","","","","","","","","","","","","","","72","H","0","img/none_selected.jpg","","201","main_expt",""
"","bandit","281","734429","0.0-243.0-0.0","66310027","wem/bandit_party_1","A3URNV625JS985","either","1","322","","","","","","","0","1","0","","0.3937046418","0.2","0.6","0.4","0.8","0.3937046418","0.2180442152","0.04583536071","0.4023622846","","","","","","","","","","","","","","72","H","0","img/none_selected.jpg","","202","main_expt",""
"","bandit","282","736338","0.0-244.0-0.0","66310027","wem/bandit_party_1","A3URNV625JS985","either","1","374","","","","","","","0","1","0","","0.3901943722","0.2","0.6","0.4","0.8","0.3901943722","0.262784421","0.03655969434","0.4225273878","","","","","","","","","","","","","","72","H","0","img/none_selected.jpg","","203","main_expt",""
"","bandit","283","738225","0.0-245.0-0.0","66310027","wem/bandit_party_1","A3URNV625JS985","either","1","360","","","","","","","0","0","1","","0.4099131859","0.2","0.6","0.4","0.8","0.4099131859","0.2843732649","0.05773518339","0.4151046429","","","","","","","","","","","","","","72","H","0","img/none_selected.jpg","","204","main_expt",""
"","bandit","284","740006","0.0-246.0-0.0","66310027","wem/bandit_party_1","A3URNV625JS985","either","1","253","","","","","","","0","1","0","","0.4238238901","0.2","0.6","0.4","0.8","0.4238238901","0.2549063301","0.06616346658","0.4288165897","","","","","","","","","","","","","","72","H","0","img/none_selected.jpg","","205","main_expt",""
"","bandit","285","741820","0.0-247.0-0.0","66310027","wem/bandit_party_1","A3URNV625JS985","either","1","284","","","","","","","1","0","0","0.4139837541","","0.2","0.6","0.4","0.8","","","","","0.4139837541","0.2982701688","0.09055598832","0.436745712","","","","","","","","","","72","H","0","img/none_selected.jpg","","206","main_expt",""
"","bandit","286","743623","0.0-248.0-0.0","66310027","wem/bandit_party_1","A3URNV625JS985","either","1","277","","","","","","","0","0","1","","0.3544894801","0.2","0.6","0.4","0.8","0.3544894801","0.3423773839","0.07583085731","0.4484652972","","","","","","","","","","","","","","72","H","0","img/none_selected.jpg","","207","main_expt",""
"","bandit","287","745461","0.0-249.0-0.0","66310027","wem/bandit_party_1","A3URNV625JS985","either","1","308","","","","","","","0","0","1","","0.3703609936","0.2","0.6","0.4","0.8","0.3703609936","0.3321535101","0.09768014643","0.4516947584","","","","","","","","","","","","","","72","H","0","img/none_selected.jpg","","208","main_expt",""
"","bandit","288","747506","0.0-250.0-0.0","66310027","wem/bandit_party_1","A3URNV625JS985","either","1","509","","","","","","","0","1","0","","0.3590511704","0.2","0.6","0.4","0.8","0.3590511704","0.3467721984","0.08389795445","0.4590139285","","","","","","","","","","","","","","72","H","0","img/none_selected.jpg","","209","main_expt",""
"","bandit","289","749332","0.0-251.0-0.0","66310027","wem/bandit_party_1","A3URNV625JS985","either","1","293","","","","","","","0","0","1","","0.3781523972","0.2","0.6","0.4","0.8","0.3781523972","0.3513447539","0.07846525543","0.4378910613","","","","","","","","","","","","","","72","H","0","img/none_selected.jpg","","210","main_expt",""
"","bandit","290","751178","0.0-252.0-0.0","66310027","wem/bandit_party_1","A3URNV625JS985","either","1","314","","","","","","","0","0","1","0.3895188655","","0.2","0.6","0.4","0.8","","","","","0.3895188655","0.4003692624","0.05906932722","0.4139384991","","","","","","","","","","72","H","0","img/none_selected.jpg","","211","main_expt",""
"","bandit","291","753007","0.0-253.0-0.0","66310027","wem/bandit_party_1","A3URNV625JS985","either","1","300","","","","","","","0","0","1","","0.4075098947","0.2","0.6","0.4","0.8","0.4075098947","0.3949660502","0.04754192311","0.3659234609","","","","","","","","","","","","","","72","H","0","img/none_selected.jpg","","212","main_expt",""
"","bandit","292","754800","0.0-254.0-0.0","66310027","wem/bandit_party_1","A3URNV625JS985","either","1","264","","","","","","","0","0","1","","0.4191075236","0.2","0.6","0.4","0.8","0.4191075236","0.4233479157","0.05481920189","0.3180572988","","","","","","","","","","","","","","72","H","0","img/none_selected.jpg","","213","main_expt",""
"","bandit","293","756731","0.0-255.0-0.0","66310027","wem/bandit_party_1","A3URNV625JS985","either","1","403","","","","","","","0","1","0","","0.3799529118","0.2","0.6","0.4","0.8","0.3799529118","0.4182751871","0.07954578011","0.2611162072","","","","","","","","","","","","","","72","H","0","img/none_selected.jpg","","214","main_expt",""
"","bandit","294","758562","0.0-256.0-0.0","66310027","wem/bandit_party_1","A3URNV625JS985","either","1","301","","","","","","","0","0","1","","0.3924699069","0.2","0.6","0.4","0.8","0.3924699069","0.3745823719","0.1078137614","0.2331309726","","","","","","","","","","","","","","72","H","0","img/none_selected.jpg","","215","main_expt",""
"","bandit","295","760360","0.0-257.0-0.0","66310027","wem/bandit_party_1","A3URNV625JS985","either","1","271","","","","","","","0","0","1","","0.3556657658","0.2","0.6","0.4","0.8","0.3556657658","0.3809837923","0.1269525553","0.2428402293","","","","","","","","","","","","","","72","H","0","img/none_selected.jpg","","216","main_expt",""
"","bandit","296","762162","0.0-258.0-0.0","66310027","wem/bandit_party_1","A3URNV625JS985","either","1","273","","","","","","","0","0","1","","0.3870416945","0.2","0.6","0.4","0.8","0.3870416945","0.4144294186","0.1849794572","0.2317762644","","","","","","","","","","","","","","72","H","0","img/none_selected.jpg","","217","main_expt",""
"","bandit","297","763969","0.0-259.0-0.0","66310027","wem/bandit_party_1","A3URNV625JS985","either","1","272","","","","","","","0","0","1","","0.3944581396","0.2","0.6","0.4","0.8","0.3944581396","0.4090742927","0.1903787706","0.204309912","","","","","","","","","","","","","","72","H","0","img/none_selected.jpg","","218","main_expt",""
"","bandit","298","765734","0.0-260.0-0.0","66310027","wem/bandit_party_1","A3URNV625JS985","either","1","228","","","","","","","0","0","1","0.1768508397","","0.2","0.6","0.4","0.8","","","","","0.4256173987","0.3869695378","0.1768508397","0.1685596251","","","","","","","","","","75","K","2","","","219","main_expt",""
"","bandit","299","767645","0.0-261.0-0.0","66310027","wem/bandit_party_1","A3URNV625JS985","either","1","381","","","","","","","0","0","1","","0.2176561852","0.2","0.6","0.4","0.8","0.4240862242","0.3814250035","0.2176561852","0.2488487331","","","","","","","","","","","","","","75","K","2","","","220","main_expt",""
"","bandit","300","769431","0.0-262.0-0.0","66310027","wem/bandit_party_1","A3URNV625JS985","either","1","258","","","","","","","0","0","1","","0.2075488201","0.2","0.6","0.4","0.8","0.4364702466","0.3560431311","0.2075488201","0.2789816034","","","","","","","","","","","","","","75","K","2","","","221","main_expt",""
"","bandit","301","771248","0.0-263.0-0.0","66310027","wem/bandit_party_1","A3URNV625JS985","either","1","281","","","","","","","0","0","1","0.242729834","","0.2","0.6","0.4","0.8","","","","","0.4512924842","0.3424215647","0.2260831429","0.242729834","","","","","","","","","","76","L","3","","","222","main_expt",""
"","bandit","302","773142","0.0-264.0-0.0","66310027","wem/bandit_party_1","A3URNV625JS985","either","1","353","","","","","","","0","0","1","0.196538567","","0.2","0.6","0.4","0.8","","","","","0.4649948574","0.3118962833","0.2512075751","0.196538567","","","","","","","","","","76","L","3","","","223","main_expt",""
"","bandit","303","774984","0.0-265.0-0.0","66310027","wem/bandit_party_1","A3URNV625JS985","either","1","310","","","","","","","0","1","0","","0.261290028","0.2","0.6","0.4","0.8","0.4692106987","0.261290028","0.3072691987","0.2189223785","","","","","","","","","","","","","","74","J","1","","","224","main_expt",""
"","bandit","304","776831","0.0-266.0-0.0","66310027","wem/bandit_party_1","A3URNV625JS985","either","1","319","","","","","","","0","0","1","0.2748104332","","0.2","0.6","0.4","0.8","","","","","0.4772226815","0.2748104332","0.3358063032","0.2131207899","","","","","","","","","","74","J","1","","","225","main_expt",""
"","bandit","305","778727","0.0-267.0-0.0","66310027","wem/bandit_party_1","A3URNV625JS985","either","1","364","","","","","","","1","0","0","0.2112523614","","0.2","0.6","0.4","0.8","","","","","0.4828013869","0.2112523614","0.2994610032","0.187439681","","","","","","","","","","74","J","1","","","226","main_expt",""
"","bandit","306","780581","0.0-268.0-0.0","66310027","wem/bandit_party_1","A3URNV625JS985","either","1","322","","","","","","","0","0","1","","0.1879164098","0.2","0.6","0.4","0.8","0.4805292857","0.1879164098","0.2719992041","0.1522087394","","","","","","","","","","","","","","74","J","1","","","227","main_expt",""
"","bandit","307","782396","0.0-269.0-0.0","66310027","wem/bandit_party_1","A3URNV625JS985","either","1","286","","","","","","","0","0","1","","0.1857646906","0.2","0.6","0.4","0.8","0.4770879938","0.1857646906","0.2601066631","0.1975586059","","","","","","","","","","","","","","74","J","1","","","228","main_expt",""
"","bandit","308","784463","0.0-270.0-0.0","66310027","wem/bandit_party_1","A3URNV625JS985","either","1","532","","","","","","","0","0","1","0.1608888173","","0.2","0.6","0.4","0.8","","","","","0.4830225504","0.1608888173","0.2333982712","0.2280604414","","","","","","","","","","74","J","1","","","229","main_expt",""
"","bandit","309","786283","0.0-271.0-0.0","66310027","wem/bandit_party_1","A3URNV625JS985","either","1","292","","","","","","","0","0","1","0.1139945837","","0.2","0.6","0.4","0.8","","","","","0.4827210916","0.1139945837","0.2179366985","0.2120359748","","","","","","","","","","74","J","1","","","230","main_expt",""
"","bandit","310","788120","0.0-272.0-0.0","66310027","wem/bandit_party_1","A3URNV625JS985","either","1","311","","","","","","","0","1","0","","0.1071229599","0.2","0.6","0.4","0.8","0.4764813513","0.1071229599","0.210335649","0.2260377558","","","","","","","","","","","","","","74","J","1","","","231","main_expt",""
"","bandit","311","789979","0.0-273.0-0.0","66310027","wem/bandit_party_1","A3URNV625JS985","either","1","327","","","","","","","0","0","1","0.1250262501","","0.2","0.6","0.4","0.8","","","","","0.4794978353","0.1250262501","0.2154905401","0.2810037348","","","","","","","","","","74","J","1","","","232","main_expt",""
"","bandit","312","791857","0.0-274.0-0.0","66310027","wem/bandit_party_1","A3URNV625JS985","either","1","346","","","","","","","0","0","1","","0.1262657767","0.2","0.6","0.4","0.8","0.4717583679","0.1262657767","0.2199054097","0.3371590923","","","","","","","","","","","","","","74","J","1","","","233","main_expt",""
"","bandit","313","793620","0.0-275.0-0.0","66310027","wem/bandit_party_1","A3URNV625JS985","either","1","232","","","","","","","0","0","1","0.1436583916","","0.2","0.6","0.4","0.8","","","","","0.4801470087","0.1436583916","0.2116885818","0.2614597929","","","","","","","","","","74","J","1","","","234","main_expt",""
"","bandit","314","795363","0.0-276.0-0.0","66310027","wem/bandit_party_1","A3URNV625JS985","either","1","204","","","","","","","0","0","1","0.1776605917","","0.2","0.6","0.4","0.8","","","","","0.4698449305","0.1776605917","0.2037112673","0.2855471023","","","","","","","","","","74","J","1","","","235","main_expt",""
"","bandit","315","797230","0.0-277.0-0.0","66310027","wem/bandit_party_1","A3URNV625JS985","either","1","327","","","","","","","0","0","1","","0.2039581082","0.2","0.6","0.4","0.8","0.4750890902","0.2039581082","0.2295670059","0.2806831757","","","","","","","","","","","","","","74","J","1","","","236","main_expt",""
