"consent","trial_type","trial_index","time_elapsed","internal_node_id","subjID","study","MID","cond","drift","rt","responses","button_pressed","key_press","like","value","connected","gems","bombs","no_reward","GemPrChosen","BombPrChosen","GainOverPainPr_0","GainOverPainPr_1","GainOverPainPr_2","GainOverPainPr_3","LosePr_0","LosePr_1","LosePr_2","LosePr_3","WinPr_0","WinPr_1","WinPr_2","WinPr_3","Q0","Q1","Q2","gender","age","ethnicity","label","expt_phase","target","respCharCode","respKey","respChoiceNum","respChoice","practice","trial_counter","trial_label","Q0_index"
"GDM/GDM_behavioral_consent_30min_online.html","consent","0","18123","0.0-0.0","67323717","wem/bandit_party_1","A29TV2MF4893DA","either","1","","","","","","","","","","","","","","","","","","","","","","","","","","","","","","","","","","","","","","","","",""
"","survey-text","1","28542","0.0-1.0","67323717","wem/bandit_party_1","A29TV2MF4893DA","either","1","9413","{""Q0"":""A29TV2MF4893DA""}","","","","","","","","","","","","","","","","","","","","","","","","","","","","","","","","","","","","","","",""
"","button-response","2","31474","0.0-2.0","67323717","wem/bandit_party_1","A29TV2MF4893DA","either","1","1928","","1","","","","","","","","","","","","","","","","","","","","","","","","","","","","","","","","","","","","","",""
"","text-replacement","3","42485","0.0-3.0","67323717","wem/bandit_party_1","A29TV2MF4893DA","either","1","10007","","","32","","","","","","","","","","","","","","","","","","","","","","","","","","","","","","","","","","","","",""
"","text-replacement","4","51696","0.0-4.0","67323717","wem/bandit_party_1","A29TV2MF4893DA","either","1","9211","","","32","","","","","","","","","","","","","","","","","","","","","","","","","","","","","","","","","","","","",""
"","identification","5","58954","0.0-6.0-0.0","67323717","wem/bandit_party_1","A29TV2MF4893DA","either","1","7249","","","","6","6","6","","","","","","","","","","","","","","","","","","","","","","","","pre","identification_pre","the Democratic Party","","","","","","","",""
"","identification","6","65071","0.0-6.0-1.0","67323717","wem/bandit_party_1","A29TV2MF4893DA","either","1","5108","","","","0","0","0","","","","","","","","","","","","","","","","","","","","","","","","pre","identification_pre","the Republican party","","","","","","","",""
"","text-replacement","7","127089","0.0-7.0","67323717","wem/bandit_party_1","A29TV2MF4893DA","either","1","61016","","","32","","","","","","","","","","","","","","","","","","","","","","","","","","","","","","","","","","","","",""
"","text-replacement","8","135114","0.0-8.0","67323717","wem/bandit_party_1","A29TV2MF4893DA","either","1","8025","","","32","","","","","","","","","","","","","","","","","","","","","","","","","","","","","","","","","","","","",""
"","text-replacement","9","153053","0.0-9.0","67323717","wem/bandit_party_1","A29TV2MF4893DA","either","1","17938","","","32","","","","","","","","","","","","","","","","","","","","","","","","","","","","","","","","","","","","",""
"","text-replacement","10","157081","0.0-10.0","67323717","wem/bandit_party_1","A29TV2MF4893DA","either","1","4026","","","32","","","","","","","","","","","","","","","","","","","","","","","","","","","","","","","","","","","","",""
"","text-replacement","11","162803","0.0-11.0","67323717","wem/bandit_party_1","A29TV2MF4893DA","either","1","5722","","","32","","","","","","","","","","","","","","","","","","","","","","","","","","","","","","","","","","","","",""
"","bandit","12","168456","0.0-12.0-0.0","67323717","wem/bandit_party_1","A29TV2MF4893DA","either","1","4144","","","","","","","0","0","1","0","0","","","","","0","","","","0","","","","","","","","","","","","","74","J","0","img/none_selected_demo.jpg","true","0","",""
"","bandit","13","172362","0.0-13.0-0.0","67323717","wem/bandit_party_1","A29TV2MF4893DA","either","1","2403","","","","","","","0","0","1","0","0","","","","","0","","","","0","","","","","","","","","","","","","75","K","0","img/none_selected_demo.jpg","true","0","",""
"","text-replacement","14","180638","0.0-14.0","67323717","wem/bandit_party_1","A29TV2MF4893DA","either","1","8274","","","32","","","","","","","","","","","","","","","","","","","","","","","","","","","","","","","","","","","","",""
"","text-replacement","15","189105","0.0-15.0","67323717","wem/bandit_party_1","A29TV2MF4893DA","either","1","8466","","","32","","","","","","","","","","","","","","","","","","","","","","","","","","","","","","","","","","","","",""
"","text-replacement","16","194908","0.0-16.0","67323717","wem/bandit_party_1","A29TV2MF4893DA","either","1","5801","","","32","","","","","","","","","","","","","","","","","","","","","","","","","","","","","","","","","","","","",""
"","text-replacement","17","199018","0.0-17.0","67323717","wem/bandit_party_1","A29TV2MF4893DA","either","1","4109","","","32","","","","","","","","","","","","","","","","","","","","","","","","","","","","","","","","","","","","",""
"","bandit","18","203795","0.0-18.0-0.0","67323717","wem/bandit_party_1","A29TV2MF4893DA","either","1","3273","","","","","","","0","1","0","","0.8","0.5","0.5","","","0.8","0.2","","","","","","","","","","","","","","","","74","J","0","img/none_selected_demo.jpg","true","0","80_20_practice",""
"","bandit","19","205890","0.0-18.0-1.0","67323717","wem/bandit_party_1","A29TV2MF4893DA","either","1","590","","","","","","","0","1","0","","0.8","0.5","0.5","","","0.8","0.2","","","","","","","","","","","","","","","","74","J","0","img/none_selected_demo.jpg","true","0","80_20_practice",""
"","bandit","20","207441","0.0-18.0-2.0","67323717","wem/bandit_party_1","A29TV2MF4893DA","either","1","46","","","","","","","0","1","0","","0.8","0.5","0.5","","","0.8","0.2","","","","","","","","","","","","","","","","74","J","0","img/none_selected_demo.jpg","true","0","80_20_practice",""
"","bandit","21","209326","0.0-18.0-3.0","67323717","wem/bandit_party_1","A29TV2MF4893DA","either","1","379","","","","","","","1","0","0","0.8","","0.5","0.5","","","","","","","0.8","0.2","","","","","","","","","","","","74","J","0","img/none_selected_demo.jpg","true","0","80_20_practice",""
"","bandit","22","211133","0.0-18.0-4.0","67323717","wem/bandit_party_1","A29TV2MF4893DA","either","1","302","","","","","","","0","0","1","","0.8","0.5","0.5","","","0.8","0.2","","","","","","","","","","","","","","","","74","J","0","img/none_selected_demo.jpg","true","0","80_20_practice",""
"","bandit","23","213289","0.0-18.0-5.0","67323717","wem/bandit_party_1","A29TV2MF4893DA","either","1","651","","","","","","","1","0","0","0.8","","0.5","0.5","","","","","","","0.8","0.2","","","","","","","","","","","","74","J","0","img/none_selected_demo.jpg","true","0","80_20_practice",""
"","bandit","24","214856","0.0-18.0-6.0","67323717","wem/bandit_party_1","A29TV2MF4893DA","either","1","63","","","","","","","0","1","0","","0.8","0.5","0.5","","","0.8","0.2","","","","","","","","","","","","","","","","74","J","0","img/none_selected_demo.jpg","true","0","80_20_practice",""
"","bandit","25","216933","0.0-18.0-7.0","67323717","wem/bandit_party_1","A29TV2MF4893DA","either","1","573","","","","","","","0","0","1","0.2","","0.5","0.5","","","","","","","0.8","0.2","","","","","","","","","","","","75","K","1","","true","0","80_20_practice",""
"","bandit","26","220411","0.0-18.0-8.0","67323717","wem/bandit_party_1","A29TV2MF4893DA","either","1","1974","","","","","","","0","1","0","","0.2","0.5","0.5","","","0.8","0.2","","","","","","","","","","","","","","","","75","K","1","","true","0","80_20_practice",""
"","bandit","27","222455","0.0-18.0-9.0","67323717","wem/bandit_party_1","A29TV2MF4893DA","either","1","540","","","","","","","0","0","1","0.2","","0.5","0.5","","","","","","","0.8","0.2","","","","","","","","","","","","75","K","1","","true","0","80_20_practice",""
"","bandit","28","224990","0.0-18.0-10.0","67323717","wem/bandit_party_1","A29TV2MF4893DA","either","1","1031","","","","","","","0","0","1","0.2","","0.5","0.5","","","","","","","0.8","0.2","","","","","","","","","","","","75","K","1","","true","0","80_20_practice",""
"","bandit","29","227380","0.0-18.0-11.0","67323717","wem/bandit_party_1","A29TV2MF4893DA","either","1","885","","","","","","","0","0","1","0.8","","0.5","0.5","","","","","","","0.8","0.2","","","","","","","","","","","","74","J","0","img/none_selected_demo.jpg","true","0","80_20_practice",""
"","bandit","30","229163","0.0-18.0-12.0","67323717","wem/bandit_party_1","A29TV2MF4893DA","either","1","279","","","","","","","0","0","1","","0.8","0.5","0.5","","","0.8","0.2","","","","","","","","","","","","","","","","74","J","0","img/none_selected_demo.jpg","true","0","80_20_practice",""
"","bandit","31","232262","0.0-18.0-13.0","67323717","wem/bandit_party_1","A29TV2MF4893DA","either","1","1595","","","","","","","0","1","0","","0.8","0.5","0.5","","","0.8","0.2","","","","","","","","","","","","","","","","74","J","0","img/none_selected_demo.jpg","true","0","80_20_practice",""
"","bandit","32","234059","0.0-18.0-14.0","67323717","wem/bandit_party_1","A29TV2MF4893DA","either","1","294","","","","","","","0","1","0","","0.8","0.5","0.5","","","0.8","0.2","","","","","","","","","","","","","","","","74","J","0","img/none_selected_demo.jpg","true","0","80_20_practice",""
"","bandit","33","236133","0.0-18.0-15.0","67323717","wem/bandit_party_1","A29TV2MF4893DA","either","1","569","","","","","","","0","1","0","","0.8","0.5","0.5","","","0.8","0.2","","","","","","","","","","","","","","","","74","J","0","img/none_selected_demo.jpg","true","0","80_20_practice",""
"","bandit","34","237969","0.0-18.0-16.0","67323717","wem/bandit_party_1","A29TV2MF4893DA","either","1","330","","","","","","","1","0","0","0.8","","0.5","0.5","","","","","","","0.8","0.2","","","","","","","","","","","","74","J","0","img/none_selected_demo.jpg","true","0","80_20_practice",""
"","bandit","35","239899","0.0-18.0-17.0","67323717","wem/bandit_party_1","A29TV2MF4893DA","either","1","425","","","","","","","0","0","1","0.8","","0.5","0.5","","","","","","","0.8","0.2","","","","","","","","","","","","74","J","0","img/none_selected_demo.jpg","true","0","80_20_practice",""
"","bandit","36","248262","0.0-18.0-18.0","67323717","wem/bandit_party_1","A29TV2MF4893DA","either","1","6858","","","","","","","1","0","0","0.8","","0.5","0.5","","","","","","","0.8","0.2","","","","","","","","","","","","74","J","0","img/none_selected_demo.jpg","true","0","80_20_practice",""
"","bandit","37","250293","0.0-18.0-19.0","67323717","wem/bandit_party_1","A29TV2MF4893DA","either","1","527","","","","","","","0","1","0","","0.8","0.5","0.5","","","0.8","0.2","","","","","","","","","","","","","","","","74","J","0","img/none_selected_demo.jpg","true","0","80_20_practice",""
"","text-replacement","38","255286","0.0-19.0","67323717","wem/bandit_party_1","A29TV2MF4893DA","either","1","4992","","","32","","","","","","","","","","","","","","","","","","","","","","","","","","","","","","","","","","","","",""
"","bandit","39","258853","0.0-20.0-0.0","67323717","wem/bandit_party_1","A29TV2MF4893DA","either","1","2063","","","","","","","1","0","0","1","0","","","","","0","1","","","1","0","","","","","","","","","","","","74","J","0","img/none_selected_demo.jpg","true","0","",""
"","text-replacement","40","264010","0.0-21.0","67323717","wem/bandit_party_1","A29TV2MF4893DA","either","1","5155","","","32","","","","","","","","","","","","","","","","","","","","","","","","","","","","","","","","","","","","",""
"","text-replacement","41","270145","0.0-22.0","67323717","wem/bandit_party_1","A29TV2MF4893DA","either","1","6134","","","32","","","","","","","","","","","","","","","","","","","","","","","","","","","","","","","","","","","","",""
"","text-replacement","42","274299","0.0-23.0","67323717","wem/bandit_party_1","A29TV2MF4893DA","either","1","4153","","","32","","","","","","","","","","","","","","","","","","","","","","","","","","","","","","","","","","","","",""
"","text-replacement","43","277536","0.0-24.0","67323717","wem/bandit_party_1","A29TV2MF4893DA","either","1","3236","","","32","","","","","","","","","","","","","","","","","","","","","","","","","","","","","","","","","","","","",""
"","text-replacement","44","283323","0.0-25.0","67323717","wem/bandit_party_1","A29TV2MF4893DA","either","1","5786","","","32","","","","","","","","","","","","","","","","","","","","","","","","","","","","","","","","","","","","",""
"","text-replacement","45","286418","0.0-26.0","67323717","wem/bandit_party_1","A29TV2MF4893DA","either","1","3094","","","32","","","","","","","","","","","","","","","","","","","","","","","","","","","","","","","","","","","","",""
"","text-replacement","46","290985","0.0-27.0","67323717","wem/bandit_party_1","A29TV2MF4893DA","either","1","4566","","","32","","","","","","","","","","","","","","","","","","","","","","","","","","","","","","","","","","","","",""
"","text-replacement","47","295447","0.0-28.0","67323717","wem/bandit_party_1","A29TV2MF4893DA","either","1","4461","","","32","","","","","","","","","","","","","","","","","","","","","","","","","","","","","","","","","","","","",""
"","text-replacement","48","299359","0.0-29.0","67323717","wem/bandit_party_1","A29TV2MF4893DA","either","1","3910","","","32","","","","","","","","","","","","","","","","","","","","","","","","","","","","","","","","","","","","",""
"","text-replacement","49","301598","0.0-30.0","67323717","wem/bandit_party_1","A29TV2MF4893DA","either","1","2237","","","32","","","","","","","","","","","","","","","","","","","","","","","","","","","","","","","","","","","","",""
"","text-replacement","50","306128","0.0-31.0","67323717","wem/bandit_party_1","A29TV2MF4893DA","either","1","4529","","","32","","","","","","","","","","","","","","","","","","","","","","","","","","","","","","","","","","","","",""
"","bandit","51","308421","0.0-32.0-0.0","67323717","wem/bandit_party_1","A29TV2MF4893DA","either","1","788","","","","","","","1","0","0","0.8","","0.5","0.5","0.5","0.5","","","","","0.8","0.2","0.6","0.2","","","","","","","","","","72","H","0","img/none_selected.jpg","true","0","full_practice",""
"","bandit","52","310546","0.0-32.0-1.0","67323717","wem/bandit_party_1","A29TV2MF4893DA","either","1","620","","","","","","","0","1","0","","0.8","0.5","0.5","0.5","0.5","0.8","0.2","0.6","0.2","","","","","","","","","","","","","","72","H","0","img/none_selected.jpg","true","0","full_practice",""
"","bandit","53","312534","0.0-32.0-2.0","67323717","wem/bandit_party_1","A29TV2MF4893DA","either","1","483","","","","","","","1","0","0","0.8","","0.5","0.5","0.5","0.5","","","","","0.8","0.2","0.6","0.2","","","","","","","","","","72","H","0","img/none_selected.jpg","true","0","full_practice",""
"","bandit","54","314555","0.0-32.0-3.0","67323717","wem/bandit_party_1","A29TV2MF4893DA","either","1","516","","","","","","","0","0","1","","0.8","0.5","0.5","0.5","0.5","0.8","0.2","0.6","0.2","","","","","","","","","","","","","","72","H","0","img/none_selected.jpg","true","0","full_practice",""
"","bandit","55","316655","0.0-32.0-4.0","67323717","wem/bandit_party_1","A29TV2MF4893DA","either","1","595","","","","","","","0","1","0","","0.8","0.5","0.5","0.5","0.5","0.8","0.2","0.6","0.2","","","","","","","","","","","","","","72","H","0","img/none_selected.jpg","true","0","full_practice",""
"","bandit","56","320414","0.0-32.0-5.0","67323717","wem/bandit_party_1","A29TV2MF4893DA","either","1","2255","","","","","","","1","0","0","0.8","","0.5","0.5","0.5","0.5","","","","","0.8","0.2","0.6","0.2","","","","","","","","","","72","H","0","img/none_selected.jpg","true","0","full_practice",""
"","bandit","57","322304","0.0-32.0-6.0","67323717","wem/bandit_party_1","A29TV2MF4893DA","either","1","386","","","","","","","0","0","1","0.8","","0.5","0.5","0.5","0.5","","","","","0.8","0.2","0.6","0.2","","","","","","","","","","72","H","0","img/none_selected.jpg","true","0","full_practice",""
"","bandit","58","325282","0.0-32.0-7.0","67323717","wem/bandit_party_1","A29TV2MF4893DA","either","1","1473","","","","","","","1","0","0","0.2","","0.5","0.5","0.5","0.5","","","","","0.8","0.2","0.6","0.2","","","","","","","","","","74","J","1","","true","0","full_practice",""
"","bandit","59","327362","0.0-32.0-8.0","67323717","wem/bandit_party_1","A29TV2MF4893DA","either","1","575","","","","","","","0","0","1","","0.2","0.5","0.5","0.5","0.5","0.8","0.2","0.6","0.2","","","","","","","","","","","","","","74","J","1","","true","0","full_practice",""
"","bandit","60","329351","0.0-32.0-9.0","67323717","wem/bandit_party_1","A29TV2MF4893DA","either","1","485","","","","","","","0","0","1","0.2","","0.5","0.5","0.5","0.5","","","","","0.8","0.2","0.6","0.2","","","","","","","","","","74","J","1","","true","0","full_practice",""
"","bandit","61","331361","0.0-32.0-10.0","67323717","wem/bandit_party_1","A29TV2MF4893DA","either","1","505","","","","","","","0","0","1","0.2","","0.5","0.5","0.5","0.5","","","","","0.8","0.2","0.6","0.2","","","","","","","","","","74","J","1","","true","0","full_practice",""
"","bandit","62","333261","0.0-32.0-11.0","67323717","wem/bandit_party_1","A29TV2MF4893DA","either","1","394","","","","","","","0","0","1","0.2","","0.5","0.5","0.5","0.5","","","","","0.8","0.2","0.6","0.2","","","","","","","","","","74","J","1","","true","0","full_practice",""
"","bandit","63","335464","0.0-32.0-12.0","67323717","wem/bandit_party_1","A29TV2MF4893DA","either","1","699","","","","","","","1","0","0","0.6","","0.5","0.5","0.5","0.5","","","","","0.8","0.2","0.6","0.2","","","","","","","","","","75","K","2","","true","0","full_practice",""
"","bandit","64","338348","0.0-32.0-13.0","67323717","wem/bandit_party_1","A29TV2MF4893DA","either","1","1380","","","","","","","1","0","0","0.6","","0.5","0.5","0.5","0.5","","","","","0.8","0.2","0.6","0.2","","","","","","","","","","75","K","2","","true","0","full_practice",""
"","bandit","65","342613","0.0-32.0-14.0","67323717","wem/bandit_party_1","A29TV2MF4893DA","either","1","2760","","","","","","","1","0","0","0.6","","0.5","0.5","0.5","0.5","","","","","0.8","0.2","0.6","0.2","","","","","","","","","","75","K","2","","true","0","full_practice",""
"","bandit","66","346703","0.0-32.0-15.0","67323717","wem/bandit_party_1","A29TV2MF4893DA","either","1","2586","","","","","","","0","1","0","","0.6","0.5","0.5","0.5","0.5","0.8","0.2","0.6","0.2","","","","","","","","","","","","","","75","K","2","","true","0","full_practice",""
"","bandit","67","349646","0.0-32.0-16.0","67323717","wem/bandit_party_1","A29TV2MF4893DA","either","1","1436","","","","","","","0","0","1","","0.6","0.5","0.5","0.5","0.5","0.8","0.2","0.6","0.2","","","","","","","","","","","","","","75","K","2","","true","0","full_practice",""
"","bandit","68","352459","0.0-32.0-17.0","67323717","wem/bandit_party_1","A29TV2MF4893DA","either","1","1309","","","","","","","0","0","1","","0.2","0.5","0.5","0.5","0.5","0.8","0.2","0.6","0.2","","","","","","","","","","","","","","76","L","3","","true","0","full_practice",""
"","bandit","69","354405","0.0-32.0-18.0","67323717","wem/bandit_party_1","A29TV2MF4893DA","either","1","441","","","","","","","0","0","1","0.2","","0.5","0.5","0.5","0.5","","","","","0.8","0.2","0.6","0.2","","","","","","","","","","76","L","3","","true","0","full_practice",""
"","bandit","70","356421","0.0-32.0-19.0","67323717","wem/bandit_party_1","A29TV2MF4893DA","either","1","512","","","","","","","0","0","1","","0.2","0.5","0.5","0.5","0.5","0.8","0.2","0.6","0.2","","","","","","","","","","","","","","76","L","3","","true","0","full_practice",""
"","text","71","362406","0.0-33.0","67323717","wem/bandit_party_1","A29TV2MF4893DA","either","1","5978","","","32","","","","","","","","","","","","","","","","","","","","","","","","","","","","","","","","","","","","",""
"","text-replacement","72","382054","0.0-34.0","67323717","wem/bandit_party_1","A29TV2MF4893DA","either","1","18645","","","32","","","","","","","","","","","","","","","","","","","","","","","","","","","","","","","","","","","","",""
"","text-replacement","73","394595","0.0-35.0","67323717","wem/bandit_party_1","A29TV2MF4893DA","either","1","12539","","","32","","","","","","","","","","","","","","","","","","","","","","","","","","","","","","","","","","","","",""
"","text-replacement","74","400049","0.0-36.0","67323717","wem/bandit_party_1","A29TV2MF4893DA","either","1","5452","","","32","","","","","","","","","","","","","","","","","","","","","","","","","","","","","","","","","","","","",""
"","text-replacement","75","406156","0.0-37.0","67323717","wem/bandit_party_1","A29TV2MF4893DA","either","1","6105","","","32","","","","","","","","","","","","","","","","","","","","","","","","","","","","","","","","","","","","",""
"","text-replacement","76","413111","0.0-38.0","67323717","wem/bandit_party_1","A29TV2MF4893DA","either","1","6954","","","32","","","","","","","","","","","","","","","","","","","","","","","","","","","","","","","","","","","","",""
"","survey-multi-choice-replacement","77","423219","0.0-39.0-0.0","67323717","wem/bandit_party_1","A29TV2MF4893DA","either","1","10103","","","","","","","","","","","","","","","","","","","","","","","","Money will be added to the pool for <span style='color:blue;'>DEMOCRATS</span>","","","","","","","attn_check","","","","","","","","","0"
"","survey-multi-choice-replacement","78","429528","0.0-40.0-0.0","67323717","wem/bandit_party_1","A29TV2MF4893DA","either","1","5301","","","","","","","","","","","","","","","","","","","","","","","","Equal amounts of money will be added to the pool for <span style='color:blue;'>DEMOCRATS</span> and subtracted from the pool for <span style='color:red;'>REPUBLICANS</span>","","","","","","","attn_check","","","","","","","","","2"
"","survey-multi-choice-replacement","79","434737","0.0-41.0-0.0","67323717","wem/bandit_party_1","A29TV2MF4893DA","either","1","4202","","","","","","","","","","","","","","","","","","","","","","","","No money will be added to either pool","","","","","","","attn_check","","","","","","","","","3"
"","bandit","80","439615","0.0-42.0-0.0","67323717","wem/bandit_party_1","A29TV2MF4893DA","either","1","2370","","","","","","","0","0","1","","0.3592836462","0.2","0.8","0.6","0.4","0.3592836462","0.4269289603","0.0798457429","0.02943109976","","","","","","","","","","","","","","72","H","0","img/none_selected.jpg","","1","main_expt",""
"","bandit","81","442272","0.0-43.0-0.0","67323717","wem/bandit_party_1","A29TV2MF4893DA","either","1","1153","","","","","","","0","0","1","","0.3454903542","0.2","0.8","0.6","0.4","0.3454903542","0.4660243271","0.07621336767","0.06336112212","","","","","","","","","","","","","","72","H","0","img/none_selected.jpg","","2","main_expt",""
"","bandit","82","444895","0.0-44.0-0.0","67323717","wem/bandit_party_1","A29TV2MF4893DA","either","1","1121","","","","","","","0","0","1","","0.4738503749","0.2","0.8","0.6","0.4","0.2941512374","0.4738503749","0.07476295528","0.07335687118","","","","","","","","","","","","","","74","J","1","","","3","main_expt",""
"","bandit","83","447032","0.0-45.0-0.0","67323717","wem/bandit_party_1","A29TV2MF4893DA","either","1","631","","","","","","","0","1","0","","0.4618500418","0.2","0.8","0.6","0.4","0.2851241965","0.4618500418","0.06526985361","0.06156305515","","","","","","","","","","","","","","74","J","1","","","4","main_expt",""
"","bandit","84","449080","0.0-46.0-0.0","67323717","wem/bandit_party_1","A29TV2MF4893DA","either","1","543","","","","","","","0","0","1","","0.4488935273","0.2","0.8","0.6","0.4","0.3172925843","0.4488935273","0.05487735528","0.08141194251","","","","","","","","","","","","","","74","J","1","","","5","main_expt",""
"","bandit","85","451679","0.0-47.0-0.0","67323717","wem/bandit_party_1","A29TV2MF4893DA","either","1","1094","","","","","","","0","0","1","0.04340015571","","0.2","0.8","0.6","0.4","","","","","0.3319153021","0.4437832297","0.04340015571","0.1104821702","","","","","","","","","","75","K","2","","","6","main_expt",""
"","bandit","86","453532","0.0-48.0-0.0","67323717","wem/bandit_party_1","A29TV2MF4893DA","either","1","349","","","","","","","0","1","0","","0.04575060371","0.2","0.8","0.6","0.4","0.3553039772","0.4310077805","0.04575060371","0.1191408541","","","","","","","","","","","","","","75","K","2","","","7","main_expt",""
"","bandit","87","455396","0.0-49.0-0.0","67323717","wem/bandit_party_1","A29TV2MF4893DA","either","1","360","","","","","","","0","0","1","0.06112087539","","0.2","0.8","0.6","0.4","","","","","0.3868093767","0.4480386191","0.06112087539","0.1517570037","","","","","","","","","","75","K","2","","","8","main_expt",""
"","bandit","88","457734","0.0-50.0-0.0","67323717","wem/bandit_party_1","A29TV2MF4893DA","either","1","835","","","","","","","0","0","1","","0.1738087075","0.2","0.8","0.6","0.4","0.3754406694","0.4460224538","0.07854191076","0.1738087075","","","","","","","","","","","","","","76","L","3","","","9","main_expt",""
"","bandit","89","459615","0.0-51.0-0.0","67323717","wem/bandit_party_1","A29TV2MF4893DA","either","1","374","","","","","","","0","0","1","0.2033535465","","0.2","0.8","0.6","0.4","","","","","0.3537433427","0.3954493452","0.06865483858","0.2033535465","","","","","","","","","","76","L","3","","","10","main_expt",""
"","bandit","90","461462","0.0-52.0-0.0","67323717","wem/bandit_party_1","A29TV2MF4893DA","either","1","342","","","","","","","0","0","1","0.1751631116","","0.2","0.8","0.6","0.4","","","","","0.3793358735","0.4064238371","0.05083805298","0.1751631116","","","","","","","","","","76","L","3","","","11","main_expt",""
"","bandit","91","463479","0.0-53.0-0.0","67323717","wem/bandit_party_1","A29TV2MF4893DA","either","1","511","","","","","","","0","0","1","0.1038792476","","0.2","0.8","0.6","0.4","","","","","0.3800428212","0.3800839449","0.1038792476","0.1787487179","","","","","","","","","","75","K","2","","","12","main_expt",""
"","bandit","92","465374","0.0-54.0-0.0","67323717","wem/bandit_party_1","A29TV2MF4893DA","either","1","390","","","","","","","0","0","1","","0.1197284353","0.2","0.8","0.6","0.4","0.3647981021","0.3866628193","0.1197284353","0.1794712961","","","","","","","","","","","","","","75","K","2","","","13","main_expt",""
"","bandit","93","467671","0.0-55.0-0.0","67323717","wem/bandit_party_1","A29TV2MF4893DA","either","1","793","","","","","","","1","0","0","0.326509825","","0.2","0.8","0.6","0.4","","","","","0.3646471907","0.326509825","0.135681701","0.2482140722","","","","","","","","","","74","J","1","","","14","main_expt",""
"","bandit","94","469509","0.0-56.0-0.0","67323717","wem/bandit_party_1","A29TV2MF4893DA","either","1","332","","","","","","","0","0","1","","0.2428529647","0.2","0.8","0.6","0.4","0.3549291363","0.2428529647","0.125153919","0.2859415589","","","","","","","","","","","","","","74","J","1","","","15","main_expt",""
"","bandit","95","471823","0.0-57.0-0.0","67323717","wem/bandit_party_1","A29TV2MF4893DA","either","1","808","","","","","","","1","0","0","0.3727350689","","0.2","0.8","0.6","0.4","","","","","0.3727350689","0.2332962783","0.1096891688","0.26587149","","","","","","","","","","72","H","0","img/none_selected.jpg","","16","main_expt",""
"","bandit","96","473586","0.0-58.0-0.0","67323717","wem/bandit_party_1","A29TV2MF4893DA","either","1","259","","","","","","","1","0","0","0.3112083829","","0.2","0.8","0.6","0.4","","","","","0.3112083829","0.2271032234","0.1051581447","0.2776265896","","","","","","","","","","72","H","0","img/none_selected.jpg","","17","main_expt",""
"","bandit","97","475391","0.0-59.0-0.0","67323717","wem/bandit_party_1","A29TV2MF4893DA","either","1","299","","","","","","","0","0","1","","0.2403081055","0.2","0.8","0.6","0.4","0.2403081055","0.1701710303","0.1437943492","0.3223387563","","","","","","","","","","","","","","72","H","0","img/none_selected.jpg","","18","main_expt",""
"","bandit","98","477137","0.0-60.0-0.0","67323717","wem/bandit_party_1","A29TV2MF4893DA","either","1","241","","","","","","","0","0","1","","0.2377482675","0.2","0.8","0.6","0.4","0.2377482675","0.2070198111","0.1405615485","0.3192918255","","","","","","","","","","","","","","72","H","0","img/none_selected.jpg","","19","main_expt",""
"","bandit","99","478940","0.0-61.0-0.0","67323717","wem/bandit_party_1","A29TV2MF4893DA","either","1","299","","","","","","","0","0","1","0.2607530295","","0.2","0.8","0.6","0.4","","","","","0.2607530295","0.2412547966","0.1063334751","0.2739159796","","","","","","","","","","72","H","0","img/none_selected.jpg","","20","main_expt",""
"","bandit","100","480732","0.0-62.0-0.0","67323717","wem/bandit_party_1","A29TV2MF4893DA","either","1","287","","","","","","","0","1","0","","0.2184758186","0.2","0.8","0.6","0.4","0.2919400674","0.2184758186","0.07848250716","0.2454385858","","","","","","","","","","","","","","74","J","1","","","21","main_expt",""
"","bandit","101","482604","0.0-63.0-0.0","67323717","wem/bandit_party_1","A29TV2MF4893DA","either","1","366","","","","","","","1","0","0","0.1849325376","","0.2","0.8","0.6","0.4","","","","","0.2995681058","0.1849325376","0.1005082742","0.2340842041","","","","","","","","","","74","J","1","","","22","main_expt",""
"","bandit","102","484424","0.0-64.0-0.0","67323717","wem/bandit_party_1","A29TV2MF4893DA","either","1","316","","","","","","","0","0","1","0.1521197653","","0.2","0.8","0.6","0.4","","","","","0.292554742","0.1521197653","0.0792694407","0.1840173947","","","","","","","","","","74","J","1","","","23","main_expt",""
"","bandit","103","486148","0.0-65.0-0.0","67323717","wem/bandit_party_1","A29TV2MF4893DA","either","1","218","","","","","","","0","0","1","0.1759403195","","0.2","0.8","0.6","0.4","","","","","0.3616894364","0.1759403195","0.07358699385","0.1745529383","","","","","","","","","","74","J","1","","","24","main_expt",""
"","bandit","104","488322","0.0-66.0-0.0","67323717","wem/bandit_party_1","A29TV2MF4893DA","either","1","669","","","","","","","0","0","1","0.142208116","","0.2","0.8","0.6","0.4","","","","","0.3575757263","0.09479311865","0.142208116","0.1756582033","","","","","","","","","","75","K","2","","","25","main_expt",""
"","bandit","105","490091","0.0-67.0-0.0","67323717","wem/bandit_party_1","A29TV2MF4893DA","either","1","263","","","","","","","0","0","1","0.1245113583","","0.2","0.8","0.6","0.4","","","","","0.3635346368","0.08156123497","0.1245113583","0.2086365416","","","","","","","","","","75","K","2","","","26","main_expt",""
"","bandit","106","492289","0.0-68.0-0.0","67323717","wem/bandit_party_1","A29TV2MF4893DA","either","1","693","","","","","","","0","0","1","","0.118364605","0.2","0.8","0.6","0.4","0.4109801844","0.1102307873","0.118364605","0.2139763749","","","","","","","","","","","","","","75","K","2","","","27","main_expt",""
"","bandit","107","494240","0.0-69.0-0.0","67323717","wem/bandit_party_1","A29TV2MF4893DA","either","1","448","","","","","","","0","0","1","","0.1613483267","0.2","0.8","0.6","0.4","0.3772962545","0.08274430796","0.1105930361","0.1613483267","","","","","","","","","","","","","","76","L","3","","","28","main_expt",""
"","bandit","108","495898","0.0-70.0-0.0","67323717","wem/bandit_party_1","A29TV2MF4893DA","either","1","153","","","","","","","0","0","1","","0.1712488152","0.2","0.8","0.6","0.4","0.3875745016","0.1086911099","0.1118713044","0.1712488152","","","","","","","","","","","","","","76","L","3","","","29","main_expt",""
"","bandit","109","498685","0.0-71.0-0.0","67323717","wem/bandit_party_1","A29TV2MF4893DA","either","1","1283","","","","","","","0","1","0","","0.3780019893","0.2","0.8","0.6","0.4","0.3780019893","0.1116575632","0.1914750456","0.1675524316","","","","","","","","","","","","","","72","H","0","img/none_selected.jpg","","30","main_expt",""
"","bandit","110","500467","0.0-72.0-0.0","67323717","wem/bandit_party_1","A29TV2MF4893DA","either","1","277","","","","","","","0","1","0","","0.416860241","0.2","0.8","0.6","0.4","0.416860241","0.07828091442","0.2367730164","0.140325158","","","","","","","","","","","","","","72","H","0","img/none_selected.jpg","","31","main_expt",""
"","bandit","111","502312","0.0-73.0-0.0","67323717","wem/bandit_party_1","A29TV2MF4893DA","either","1","339","","","","","","","0","0","1","","0.4242573056","0.2","0.8","0.6","0.4","0.4242573056","0.07550395781","0.2109574779","0.1553940025","","","","","","","","","","","","","","72","H","0","img/none_selected.jpg","","32","main_expt",""
"","bandit","112","504107","0.0-74.0-0.0","67323717","wem/bandit_party_1","A29TV2MF4893DA","either","1","289","","","","","","","0","1","0","","0.4185546122","0.2","0.8","0.6","0.4","0.4185546122","0.1445529326","0.2005542758","0.1925614924","","","","","","","","","","","","","","72","H","0","img/none_selected.jpg","","33","main_expt",""
"","bandit","113","505917","0.0-75.0-0.0","67323717","wem/bandit_party_1","A29TV2MF4893DA","either","1","305","","","","","","","0","1","0","","0.4268308419","0.2","0.8","0.6","0.4","0.4268308419","0.1091775744","0.180377021","0.2150530123","","","","","","","","","","","","","","72","H","0","img/none_selected.jpg","","34","main_expt",""
"","bandit","114","507721","0.0-76.0-0.0","67323717","wem/bandit_party_1","A29TV2MF4893DA","either","1","296","","","","","","","0","1","0","","0.4265642185","0.2","0.8","0.6","0.4","0.4265642185","0.1297995116","0.2111187229","0.2688968874","","","","","","","","","","","","","","72","H","0","img/none_selected.jpg","","35","main_expt",""
"","bandit","115","509524","0.0-77.0-0.0","67323717","wem/bandit_party_1","A29TV2MF4893DA","either","1","298","","","","","","","0","0","1","","0.4066287969","0.2","0.8","0.6","0.4","0.4066287969","0.09468550628","0.2119332756","0.2977459964","","","","","","","","","","","","","","72","H","0","img/none_selected.jpg","","36","main_expt",""
"","bandit","116","511236","0.0-78.0-0.0","67323717","wem/bandit_party_1","A29TV2MF4893DA","either","1","207","","","","","","","0","0","1","","0.4611471687","0.2","0.8","0.6","0.4","0.4611471687","0.09396978408","0.2256131965","0.2684429955","","","","","","","","","","","","","","72","H","0","img/none_selected.jpg","","37","main_expt",""
"","bandit","117","513023","0.0-79.0-0.0","67323717","wem/bandit_party_1","A29TV2MF4893DA","either","1","283","","","","","","","0","0","1","","0.4482708269","0.2","0.8","0.6","0.4","0.4482708269","0.1062257399","0.1975147253","0.2490186117","","","","","","","","","","","","","","72","H","0","img/none_selected.jpg","","38","main_expt",""
"","bandit","118","514834","0.0-80.0-0.0","67323717","wem/bandit_party_1","A29TV2MF4893DA","either","1","305","","","","","","","0","0","1","0.09676453159","","0.2","0.8","0.6","0.4","","","","","0.4402774387","0.09676453159","0.1595648847","0.2548033483","","","","","","","","","","74","J","1","","","39","main_expt",""
"","bandit","119","517787","0.0-81.0-0.0","67323717","wem/bandit_party_1","A29TV2MF4893DA","either","1","1447","","","","","","","0","0","1","0.08197179495","","0.2","0.8","0.6","0.4","","","","","0.4385128538","0.08197179495","0.1626610004","0.2688720753","","","","","","","","","","74","J","1","","","40","main_expt",""
"","bandit","120","519523","0.0-82.0-0.0","67323717","wem/bandit_party_1","A29TV2MF4893DA","either","1","232","","","","","","","0","0","1","","0.1982402655","0.2","0.8","0.6","0.4","0.4380640779","0.14416382","0.1982402655","0.297778532","","","","","","","","","","","","","","75","K","2","","","41","main_expt",""
"","bandit","121","521292","0.0-83.0-0.0","67323717","wem/bandit_party_1","A29TV2MF4893DA","either","1","264","","","","","","","0","0","1","","0.1863610343","0.2","0.8","0.6","0.4","0.4265224768","0.1070927036","0.1863610343","0.2449207522","","","","","","","","","","","","","","75","K","2","","","42","main_expt",""
"","bandit","122","523266","0.0-84.0-0.0","67323717","wem/bandit_party_1","A29TV2MF4893DA","either","1","468","","","","","","","0","0","1","","0.2457567503","0.2","0.8","0.6","0.4","0.435880106","0.1214526226","0.2418389683","0.2457567503","","","","","","","","","","","","","","76","L","3","","","43","main_expt",""
"","bandit","123","525044","0.0-85.0-0.0","67323717","wem/bandit_party_1","A29TV2MF4893DA","either","1","273","","","","","","","0","0","1","","0.2432732657","0.2","0.8","0.6","0.4","0.4450576882","0.1450738833","0.1943491227","0.2432732657","","","","","","","","","","","","","","76","L","3","","","44","main_expt",""
"","bandit","124","526824","0.0-86.0-0.0","67323717","wem/bandit_party_1","A29TV2MF4893DA","either","1","274","","","","","","","1","0","0","0.2656772236","","0.2","0.8","0.6","0.4","","","","","0.4382030275","0.09632230927","0.1543250971","0.2656772236","","","","","","","","","","76","L","3","","","45","main_expt",""
"","bandit","125","528637","0.0-87.0-0.0","67323717","wem/bandit_party_1","A29TV2MF4893DA","either","1","309","","","","","","","0","0","1","","0.2432112423","0.2","0.8","0.6","0.4","0.4412369426","0.103211431","0.09719433791","0.2432112423","","","","","","","","","","","","","","76","L","3","","","46","main_expt",""
"","bandit","126","530150","0.0-88.0-0.0","67323717","wem/bandit_party_1","A29TV2MF4893DA","either","1","6","","","","","","","0","1","0","","0.2992745976","0.2","0.8","0.6","0.4","0.4588863431","0.09916324924","0.1228880329","0.2992745976","","","","","","","","","","","","","","76","L","3","","","47","main_expt",""
"","bandit","127","532035","0.0-89.0-0.0","67323717","wem/bandit_party_1","A29TV2MF4893DA","either","1","378","","","","","","","0","1","0","","0.2594611615","0.2","0.8","0.6","0.4","0.4408788818","0.1090242341","0.1068532567","0.2594611615","","","","","","","","","","","","","","76","L","3","","","48","main_expt",""
"","bandit","128","533847","0.0-90.0-0.0","67323717","wem/bandit_party_1","A29TV2MF4893DA","either","1","307","","","","","","","0","0","1","","0.2767916858","0.2","0.8","0.6","0.4","0.4232064109","0.1265186769","0.1044048509","0.2767916858","","","","","","","","","","","","","","76","L","3","","","49","main_expt",""
"","bandit","129","535585","0.0-91.0-0.0","67323717","wem/bandit_party_1","A29TV2MF4893DA","either","1","231","","","","","","","0","1","0","","0.2762534014","0.2","0.8","0.6","0.4","0.4210883962","0.1397440907","0.1072026782","0.2762534014","","","","","","","","","","","","","","76","L","3","","","50","main_expt",""
"","bandit","130","537382","0.0-92.0-0.0","67323717","wem/bandit_party_1","A29TV2MF4893DA","either","1","293","","","","","","","0","0","1","0.3379376541","","0.2","0.8","0.6","0.4","","","","","0.4225635581","0.153600331","0.1287882573","0.3379376541","","","","","","","","","","76","L","3","","","51","main_expt",""
"","bandit","131","539154","0.0-93.0-0.0","67323717","wem/bandit_party_1","A29TV2MF4893DA","either","1","266","","","","","","","0","0","1","0.3395267946","","0.2","0.8","0.6","0.4","","","","","0.4146237098","0.1718407591","0.1298059469","0.3395267946","","","","","","","","","","76","L","3","","","52","main_expt",""
"","bandit","132","540876","0.0-94.0-0.0","67323717","wem/bandit_party_1","A29TV2MF4893DA","either","1","216","","","","","","","0","0","1","","0.07423060895","0.2","0.8","0.6","0.4","0.3763623321","0.1945727614","0.07423060895","0.29674647","","","","","","","","","","","","","","75","K","2","","","53","main_expt",""
"","bandit","133","542519","0.0-95.0-0.0","67323717","wem/bandit_party_1","A29TV2MF4893DA","either","1","137","","","","","","","0","0","1","","0.08562383645","0.2","0.8","0.6","0.4","0.3289081181","0.2450542523","0.08562383645","0.3372955831","","","","","","","","","","","","","","75","K","2","","","54","main_expt",""
"","bandit","134","544457","0.0-96.0-0.0","67323717","wem/bandit_party_1","A29TV2MF4893DA","either","1","434","","","","","","","0","0","1","","0.2547241938","0.2","0.8","0.6","0.4","0.3025984711","0.2547241938","0.0757818623","0.3506099842","","","","","","","","","","","","","","74","J","1","","","55","main_expt",""
"","bandit","135","546241","0.0-97.0-0.0","67323717","wem/bandit_party_1","A29TV2MF4893DA","either","1","279","","","","","","","0","0","1","0.2595112895","","0.2","0.8","0.6","0.4","","","","","0.2921333137","0.2595112895","0.09897923035","0.3418029788","","","","","","","","","","74","J","1","","","56","main_expt",""
"","bandit","136","548031","0.0-98.0-0.0","67323717","wem/bandit_party_1","A29TV2MF4893DA","either","1","284","","","","","","","0","0","1","0.2610276213","","0.2","0.8","0.6","0.4","","","","","0.3317177772","0.2610276213","0.1160875525","0.3162475816","","","","","","","","","","74","J","1","","","57","main_expt",""
"","bandit","137","549760","0.0-99.0-0.0","67323717","wem/bandit_party_1","A29TV2MF4893DA","either","1","224","","","","","","","0","0","1","0.1134641846","","0.2","0.8","0.6","0.4","","","","","0.3240244649","0.2354201416","0.1134641846","0.3269881105","","","","","","","","","","75","K","2","","","58","main_expt",""
"","bandit","138","551519","0.0-100.0-0.0","67323717","wem/bandit_party_1","A29TV2MF4893DA","either","1","254","","","","","","","0","0","1","","0.1177083384","0.2","0.8","0.6","0.4","0.2988076671","0.2346370837","0.1177083384","0.2901324944","","","","","","","","","","","","","","75","K","2","","","59","main_expt",""
"","bandit","139","553300","0.0-101.0-0.0","67323717","wem/bandit_party_1","A29TV2MF4893DA","either","1","276","","","","","","","0","0","1","0.1125723432","","0.2","0.8","0.6","0.4","","","","","0.3096792726","0.2315637733","0.1125723432","0.289588464","","","","","","","","","","75","K","2","","","60","main_expt",""
"","bandit","140","555388","0.0-102.0-0.0","67323717","wem/bandit_party_1","A29TV2MF4893DA","either","1","582","","","","","","","0","0","1","0.2782845563","","0.2","0.8","0.6","0.4","","","","","0.2821336973","0.2599537756","0.09911093426","0.2782845563","","","","","","","","","","76","L","3","","","61","main_expt",""
"","bandit","141","557153","0.0-103.0-0.0","67323717","wem/bandit_party_1","A29TV2MF4893DA","either","1","260","","","","","","","0","0","1","","0.3165490401","0.2","0.8","0.6","0.4","0.2414244345","0.2594941563","0.09440438105","0.3165490401","","","","","","","","","","","","","","76","L","3","","","62","main_expt",""
"","bandit","142","559009","0.0-104.0-0.0","67323717","wem/bandit_party_1","A29TV2MF4893DA","either","1","350","","","","","","","0","1","0","","0.213639373","0.2","0.8","0.6","0.4","0.213639373","0.2660839385","0.1015409351","0.3034564924","","","","","","","","","","","","","","72","H","0","img/none_selected.jpg","","63","main_expt",""
"","bandit","143","560777","0.0-105.0-0.0","67323717","wem/bandit_party_1","A29TV2MF4893DA","either","1","264","","","","","","","0","0","1","","0.1876308072","0.2","0.8","0.6","0.4","0.1876308072","0.2426585031","0.07049798599","0.2506654962","","","","","","","","","","","","","","72","H","0","img/none_selected.jpg","","64","main_expt",""
"","bandit","144","562531","0.0-106.0-0.0","67323717","wem/bandit_party_1","A29TV2MF4893DA","either","1","248","","","","","","","0","0","1","","0.1841803182","0.2","0.8","0.6","0.4","0.1841803182","0.2581047566","0.05735603507","0.253414466","","","","","","","","","","","","","","72","H","0","img/none_selected.jpg","","65","main_expt",""
"","bandit","145","565465","0.0-107.0-0.0","67323717","wem/bandit_party_1","A29TV2MF4893DA","either","1","1428","","","","","","","0","0","1","","0.187417598","0.2","0.8","0.6","0.4","0.187417598","0.2872127433","0.0621258055","0.2836500186","","","","","","","","","","","","","","72","H","0","img/none_selected.jpg","","66","main_expt",""
"","bandit","146","567266","0.0-108.0-0.0","67323717","wem/bandit_party_1","A29TV2MF4893DA","either","1","292","","","","","","","0","0","1","","0.1395950637","0.2","0.8","0.6","0.4","0.1395950637","0.3232337643","0.06966106928","0.3217852231","","","","","","","","","","","","","","72","H","0","img/none_selected.jpg","","67","main_expt",""
"","bandit","147","569069","0.0-109.0-0.0","67323717","wem/bandit_party_1","A29TV2MF4893DA","either","1","296","","","","","","","0","0","1","0.3376006622","","0.2","0.8","0.6","0.4","","","","","0.1363519197","0.3376006622","0.09965709916","0.3574581916","","","","","","","","","","74","J","1","","","68","main_expt",""
"","bandit","148","570681","0.0-110.0-0.0","67323717","wem/bandit_party_1","A29TV2MF4893DA","either","1","104","","","","","","","0","0","1","0.1428217854","","0.2","0.8","0.6","0.4","","","","","0.1117144852","0.2917609244","0.1428217854","0.3884563005","","","","","","","","","","75","K","2","","","69","main_expt",""
"","bandit","149","572400","0.0-111.0-0.0","67323717","wem/bandit_party_1","A29TV2MF4893DA","either","1","213","","","","","","","0","1","0","","0.3920047773","0.2","0.8","0.6","0.4","0.09667493602","0.2218665627","0.1866845388","0.3920047773","","","","","","","","","","","","","","76","L","3","","","70","main_expt",""
"","bandit","150","574167","0.0-112.0-0.0","67323717","wem/bandit_party_1","A29TV2MF4893DA","either","1","264","","","","","","","0","0","1","0.4066376731","","0.2","0.8","0.6","0.4","","","","","0.09186933139","0.2409383839","0.1702545286","0.4066376731","","","","","","","","","","76","L","3","","","71","main_expt",""
"","bandit","151","575688","0.0-113.0-0.0","67323717","wem/bandit_party_1","A29TV2MF4893DA","either","1","15","","","","","","","0","0","1","0.3443789926","","0.2","0.8","0.6","0.4","","","","","0.09472009463","0.1920783453","0.1836279043","0.3443789926","","","","","","","","","","76","L","3","","","72","main_expt",""
"","bandit","152","577226","0.0-114.0-0.0","67323717","wem/bandit_party_1","A29TV2MF4893DA","either","1","32","","","","","","","0","0","1","0.3227553012","","0.2","0.8","0.6","0.4","","","","","0.1167805336","0.1905254877","0.1644348242","0.3227553012","","","","","","","","","","76","L","3","","","73","main_expt",""
"","bandit","153","578856","0.0-115.0-0.0","67323717","wem/bandit_party_1","A29TV2MF4893DA","either","1","125","","","","","","","1","0","0","0.3336652139","","0.2","0.8","0.6","0.4","","","","","0.1465151254","0.184198213","0.1833421201","0.3336652139","","","","","","","","","","76","L","3","","","74","main_expt",""
"","bandit","154","580624","0.0-116.0-0.0","67323717","wem/bandit_party_1","A29TV2MF4893DA","either","1","260","","","","","","","0","0","1","0.2890150868","","0.2","0.8","0.6","0.4","","","","","0.123285719","0.1881920243","0.1519653276","0.2890150868","","","","","","","","","","76","L","3","","","75","main_expt",""
"","bandit","155","582172","0.0-117.0-0.0","67323717","wem/bandit_party_1","A29TV2MF4893DA","either","1","43","","","","","","","0","0","1","","0.2673490463","0.2","0.8","0.6","0.4","0.1392606081","0.1988930589","0.1506622639","0.2673490463","","","","","","","","","","","","","","76","L","3","","","76","main_expt",""
"","bandit","156","584160","0.0-118.0-0.0","67323717","wem/bandit_party_1","A29TV2MF4893DA","either","1","480","","","","","","","0","0","1","","0.1860897766","0.2","0.8","0.6","0.4","0.099337717","0.2255968657","0.1860897766","0.2858541315","","","","","","","","","","","","","","75","K","2","","","77","main_expt",""
"","bandit","157","585823","0.0-119.0-0.0","67323717","wem/bandit_party_1","A29TV2MF4893DA","either","1","158","","","","","","","0","0","1","","0.1618556875","0.2","0.8","0.6","0.4","0.09666605973","0.1917014014","0.1618556875","0.2639968829","","","","","","","","","","","","","","75","K","2","","","78","main_expt",""
"","bandit","158","587564","0.0-120.0-0.0","67323717","wem/bandit_party_1","A29TV2MF4893DA","either","1","235","","","","","","","0","1","0","","0.2092129429","0.2","0.8","0.6","0.4","0.09639353985","0.2092129429","0.1976853889","0.2304888896","","","","","","","","","","","","","","74","J","1","","","79","main_expt",""
"","bandit","159","589360","0.0-121.0-0.0","67323717","wem/bandit_party_1","A29TV2MF4893DA","either","1","290","","","","","","","0","0","1","0.1974306726","","0.2","0.8","0.6","0.4","","","","","0.09566996791","0.1974306726","0.2198838985","0.1991809665","","","","","","","","","","74","J","1","","","80","main_expt",""
"","bandit","160","591204","0.0-122.0-0.0","67323717","wem/bandit_party_1","A29TV2MF4893DA","either","1","339","","","","","","","0","0","1","","0.07958501382","0.2","0.8","0.6","0.4","0.07958501382","0.1414754506","0.2167005254","0.1627434897","","","","","","","","","","","","","","72","H","0","img/none_selected.jpg","","81","main_expt",""
"","bandit","161","592922","0.0-123.0-0.0","67323717","wem/bandit_party_1","A29TV2MF4893DA","either","1","210","","","","","","","0","0","1","0.1422587364","","0.2","0.8","0.6","0.4","","","","","0.08833774835","0.1422587364","0.2527486409","0.1624637972","","","","","","","","","","74","J","1","","","82","main_expt",""
"","bandit","162","594545","0.0-124.0-0.0","67323717","wem/bandit_party_1","A29TV2MF4893DA","either","1","116","","","","","","","0","0","1","0.1079415531","","0.2","0.8","0.6","0.4","","","","","0.09109006352","0.1079415531","0.2569721607","0.1900332","","","","","","","","","","74","J","1","","","83","main_expt",""
"","bandit","163","597013","0.0-125.0-0.0","67323717","wem/bandit_party_1","A29TV2MF4893DA","either","1","962","","","","","","","1","0","0","0.07696487024","","0.2","0.8","0.6","0.4","","","","","0.05321730921","0.07696487024","0.2535394321","0.1705646391","","","","","","","","","","74","J","1","","","84","main_expt",""
"","bandit","164","598807","0.0-126.0-0.0","67323717","wem/bandit_party_1","A29TV2MF4893DA","either","1","288","","","","","","","0","0","1","0.08313016423","","0.2","0.8","0.6","0.4","","","","","0.03321009489","0.08313016423","0.2255799186","0.2053302659","","","","","","","","","","74","J","1","","","85","main_expt",""
"","bandit","165","600567","0.0-127.0-0.0","67323717","wem/bandit_party_1","A29TV2MF4893DA","either","1","254","","","","","","","0","0","1","0.102083396","","0.2","0.8","0.6","0.4","","","","","0.04864990798","0.102083396","0.2197080914","0.2128685413","","","","","","","","","","74","J","1","","","86","main_expt",""
"","bandit","166","602354","0.0-128.0-0.0","67323717","wem/bandit_party_1","A29TV2MF4893DA","either","1","280","","","","","","","0","0","1","","0.07919268752","0.2","0.8","0.6","0.4","0.07919268752","0.09067070718","0.2230338057","0.213778815","","","","","","","","","","","","","","72","H","0","img/none_selected.jpg","","87","main_expt",""
"","bandit","167","604131","0.0-129.0-0.0","67323717","wem/bandit_party_1","A29TV2MF4893DA","either","1","271","","","","","","","0","0","1","","0.05835116993","0.2","0.8","0.6","0.4","0.05835116993","0.1421970704","0.2484269739","0.2102340809","","","","","","","","","","","","","","72","H","0","img/none_selected.jpg","","88","main_expt",""
"","bandit","168","605953","0.0-130.0-0.0","67323717","wem/bandit_party_1","A29TV2MF4893DA","either","1","316","","","","","","","0","0","1","0.2733562597","","0.2","0.8","0.6","0.4","","","","","0.05115519592","0.219142046","0.2733562597","0.1809358483","","","","","","","","","","75","K","2","","","89","main_expt",""
"","bandit","169","607499","0.0-131.0-0.0","67323717","wem/bandit_party_1","A29TV2MF4893DA","either","1","40","","","","","","","0","0","1","","0.1293356972","0.2","0.8","0.6","0.4","0.07819273649","0.2806923657","0.2973868449","0.1293356972","","","","","","","","","","","","","","76","L","3","","","90","main_expt",""
"","bandit","170","609153","0.0-132.0-0.0","67323717","wem/bandit_party_1","A29TV2MF4893DA","either","1","147","","","","","","","0","0","1","","0.1136224352","0.2","0.8","0.6","0.4","0.05564661524","0.2819660137","0.3067689268","0.1136224352","","","","","","","","","","","","","","76","L","3","","","91","main_expt",""
"","bandit","171","610831","0.0-133.0-0.0","67323717","wem/bandit_party_1","A29TV2MF4893DA","either","1","173","","","","","","","0","0","1","","0.07539152519","0.2","0.8","0.6","0.4","0.05914103421","0.3370305887","0.2719776188","0.07539152519","","","","","","","","","","","","","","76","L","3","","","92","main_expt",""
"","bandit","172","612345","0.0-134.0-0.0","67323717","wem/bandit_party_1","A29TV2MF4893DA","either","1","8","","","","","","","0","0","1","0.08243558305","","0.2","0.8","0.6","0.4","","","","","0.03944324463","0.3722719914","0.3081791896","0.08243558305","","","","","","","","","","76","L","3","","","93","main_expt",""
"","bandit","173","613983","0.0-135.0-0.0","67323717","wem/bandit_party_1","A29TV2MF4893DA","either","1","131","","","","","","","0","0","1","","0.09807673793","0.2","0.8","0.6","0.4","0.05023017475","0.3840030774","0.356667856","0.09807673793","","","","","","","","","","","","","","76","L","3","","","94","main_expt",""
"","bandit","174","615650","0.0-136.0-0.0","67323717","wem/bandit_party_1","A29TV2MF4893DA","either","1","161","","","","","","","0","0","1","","0.09746204728","0.2","0.8","0.6","0.4","0.07311956304","0.4050844552","0.3300765204","0.09746204728","","","","","","","","","","","","","","76","L","3","","","95","main_expt",""
"","bandit","175","617236","0.0-137.0-0.0","67323717","wem/bandit_party_1","A29TV2MF4893DA","either","1","80","","","","","","","1","0","0","0.3642735905","","0.2","0.8","0.6","0.4","","","","","0.09573717159","0.4081076376","0.3642735905","0.08559835745","","","","","","","","","","75","K","2","","","96","main_expt",""
"","bandit","176","619007","0.0-138.0-0.0","67323717","wem/bandit_party_1","A29TV2MF4893DA","either","1","265","","","","","","","0","1","0","","0.3885664579","0.2","0.8","0.6","0.4","0.1235519285","0.4142780263","0.3885664579","0.0732645996","","","","","","","","","","","","","","75","K","2","","","97","main_expt",""
"","bandit","177","620792","0.0-139.0-0.0","67323717","wem/bandit_party_1","A29TV2MF4893DA","either","1","278","","","","","","","0","0","1","0.4162912028","","0.2","0.8","0.6","0.4","","","","","0.1274282425","0.4131193208","0.4162912028","0.05343209845","","","","","","","","","","75","K","2","","","98","main_expt",""
"","bandit","178","622339","0.0-140.0-0.0","67323717","wem/bandit_party_1","A29TV2MF4893DA","either","1","44","","","","","","","0","0","1","","0.4074153657","0.2","0.8","0.6","0.4","0.1457321849","0.428944851","0.4074153657","0.05144299931","","","","","","","","","","","","","","75","K","2","","","99","main_expt",""
"","bandit","179","623963","0.0-141.0-0.0","67323717","wem/bandit_party_1","A29TV2MF4893DA","either","1","119","","","","","","","0","0","1","0.3349137267","","0.2","0.8","0.6","0.4","","","","","0.1492128348","0.4279797645","0.3349137267","0.03934302155","","","","","","","","","","75","K","2","","","100","main_expt",""
"","bandit","180","626103","0.0-142.0-0.0","67323717","wem/bandit_party_1","A29TV2MF4893DA","either","1","635","","","","","","","1","0","0","0.4189249443","","0.2","0.8","0.6","0.4","","","","","0.125019219","0.4189249443","0.2732947861","0.05783306622","","","","","","","","","","74","J","1","","","101","main_expt",""
"","bandit","181","627691","0.0-143.0-0.0","67323717","wem/bandit_party_1","A29TV2MF4893DA","either","1","82","","","","","","","0","0","1","0.4279241466","","0.2","0.8","0.6","0.4","","","","","0.1008510245","0.4279241466","0.2584454073","0.06484492547","","","","","","","","","","74","J","1","","","102","main_expt",""
"","bandit","182","630747","0.0-144.0-0.0","67323717","wem/bandit_party_1","A29TV2MF4893DA","either","1","1550","","","","","","","0","1","0","","0.1087281004","0.2","0.8","0.6","0.4","0.1087281004","0.419390052","0.2143891894","0.0701259157","","","","","","","","","","","","","","72","H","0","img/none_selected.jpg","","103","main_expt",""
"","bandit","183","632472","0.0-145.0-0.0","67323717","wem/bandit_party_1","A29TV2MF4893DA","either","1","217","","","","","","","0","0","1","","0.143855427","0.2","0.8","0.6","0.4","0.143855427","0.3761202226","0.1354346047","0.06922647753","","","","","","","","","","","","","","72","H","0","img/none_selected.jpg","","104","main_expt",""
"","bandit","184","634256","0.0-146.0-0.0","67323717","wem/bandit_party_1","A29TV2MF4893DA","either","1","277","","","","","","","0","0","1","","0.1606853024","0.2","0.8","0.6","0.4","0.1606853024","0.4229881466","0.1615963473","0.07802312096","","","","","","","","","","","","","","72","H","0","img/none_selected.jpg","","105","main_expt",""
"","bandit","185","636841","0.0-147.0-0.0","67323717","wem/bandit_party_1","A29TV2MF4893DA","either","1","1080","","","","","","","0","0","1","0.4110558218","","0.2","0.8","0.6","0.4","","","","","0.1612939645","0.4110558218","0.1738621023","0.08930313369","","","","","","","","","","74","J","1","","","106","main_expt",""
"","bandit","186","638675","0.0-148.0-0.0","67323717","wem/bandit_party_1","A29TV2MF4893DA","either","1","328","","","","","","","0","0","1","","0.1397733654","0.2","0.8","0.6","0.4","0.1778053335","0.4176599015","0.1799671425","0.1397733654","","","","","","","","","","","","","","76","L","3","","","107","main_expt",""
"","bandit","187","641538","0.0-149.0-0.0","67323717","wem/bandit_party_1","A29TV2MF4893DA","either","1","1358","","","","","","","0","1","0","","0.1505899732","0.2","0.8","0.6","0.4","0.1826465361","0.4210396584","0.1844274074","0.1505899732","","","","","","","","","","","","","","76","L","3","","","108","main_expt",""
"","bandit","188","643399","0.0-150.0-0.0","67323717","wem/bandit_party_1","A29TV2MF4893DA","either","1","353","","","","","","","0","0","1","0.1162436109","","0.2","0.8","0.6","0.4","","","","","0.1737022726","0.4328015469","0.1702708828","0.1162436109","","","","","","","","","","76","L","3","","","109","main_expt",""
"","bandit","189","645133","0.0-151.0-0.0","67323717","wem/bandit_party_1","A29TV2MF4893DA","either","1","227","","","","","","","0","0","1","","0.08267976014","0.2","0.8","0.6","0.4","0.1658344406","0.4495585744","0.1964407335","0.08267976014","","","","","","","","","","","","","","76","L","3","","","110","main_expt",""
"","bandit","190","646877","0.0-152.0-0.0","67323717","wem/bandit_party_1","A29TV2MF4893DA","either","1","238","","","","","","","0","0","1","0.09389793805","","0.2","0.8","0.6","0.4","","","","","0.240619448","0.4237631325","0.1777579569","0.09389793805","","","","","","","","","","76","L","3","","","111","main_expt",""
"","bandit","191","648435","0.0-153.0-0.0","67323717","wem/bandit_party_1","A29TV2MF4893DA","either","1","51","","","","","","","0","1","0","","0.1395994444","0.2","0.8","0.6","0.4","0.1927397719","0.4521571561","0.1395994444","0.07903418564","","","","","","","","","","","","","","75","K","2","","","112","main_expt",""
"","bandit","192","650237","0.0-154.0-0.0","67323717","wem/bandit_party_1","A29TV2MF4893DA","either","1","296","","","","","","","0","0","1","","0.1205999431","0.2","0.8","0.6","0.4","0.234725565","0.4350762846","0.1205999431","0.05501139052","","","","","","","","","","","","","","75","K","2","","","113","main_expt",""
"","bandit","193","651983","0.0-155.0-0.0","67323717","wem/bandit_party_1","A29TV2MF4893DA","either","1","241","","","","","","","0","0","1","","0.09123355482","0.2","0.8","0.6","0.4","0.1950215869","0.4315824664","0.09123355482","0.07627702456","","","","","","","","","","","","","","75","K","2","","","114","main_expt",""
"","bandit","194","653541","0.0-156.0-0.0","67323717","wem/bandit_party_1","A29TV2MF4893DA","either","1","53","","","","","","","0","0","1","0.09554471192","","0.2","0.8","0.6","0.4","","","","","0.2575833325","0.4127349624","0.09554471192","0.03985247356","","","","","","","","","","75","K","2","","","115","main_expt",""
"","bandit","195","656686","0.0-157.0-0.0","67323717","wem/bandit_party_1","A29TV2MF4893DA","either","1","1640","","","","","","","0","0","1","0.2296468005","","0.2","0.8","0.6","0.4","","","","","0.2296468005","0.4468356006","0.1942182492","0.0683792979","","","","","","","","","","72","H","0","img/none_selected.jpg","","116","main_expt",""
"","bandit","196","658569","0.0-158.0-0.0","67323717","wem/bandit_party_1","A29TV2MF4893DA","either","1","376","","","","","","","1","0","0","0.2816483341","","0.2","0.8","0.6","0.4","","","","","0.2816483341","0.4458703805","0.2208250117","0.03956212276","","","","","","","","","","72","H","0","img/none_selected.jpg","","117","main_expt",""
"","bandit","197","660318","0.0-159.0-0.0","67323717","wem/bandit_party_1","A29TV2MF4893DA","either","1","244","","","","","","","1","0","0","0.2626769985","","0.2","0.8","0.6","0.4","","","","","0.2626769985","0.4500370674","0.1687975443","0.04459229253","","","","","","","","","","72","H","0","img/none_selected.jpg","","118","main_expt",""
"","bandit","198","662100","0.0-160.0-0.0","67323717","wem/bandit_party_1","A29TV2MF4893DA","either","1","276","","","","","","","0","0","1","0.2418090277","","0.2","0.8","0.6","0.4","","","","","0.2418090277","0.4704359259","0.1546105485","0.03386957434","","","","","","","","","","72","H","0","img/none_selected.jpg","","119","main_expt",""
"","bandit","199","663756","0.0-161.0-0.0","67323717","wem/bandit_party_1","A29TV2MF4893DA","either","1","150","","","","","","","0","0","1","","0.2603236095","0.2","0.8","0.6","0.4","0.2603236095","0.4578798539","0.143668411","0.03305427522","","","","","","","","","","","","","","72","H","0","img/none_selected.jpg","","120","main_expt",""
"","bandit","200","665412","0.0-162.0-0.0","67323717","wem/bandit_party_1","A29TV2MF4893DA","either","1","150","","","","","","","1","0","0","0.4591190262","","0.2","0.8","0.6","0.4","","","","","0.2381785671","0.4591190262","0.1098317425","0.03146098963","","","","","","","","","","74","J","1","","","121","main_expt",""
"","bandit","201","667392","0.0-163.0-0.0","67323717","wem/bandit_party_1","A29TV2MF4893DA","either","1","473","","","","","","","0","0","1","0.4643737298","","0.2","0.8","0.6","0.4","","","","","0.2388462554","0.4643737298","0.1097832873","0.02311797033","","","","","","","","","","74","J","1","","","122","main_expt",""
"","bandit","202","669303","0.0-164.0-0.0","67323717","wem/bandit_party_1","A29TV2MF4893DA","either","1","405","","","","","","","1","0","0","0.451586091","","0.2","0.8","0.6","0.4","","","","","0.2079929623","0.451586091","0.1145900252","0.0171261738","","","","","","","","","","74","J","1","","","123","main_expt",""
"","bandit","203","671106","0.0-165.0-0.0","67323717","wem/bandit_party_1","A29TV2MF4893DA","either","1","299","","","","","","","1","0","0","0.4456906556","","0.2","0.8","0.6","0.4","","","","","0.2148400852","0.4456906556","0.1137783892","0.03468299263","","","","","","","","","","74","J","1","","","124","main_expt",""
"","bandit","204","672916","0.0-166.0-0.0","67323717","wem/bandit_party_1","A29TV2MF4893DA","either","1","303","","","","","","","0","0","1","","0.4240876494","0.2","0.8","0.6","0.4","0.2185056602","0.4240876494","0.145605256","0.02544516396","","","","","","","","","","","","","","74","J","1","","","125","main_expt",""
"","bandit","205","674672","0.0-167.0-0.0","67323717","wem/bandit_party_1","A29TV2MF4893DA","either","1","252","","","","","","","0","1","0","","0.4008501573","0.2","0.8","0.6","0.4","0.2152323899","0.4008501573","0.1443839055","0.03059506073","","","","","","","","","","","","","","74","J","1","","","126","main_expt",""
"","bandit","206","676521","0.0-168.0-0.0","67323717","wem/bandit_party_1","A29TV2MF4893DA","either","1","343","","","","","","","1","0","0","0.4066073101","","0.2","0.8","0.6","0.4","","","","","0.1699446714","0.4066073101","0.1434222382","0.0339638967","","","","","","","","","","74","J","1","","","127","main_expt",""
"","bandit","207","678385","0.0-169.0-0.0","67323717","wem/bandit_party_1","A29TV2MF4893DA","either","1","357","","","","","","","0","0","1","","0.4270302575","0.2","0.8","0.6","0.4","0.1299446217","0.4270302575","0.1412168693","0.02632978063","","","","","","","","","","","","","","74","J","1","","","128","main_expt",""
"","bandit","208","680220","0.0-170.0-0.0","67323717","wem/bandit_party_1","A29TV2MF4893DA","either","1","329","","","","","","","0","0","1","0.4401824822","","0.2","0.8","0.6","0.4","","","","","0.1299487573","0.4401824822","0.1086871361","0.02640977482","","","","","","","","","","74","J","1","","","129","main_expt",""
"","bandit","209","682429","0.0-171.0-0.0","67323717","wem/bandit_party_1","A29TV2MF4893DA","either","1","703","","","","","","","0","0","1","","0.03646961518","0.2","0.8","0.6","0.4","0.1172580566","0.4160959849","0.1672766288","0.03646961518","","","","","","","","","","","","","","76","L","3","","","130","main_expt",""
"","bandit","210","684165","0.0-172.0-0.0","67323717","wem/bandit_party_1","A29TV2MF4893DA","either","1","229","","","","","","","0","0","1","0.02171712127","","0.2","0.8","0.6","0.4","","","","","0.1289979545","0.4374535298","0.157110596","0.02171712127","","","","","","","","","","76","L","3","","","131","main_expt",""
"","bandit","211","685918","0.0-173.0-0.0","67323717","wem/bandit_party_1","A29TV2MF4893DA","either","1","246","","","","","","","0","0","1","0.01004766493","","0.2","0.8","0.6","0.4","","","","","0.1243754988","0.4382483821","0.1338697581","0.01004766493","","","","","","","","","","76","L","3","","","132","main_expt",""
"","bandit","212","687998","0.0-174.0-0.0","67323717","wem/bandit_party_1","A29TV2MF4893DA","either","1","575","","","","","","","1","0","0","0.1101669797","","0.2","0.8","0.6","0.4","","","","","0.1189203389","0.3913946914","0.1101669797","0.005153708139","","","","","","","","","","75","K","2","","","133","main_expt",""
"","bandit","213","689814","0.0-175.0-0.0","67323717","wem/bandit_party_1","A29TV2MF4893DA","either","1","310","","","","","","","0","0","1","0.060775537","","0.2","0.8","0.6","0.4","","","","","0.07075860378","0.4280120537","0.060775537","0.01308543257","","","","","","","","","","75","K","2","","","134","main_expt",""
"","bandit","214","691607","0.0-176.0-0.0","67323717","wem/bandit_party_1","A29TV2MF4893DA","either","1","287","","","","","","","0","0","1","0.0714416082","","0.2","0.8","0.6","0.4","","","","","0.1073185777","0.4385213509","0.0714416082","0.02634180281","","","","","","","","","","75","K","2","","","135","main_expt",""
"","bandit","215","693387","0.0-177.0-0.0","67323717","wem/bandit_party_1","A29TV2MF4893DA","either","1","273","","","","","","","0","0","1","0.1115096907","","0.2","0.8","0.6","0.4","","","","","0.1001442491","0.4605212521","0.1115096907","0.04122629063","","","","","","","","","","75","K","2","","","136","main_expt",""
"","bandit","216","695021","0.0-178.0-0.0","67323717","wem/bandit_party_1","A29TV2MF4893DA","either","1","128","","","","","","","0","1","0","","0.1736681681","0.2","0.8","0.6","0.4","0.1736681681","0.4729500637","0.1307091067","0.05517648788","","","","","","","","","","","","","","72","H","0","img/none_selected.jpg","","137","main_expt",""
"","bandit","217","696857","0.0-179.0-0.0","67323717","wem/bandit_party_1","A29TV2MF4893DA","either","1","329","","","","","","","0","0","1","","0.1839908368","0.2","0.8","0.6","0.4","0.1839908368","0.4705425907","0.1289533412","0.05929415862","","","","","","","","","","","","","","72","H","0","img/none_selected.jpg","","138","main_expt",""
"","bandit","218","698597","0.0-180.0-0.0","67323717","wem/bandit_party_1","A29TV2MF4893DA","either","1","234","","","","","","","0","0","1","","0.1500833973","0.2","0.8","0.6","0.4","0.1500833973","0.465423541","0.1215972271","0.05470710098","","","","","","","","","","","","","","72","H","0","img/none_selected.jpg","","139","main_expt",""
"","bandit","219","700202","0.0-181.0-0.0","67323717","wem/bandit_party_1","A29TV2MF4893DA","either","1","97","","","","","","","0","0","1","","0.1718879457","0.2","0.8","0.6","0.4","0.1718879457","0.4486857012","0.1158179575","0.06062538604","","","","","","","","","","","","","","72","H","0","img/none_selected.jpg","","140","main_expt",""
"","bandit","220","701972","0.0-182.0-0.0","67323717","wem/bandit_party_1","A29TV2MF4893DA","either","1","262","","","","","","","0","0","1","0.4053061298","","0.2","0.8","0.6","0.4","","","","","0.2025036279","0.4053061298","0.08691297649","0.05819772386","","","","","","","","","","74","J","1","","","141","main_expt",""
"","bandit","221","703730","0.0-183.0-0.0","67323717","wem/bandit_party_1","A29TV2MF4893DA","either","1","252","","","","","","","1","0","0","0.3989731656","","0.2","0.8","0.6","0.4","","","","","0.1872564568","0.3989731656","0.1425267255","0.05329701838","","","","","","","","","","74","J","1","","","142","main_expt",""
"","bandit","222","705679","0.0-184.0-0.0","67323717","wem/bandit_party_1","A29TV2MF4893DA","either","1","443","","","","","","","1","0","0","0.3783570596","","0.2","0.8","0.6","0.4","","","","","0.1676641842","0.3783570596","0.1425141192","0.06209903385","","","","","","","","","","74","J","1","","","143","main_expt",""
"","bandit","223","707555","0.0-185.0-0.0","67323717","wem/bandit_party_1","A29TV2MF4893DA","either","1","370","","","","","","","1","0","0","0.3485663762","","0.2","0.8","0.6","0.4","","","","","0.1502987652","0.3485663762","0.1362652721","0.06954729647","","","","","","","","","","74","J","1","","","144","main_expt",""
"","bandit","224","709415","0.0-186.0-0.0","67323717","wem/bandit_party_1","A29TV2MF4893DA","either","1","354","","","","","","","0","0","1","0.3534190037","","0.2","0.8","0.6","0.4","","","","","0.1050568962","0.3534190037","0.1335650053","0.062760129","","","","","","","","","","74","J","1","","","145","main_expt",""
"","bandit","225","711015","0.0-187.0-0.0","67323717","wem/bandit_party_1","A29TV2MF4893DA","either","1","93","","","","","","","0","0","1","0.1392461982","","0.2","0.8","0.6","0.4","","","","","0.1266784727","0.342282706","0.1392461982","0.05014677947","","","","","","","","","","75","K","2","","","146","main_expt",""
"","bandit","226","712533","0.0-188.0-0.0","67323717","wem/bandit_party_1","A29TV2MF4893DA","either","1","12","","","","","","","1","0","0","0.1060810453","","0.2","0.8","0.6","0.4","","","","","0.1121887101","0.3497384939","0.1060810453","0.04801868921","","","","","","","","","","75","K","2","","","147","main_expt",""
"","bandit","227","714325","0.0-189.0-0.0","67323717","wem/bandit_party_1","A29TV2MF4893DA","either","1","286","","","","","","","1","0","0","0.1076054289","","0.2","0.8","0.6","0.4","","","","","0.1050077765","0.3507348305","0.1076054289","0.05298179562","","","","","","","","","","75","K","2","","","148","main_expt",""
"","bandit","228","716102","0.0-190.0-0.0","67323717","wem/bandit_party_1","A29TV2MF4893DA","either","1","270","","","","","","","1","0","0","0.09143227578","","0.2","0.8","0.6","0.4","","","","","0.08725679698","0.306786392","0.09143227578","0.05271587927","","","","","","","","","","75","K","2","","","149","main_expt",""
"","bandit","229","717916","0.0-191.0-0.0","67323717","wem/bandit_party_1","A29TV2MF4893DA","either","1","305","","","","","","","0","0","1","","0.08361181256","0.2","0.8","0.6","0.4","0.04813781364","0.3289077467","0.08361181256","0.06153260368","","","","","","","","","","","","","","75","K","2","","","150","main_expt",""
"","bandit","230","719725","0.0-192.0-0.0","67323717","wem/bandit_party_1","A29TV2MF4893DA","either","1","303","","","","","","","0","0","1","0.07716317934","","0.2","0.8","0.6","0.4","","","","","0.04690393958","0.2844912386","0.1038450747","0.07716317934","","","","","","","","","","76","L","3","","","151","main_expt",""
"","bandit","231","721816","0.0-193.0-0.0","67323717","wem/bandit_party_1","A29TV2MF4893DA","either","1","585","","","","","","","0","0","1","","0.08370894892","0.2","0.8","0.6","0.4","0.05051779207","0.3221551402","0.1311897928","0.08370894892","","","","","","","","","","","","","","76","L","3","","","152","main_expt",""
"","bandit","232","723629","0.0-194.0-0.0","67323717","wem/bandit_party_1","A29TV2MF4893DA","either","1","306","","","","","","","0","0","1","","0.06235129306","0.2","0.8","0.6","0.4","0.0417019452","0.288581716","0.1106636196","0.06235129306","","","","","","","","","","","","","","76","L","3","","","153","main_expt",""
"","bandit","233","725765","0.0-195.0-0.0","67323717","wem/bandit_party_1","A29TV2MF4893DA","either","1","629","","","","","","","0","0","1","","0.04565059468","0.2","0.8","0.6","0.4","0.04565059468","0.3674714493","0.08044616817","0.08808261531","","","","","","","","","","","","","","72","H","0","img/none_selected.jpg","","154","main_expt",""
"","bandit","234","727519","0.0-196.0-0.0","67323717","wem/bandit_party_1","A29TV2MF4893DA","either","1","248","","","","","","","0","0","1","","0.0249337719","0.2","0.8","0.6","0.4","0.0249337719","0.3836765626","0.09849608375","0.08415746701","","","","","","","","","","","","","","72","H","0","img/none_selected.jpg","","155","main_expt",""
"","bandit","235","729538","0.0-197.0-0.0","67323717","wem/bandit_party_1","A29TV2MF4893DA","either","1","512","","","","","","","1","0","0","0.3499766022","","0.2","0.8","0.6","0.4","","","","","0.0207568711","0.3499766022","0.0679626842","0.1363215429","","","","","","","","","","74","J","1","","","156","main_expt",""
"","bandit","236","731383","0.0-198.0-0.0","67323717","wem/bandit_party_1","A29TV2MF4893DA","either","1","338","","","","","","","1","0","0","0.3083455354","","0.2","0.8","0.6","0.4","","","","","0.01044871803","0.3083455354","0.06316877849","0.176329139","","","","","","","","","","74","J","1","","","157","main_expt",""
"","bandit","237","733219","0.0-199.0-0.0","67323717","wem/bandit_party_1","A29TV2MF4893DA","either","1","331","","","","","","","1","0","0","0.2780985587","","0.2","0.8","0.6","0.4","","","","","0.008486032171","0.2780985587","0.06381796224","0.2239815039","","","","","","","","","","74","J","1","","","158","main_expt",""
"","bandit","238","735047","0.0-200.0-0.0","67323717","wem/bandit_party_1","A29TV2MF4893DA","either","1","321","","","","","","","0","1","0","","0.2721424699","0.2","0.8","0.6","0.4","0.006770001311","0.2721424699","0.09986374221","0.1754735631","","","","","","","","","","","","","","74","J","1","","","159","main_expt",""
"","bandit","239","736893","0.0-201.0-0.0","67323717","wem/bandit_party_1","A29TV2MF4893DA","either","1","339","","","","","","","0","0","1","","0.3005636977","0.2","0.8","0.6","0.4","0.005009972043","0.3005636977","0.08334790929","0.1820859676","","","","","","","","","","","","","","74","J","1","","","160","main_expt",""
"","bandit","240","738743","0.0-202.0-0.0","67323717","wem/bandit_party_1","A29TV2MF4893DA","either","1","342","","","","","","","0","0","1","0.1094566723","","0.2","0.8","0.6","0.4","","","","","0.003825417776","0.2481613967","0.1094566723","0.1771527669","","","","","","","","","","75","K","2","","","161","main_expt",""
"","bandit","241","740590","0.0-203.0-0.0","67323717","wem/bandit_party_1","A29TV2MF4893DA","either","1","340","","","","","","","0","0","1","0.1287108975","","0.2","0.8","0.6","0.4","","","","","0.006458278423","0.2040880477","0.1287108975","0.209245514","","","","","","","","","","75","K","2","","","162","main_expt",""
"","bandit","242","742416","0.0-204.0-0.0","67323717","wem/bandit_party_1","A29TV2MF4893DA","either","1","319","","","","","","","0","0","1","0.256608811","","0.2","0.8","0.6","0.4","","","","","0.01344146107","0.256608811","0.1811808859","0.1864252411","","","","","","","","","","74","J","1","","","163","main_expt",""
"","bandit","243","744097","0.0-205.0-0.0","67323717","wem/bandit_party_1","A29TV2MF4893DA","either","1","173","","","","","","","0","1","0","","0.2798468236","0.2","0.8","0.6","0.4","0.004940614731","0.2798468236","0.1374611454","0.1662237337","","","","","","","","","","","","","","74","J","1","","","164","main_expt",""
"","bandit","244","747024","0.0-206.0-0.0","67323717","wem/bandit_party_1","A29TV2MF4893DA","either","1","1419","","","","","","","0","0","1","0.2689568899","","0.2","0.8","0.6","0.4","","","","","0.007349038951","0.2689568899","0.1640313333","0.1375661656","","","","","","","","","","74","J","1","","","165","main_expt",""
"","bandit","245","748962","0.0-207.0-0.0","67323717","wem/bandit_party_1","A29TV2MF4893DA","either","1","430","","","","","","","1","0","0","0.2786045926","","0.2","0.8","0.6","0.4","","","","","0.005679103294","0.2786045926","0.20052236","0.1416727521","","","","","","","","","","74","J","1","","","166","main_expt",""
"","bandit","246","750828","0.0-208.0-0.0","67323717","wem/bandit_party_1","A29TV2MF4893DA","either","1","358","","","","","","","0","0","1","0.2507583434","","0.2","0.8","0.6","0.4","","","","","0.004037182679","0.2507583434","0.1945206589","0.1497541138","","","","","","","","","","74","J","1","","","167","main_expt",""
"","bandit","247","752749","0.0-209.0-0.0","67323717","wem/bandit_party_1","A29TV2MF4893DA","either","1","413","","","","","","","0","0","1","0.1827624484","","0.2","0.8","0.6","0.4","","","","","0.007111326723","0.1827624484","0.1902154162","0.1761460581","","","","","","","","","","74","J","1","","","168","main_expt",""
"","bandit","248","754609","0.0-210.0-0.0","67323717","wem/bandit_party_1","A29TV2MF4893DA","either","1","350","","","","","","","0","0","1","0.1558723634","","0.2","0.8","0.6","0.4","","","","","0.01708305062","0.1558723634","0.1931964682","0.2248215173","","","","","","","","","","74","J","1","","","169","main_expt",""
"","bandit","249","756561","0.0-211.0-0.0","67323717","wem/bandit_party_1","A29TV2MF4893DA","either","1","446","","","","","","","0","0","1","","0.02105388628","0.2","0.8","0.6","0.4","0.02105388628","0.1757164868","0.236179436","0.2503105048","","","","","","","","","","","","","","72","H","0","img/none_selected.jpg","","170","main_expt",""
"","bandit","250","758660","0.0-212.0-0.0","67323717","wem/bandit_party_1","A29TV2MF4893DA","either","1","591","","","","","","","0","0","1","0.01477187034","","0.2","0.8","0.6","0.4","","","","","0.01477187034","0.1985597056","0.2229285478","0.2515708499","","","","","","","","","","72","H","0","img/none_selected.jpg","","171","main_expt",""
"","bandit","251","760604","0.0-213.0-0.0","67323717","wem/bandit_party_1","A29TV2MF4893DA","either","1","438","","","","","","","0","0","1","","0.00639283578","0.2","0.8","0.6","0.4","0.00639283578","0.1725269859","0.1805811295","0.2601117771","","","","","","","","","","","","","","72","H","0","img/none_selected.jpg","","172","main_expt",""
"","bandit","252","762450","0.0-214.0-0.0","67323717","wem/bandit_party_1","A29TV2MF4893DA","either","1","340","","","","","","","0","0","1","","0.2203049146","0.2","0.8","0.6","0.4","0.008503536177","0.1955807132","0.2203049146","0.2277859889","","","","","","","","","","","","","","75","K","2","","","173","main_expt",""
"","bandit","253","764285","0.0-215.0-0.0","67323717","wem/bandit_party_1","A29TV2MF4893DA","either","1","328","","","","","","","0","0","1","0.2079245196","","0.2","0.8","0.6","0.4","","","","","0.01512836446","0.1712969398","0.2079245196","0.204090619","","","","","","","","","","75","K","2","","","174","main_expt",""
"","bandit","254","766042","0.0-216.0-0.0","67323717","wem/bandit_party_1","A29TV2MF4893DA","either","1","250","","","","","","","0","0","1","0.2264282848","","0.2","0.8","0.6","0.4","","","","","0.034550241","0.2145566876","0.1904909119","0.2264282848","","","","","","","","","","76","L","3","","","175","main_expt",""
"","bandit","255","767923","0.0-217.0-0.0","67323717","wem/bandit_party_1","A29TV2MF4893DA","either","1","374","","","","","","","0","0","1","0.2263436383","","0.2","0.8","0.6","0.4","","","","","0.01969997198","0.1987050603","0.1611975006","0.2263436383","","","","","","","","","","76","L","3","","","176","main_expt",""
"","bandit","256","769699","0.0-218.0-0.0","67323717","wem/bandit_party_1","A29TV2MF4893DA","either","1","268","","","","","","","0","1","0","","0.2449632337","0.2","0.8","0.6","0.4","0.02558747067","0.2161967517","0.1747210449","0.2449632337","","","","","","","","","","","","","","76","L","3","","","177","main_expt",""
"","bandit","257","771562","0.0-219.0-0.0","67323717","wem/bandit_party_1","A29TV2MF4893DA","either","1","355","","","","","","","0","0","1","","0.1923885174","0.2","0.8","0.6","0.4","0.02865462312","0.1790488899","0.1667690144","0.1923885174","","","","","","","","","","","","","","76","L","3","","","178","main_expt",""
"","bandit","258","773414","0.0-220.0-0.0","67323717","wem/bandit_party_1","A29TV2MF4893DA","either","1","346","","","","","","","0","0","1","","0.1791230597","0.2","0.8","0.6","0.4","0.05873937836","0.1254539317","0.248539666","0.1791230597","","","","","","","","","","","","","","76","L","3","","","179","main_expt",""
"","bandit","259","775251","0.0-221.0-0.0","67323717","wem/bandit_party_1","A29TV2MF4893DA","either","1","329","","","","","","","0","1","0","","0.1641305094","0.2","0.8","0.6","0.4","0.04996702027","0.1761702366","0.2393284063","0.1641305094","","","","","","","","","","","","","","76","L","3","","","180","main_expt",""
"","bandit","260","777097","0.0-222.0-0.0","67323717","wem/bandit_party_1","A29TV2MF4893DA","either","1","339","","","","","","","1","0","0","0.1567194189","","0.2","0.8","0.6","0.4","","","","","0.06192223509","0.2307221343","0.2450765022","0.1567194189","","","","","","","","","","76","L","3","","","181","main_expt",""
"","bandit","261","778971","0.0-223.0-0.0","67323717","wem/bandit_party_1","A29TV2MF4893DA","either","1","367","","","","","","","0","1","0","","0.1805899487","0.2","0.8","0.6","0.4","0.07865608963","0.1656926355","0.2898963007","0.1805899487","","","","","","","","","","","","","","76","L","3","","","182","main_expt",""
"","bandit","262","780783","0.0-224.0-0.0","67323717","wem/bandit_party_1","A29TV2MF4893DA","either","1","305","","","","","","","0","0","1","0.1381226487","","0.2","0.8","0.6","0.4","","","","","0.0695036973","0.1997223474","0.337419987","0.1381226487","","","","","","","","","","76","L","3","","","183","main_expt",""
"","bandit","263","782632","0.0-225.0-0.0","67323717","wem/bandit_party_1","A29TV2MF4893DA","either","1","342","","","","","","","0","0","1","","0.1157029232","0.2","0.8","0.6","0.4","0.09883674892","0.1936006223","0.3334404967","0.1157029232","","","","","","","","","","","","","","76","L","3","","","184","main_expt",""
"","bandit","264","784430","0.0-226.0-0.0","67323717","wem/bandit_party_1","A29TV2MF4893DA","either","1","290","","","","","","","1","0","0","0.09007466759","","0.2","0.8","0.6","0.4","","","","","0.1344132801","0.1794548994","0.3049781316","0.09007466759","","","","","","","","","","76","L","3","","","185","main_expt",""
"","bandit","265","787151","0.0-227.0-0.0","67323717","wem/bandit_party_1","A29TV2MF4893DA","either","1","1212","","","","","","","0","0","1","0.07784091677","","0.2","0.8","0.6","0.4","","","","","0.1194183803","0.1679588243","0.322039184","0.07784091677","","","","","","","","","","76","L","3","","","186","main_expt",""
"","bandit","266","788977","0.0-228.0-0.0","67323717","wem/bandit_party_1","A29TV2MF4893DA","either","1","317","","","","","","","0","0","1","","0.1332261693","0.2","0.8","0.6","0.4","0.1456002269","0.1692259204","0.2898485093","0.1332261693","","","","","","","","","","","","","","76","L","3","","","187","main_expt",""
"","bandit","267","790716","0.0-229.0-0.0","67323717","wem/bandit_party_1","A29TV2MF4893DA","either","1","232","","","","","","","0","0","1","0.1302169342","","0.2","0.8","0.6","0.4","","","","","0.1008589119","0.1796926114","0.3046836684","0.1302169342","","","","","","","","","","76","L","3","","","188","main_expt",""
"","bandit","268","793350","0.0-230.0-0.0","67323717","wem/bandit_party_1","A29TV2MF4893DA","either","1","1126","","","","","","","0","0","1","","0.09109327247","0.2","0.8","0.6","0.4","0.09109327247","0.1463090895","0.3437642557","0.1459867673","","","","","","","","","","","","","","72","H","0","img/none_selected.jpg","","189","main_expt",""
"","bandit","269","795163","0.0-231.0-0.0","67323717","wem/bandit_party_1","A29TV2MF4893DA","either","1","304","","","","","","","0","0","1","0.1670442817","","0.2","0.8","0.6","0.4","","","","","0.133333279","0.1670442817","0.3685715368","0.1930387326","","","","","","","","","","74","J","1","","","190","main_expt",""
"","bandit","270","796951","0.0-232.0-0.0","67323717","wem/bandit_party_1","A29TV2MF4893DA","either","1","279","","","","","","","0","0","1","0.4063368095","","0.2","0.8","0.6","0.4","","","","","0.1253338948","0.2148667481","0.4063368095","0.1447045196","","","","","","","","","","75","K","2","","","191","main_expt",""
"","bandit","271","798643","0.0-233.0-0.0","67323717","wem/bandit_party_1","A29TV2MF4893DA","either","1","185","","","","","","","0","0","1","","0.1371372983","0.2","0.8","0.6","0.4","0.1371372983","0.1891029698","0.4194789623","0.1521301445","","","","","","","","","","","","","","72","H","0","img/none_selected.jpg","","192","main_expt",""
"","bandit","272","800324","0.0-234.0-0.0","67323717","wem/bandit_party_1","A29TV2MF4893DA","either","1","173","","","","","","","1","0","0","0.1269519223","","0.2","0.8","0.6","0.4","","","","","0.1269519223","0.1818436489","0.3914453041","0.1216552598","","","","","","","","","","72","H","0","img/none_selected.jpg","","193","main_expt",""
"","bandit","273","802298","0.0-235.0-0.0","67323717","wem/bandit_party_1","A29TV2MF4893DA","either","1","467","","","","","","","0","1","0","","0.1253972088","0.2","0.8","0.6","0.4","0.1253972088","0.2036833838","0.3988429791","0.07681554104","","","","","","","","","","","","","","72","H","0","img/none_selected.jpg","","194","main_expt",""
"","bandit","274","804090","0.0-236.0-0.0","67323717","wem/bandit_party_1","A29TV2MF4893DA","either","1","285","","","","","","","0","0","1","","0.1231557279","0.2","0.8","0.6","0.4","0.1231557279","0.2189502041","0.4212514022","0.07468822185","","","","","","","","","","","","","","72","H","0","img/none_selected.jpg","","195","main_expt",""
"","bandit","275","805943","0.0-237.0-0.0","67323717","wem/bandit_party_1","A29TV2MF4893DA","either","1","346","","","","","","","0","0","1","","0.2304226507","0.2","0.8","0.6","0.4","0.2304226507","0.2011136523","0.4128950903","0.07634526252","","","","","","","","","","","","","","72","H","0","img/none_selected.jpg","","196","main_expt",""
"","bandit","276","807742","0.0-238.0-0.0","67323717","wem/bandit_party_1","A29TV2MF4893DA","either","1","293","","","","","","","0","0","1","","0.3102822931","0.2","0.8","0.6","0.4","0.3102822931","0.2295646827","0.3979973083","0.06680697181","","","","","","","","","","","","","","72","H","0","img/none_selected.jpg","","197","main_expt",""
"","bandit","277","809867","0.0-239.0-0.0","67323717","wem/bandit_party_1","A29TV2MF4893DA","either","1","618","","","","","","","0","0","1","0.3153467244","","0.2","0.8","0.6","0.4","","","","","0.3222054514","0.2570874699","0.3153467244","0.05107679344","","","","","","","","","","75","K","2","","","198","main_expt",""
"","bandit","278","811618","0.0-240.0-0.0","67323717","wem/bandit_party_1","A29TV2MF4893DA","either","1","241","","","","","","","0","0","1","0.3121882746","","0.2","0.8","0.6","0.4","","","","","0.3416159467","0.2215013189","0.3121882746","0.06140804873","","","","","","","","","","75","K","2","","","199","main_expt",""
"","bandit","279","813295","0.0-241.0-0.0","67323717","wem/bandit_party_1","A29TV2MF4893DA","either","1","172","","","","","","","0","0","1","0.3789620948","","0.2","0.8","0.6","0.4","","","","","0.3826655938","0.1681318695","0.3789620948","0.05697288244","","","","","","","","","","75","K","2","","","200","main_expt",""
"","bandit","280","815038","0.0-242.0-0.0","67323717","wem/bandit_party_1","A29TV2MF4893DA","either","1","234","","","","","","","0","0","1","0.04802221103","","0.2","0.8","0.6","0.4","","","","","0.4117435103","0.1787039029","0.3575696279","0.04802221103","","","","","","","","","","76","L","3","","","201","main_expt",""
"","bandit","281","816735","0.0-243.0-0.0","67323717","wem/bandit_party_1","A29TV2MF4893DA","either","1","190","","","","","","","0","0","1","0.04583536071","","0.2","0.8","0.6","0.4","","","","","0.4023622846","0.2180442152","0.3937046418","0.04583536071","","","","","","","","","","76","L","3","","","202","main_expt",""
"","bandit","282","819099","0.0-244.0-0.0","67323717","wem/bandit_party_1","A29TV2MF4893DA","either","1","857","","","","","","","0","1","0","","0.262784421","0.2","0.8","0.6","0.4","0.4225273878","0.262784421","0.3901943722","0.03655969434","","","","","","","","","","","","","","74","J","1","","","203","main_expt",""
"","bandit","283","820945","0.0-245.0-0.0","67323717","wem/bandit_party_1","A29TV2MF4893DA","either","1","338","","","","","","","0","0","1","","0.2843732649","0.2","0.8","0.6","0.4","0.4151046429","0.2843732649","0.4099131859","0.05773518339","","","","","","","","","","","","","","74","J","1","","","204","main_expt",""
"","bandit","284","822861","0.0-246.0-0.0","67323717","wem/bandit_party_1","A29TV2MF4893DA","either","1","407","","","","","","","0","0","1","0.2549063301","","0.2","0.8","0.6","0.4","","","","","0.4288165897","0.2549063301","0.4238238901","0.06616346658","","","","","","","","","","74","J","1","","","205","main_expt",""
"","bandit","285","824627","0.0-247.0-0.0","67323717","wem/bandit_party_1","A29TV2MF4893DA","either","1","258","","","","","","","0","0","1","0.2982701688","","0.2","0.8","0.6","0.4","","","","","0.436745712","0.2982701688","0.4139837541","0.09055598832","","","","","","","","","","74","J","1","","","206","main_expt",""
"","bandit","286","826224","0.0-248.0-0.0","67323717","wem/bandit_party_1","A29TV2MF4893DA","either","1","89","","","","","","","0","0","1","0.3423773839","","0.2","0.8","0.6","0.4","","","","","0.4484652972","0.3423773839","0.3544894801","0.07583085731","","","","","","","","","","74","J","1","","","207","main_expt",""
"","bandit","287","828002","0.0-249.0-0.0","67323717","wem/bandit_party_1","A29TV2MF4893DA","either","1","270","","","","","","","0","1","0","","0.4516947584","0.2","0.8","0.6","0.4","0.4516947584","0.3321535101","0.3703609936","0.09768014643","","","","","","","","","","","","","","72","H","0","img/none_selected.jpg","","208","main_expt",""
"","bandit","288","829793","0.0-250.0-0.0","67323717","wem/bandit_party_1","A29TV2MF4893DA","either","1","284","","","","","","","0","1","0","","0.4590139285","0.2","0.8","0.6","0.4","0.4590139285","0.3467721984","0.3590511704","0.08389795445","","","","","","","","","","","","","","72","H","0","img/none_selected.jpg","","209","main_expt",""
"","bandit","289","831741","0.0-251.0-0.0","67323717","wem/bandit_party_1","A29TV2MF4893DA","either","1","440","","","","","","","1","0","0","0.4378910613","","0.2","0.8","0.6","0.4","","","","","0.4378910613","0.3513447539","0.3781523972","0.07846525543","","","","","","","","","","72","H","0","img/none_selected.jpg","","210","main_expt",""
"","bandit","290","833592","0.0-252.0-0.0","67323717","wem/bandit_party_1","A29TV2MF4893DA","either","1","345","","","","","","","0","1","0","","0.4139384991","0.2","0.8","0.6","0.4","0.4139384991","0.4003692624","0.3895188655","0.05906932722","","","","","","","","","","","","","","72","H","0","img/none_selected.jpg","","211","main_expt",""
"","bandit","291","835392","0.0-253.0-0.0","67323717","wem/bandit_party_1","A29TV2MF4893DA","either","1","292","","","","","","","0","0","1","","0.3659234609","0.2","0.8","0.6","0.4","0.3659234609","0.3949660502","0.4075098947","0.04754192311","","","","","","","","","","","","","","72","H","0","img/none_selected.jpg","","212","main_expt",""
"","bandit","292","837547","0.0-254.0-0.0","67323717","wem/bandit_party_1","A29TV2MF4893DA","either","1","648","","","","","","","1","0","0","0.4191075236","","0.2","0.8","0.6","0.4","","","","","0.3180572988","0.4233479157","0.4191075236","0.05481920189","","","","","","","","","","75","K","2","","","213","main_expt",""
"","bandit","293","839347","0.0-255.0-0.0","67323717","wem/bandit_party_1","A29TV2MF4893DA","either","1","291","","","","","","","0","1","0","","0.3799529118","0.2","0.8","0.6","0.4","0.2611162072","0.4182751871","0.3799529118","0.07954578011","","","","","","","","","","","","","","75","K","2","","","214","main_expt",""
"","bandit","294","841116","0.0-256.0-0.0","67323717","wem/bandit_party_1","A29TV2MF4893DA","either","1","260","","","","","","","0","0","1","0.3924699069","","0.2","0.8","0.6","0.4","","","","","0.2331309726","0.3745823719","0.3924699069","0.1078137614","","","","","","","","","","75","K","2","","","215","main_expt",""
"","bandit","295","843192","0.0-257.0-0.0","67323717","wem/bandit_party_1","A29TV2MF4893DA","either","1","567","","","","","","","0","0","1","","0.1269525553","0.2","0.8","0.6","0.4","0.2428402293","0.3809837923","0.3556657658","0.1269525553","","","","","","","","","","","","","","76","L","3","","","216","main_expt",""
"","bandit","296","844970","0.0-258.0-0.0","67323717","wem/bandit_party_1","A29TV2MF4893DA","either","1","271","","","","","","","0","0","1","","0.1849794572","0.2","0.8","0.6","0.4","0.2317762644","0.4144294186","0.3870416945","0.1849794572","","","","","","","","","","","","","","76","L","3","","","217","main_expt",""
"","bandit","297","847041","0.0-259.0-0.0","67323717","wem/bandit_party_1","A29TV2MF4893DA","either","1","564","","","","","","","0","0","1","0.4090742927","","0.2","0.8","0.6","0.4","","","","","0.204309912","0.4090742927","0.3944581396","0.1903787706","","","","","","","","","","74","J","1","","","218","main_expt",""
"","bandit","298","848815","0.0-260.0-0.0","67323717","wem/bandit_party_1","A29TV2MF4893DA","either","1","267","","","","","","","1","0","0","0.3869695378","","0.2","0.8","0.6","0.4","","","","","0.1685596251","0.3869695378","0.4256173987","0.1768508397","","","","","","","","","","74","J","1","","","219","main_expt",""
"","bandit","299","850922","0.0-261.0-0.0","67323717","wem/bandit_party_1","A29TV2MF4893DA","either","1","599","","","","","","","0","0","1","0.3814250035","","0.2","0.8","0.6","0.4","","","","","0.2488487331","0.3814250035","0.4240862242","0.2176561852","","","","","","","","","","74","J","1","","","220","main_expt",""
"","bandit","300","853046","0.0-262.0-0.0","67323717","wem/bandit_party_1","A29TV2MF4893DA","either","1","613","","","","","","","0","0","1","","0.2789816034","0.2","0.8","0.6","0.4","0.2789816034","0.3560431311","0.4364702466","0.2075488201","","","","","","","","","","","","","","72","H","0","img/none_selected.jpg","","221","main_expt",""
"","bandit","301","854803","0.0-263.0-0.0","67323717","wem/bandit_party_1","A29TV2MF4893DA","either","1","250","","","","","","","0","0","1","","0.242729834","0.2","0.8","0.6","0.4","0.242729834","0.3424215647","0.4512924842","0.2260831429","","","","","","","","","","","","","","72","H","0","img/none_selected.jpg","","222","main_expt",""
"","bandit","302","856892","0.0-264.0-0.0","67323717","wem/bandit_party_1","A29TV2MF4893DA","either","1","581","","","","","","","0","0","1","","0.196538567","0.2","0.8","0.6","0.4","0.196538567","0.3118962833","0.4649948574","0.2512075751","","","","","","","","","","","","","","72","H","0","img/none_selected.jpg","","223","main_expt",""
"","bandit","303","858814","0.0-265.0-0.0","67323717","wem/bandit_party_1","A29TV2MF4893DA","either","1","415","","","","","","","0","1","0","","0.4692106987","0.2","0.8","0.6","0.4","0.2189223785","0.261290028","0.4692106987","0.3072691987","","","","","","","","","","","","","","75","K","2","","","224","main_expt",""
"","bandit","304","860576","0.0-266.0-0.0","67323717","wem/bandit_party_1","A29TV2MF4893DA","either","1","252","","","","","","","0","1","0","","0.4772226815","0.2","0.8","0.6","0.4","0.2131207899","0.2748104332","0.4772226815","0.3358063032","","","","","","","","","","","","","","75","K","2","","","225","main_expt",""
"","bandit","305","862334","0.0-267.0-0.0","67323717","wem/bandit_party_1","A29TV2MF4893DA","either","1","251","","","","","","","0","1","0","","0.4828013869","0.2","0.8","0.6","0.4","0.187439681","0.2112523614","0.4828013869","0.2994610032","","","","","","","","","","","","","","75","K","2","","","226","main_expt",""
"","bandit","306","864124","0.0-268.0-0.0","67323717","wem/bandit_party_1","A29TV2MF4893DA","either","1","283","","","","","","","0","0","1","0.4805292857","","0.2","0.8","0.6","0.4","","","","","0.1522087394","0.1879164098","0.4805292857","0.2719992041","","","","","","","","","","75","K","2","","","227","main_expt",""
"","bandit","307","867862","0.0-269.0-0.0","67323717","wem/bandit_party_1","A29TV2MF4893DA","either","1","2229","","","","","","","1","0","0","0.2601066631","","0.2","0.8","0.6","0.4","","","","","0.1975586059","0.1857646906","0.4770879938","0.2601066631","","","","","","","","","","76","L","3","","","228","main_expt",""
"","bandit","308","869697","0.0-270.0-0.0","67323717","wem/bandit_party_1","A29TV2MF4893DA","either","1","326","","","","","","","0","0","1","","0.2333982712","0.2","0.8","0.6","0.4","0.2280604414","0.1608888173","0.4830225504","0.2333982712","","","","","","","","","","","","","","76","L","3","","","229","main_expt",""
"","bandit","309","871529","0.0-271.0-0.0","67323717","wem/bandit_party_1","A29TV2MF4893DA","either","1","322","","","","","","","0","1","0","","0.2179366985","0.2","0.8","0.6","0.4","0.2120359748","0.1139945837","0.4827210916","0.2179366985","","","","","","","","","","","","","","76","L","3","","","230","main_expt",""
"","bandit","310","873460","0.0-272.0-0.0","67323717","wem/bandit_party_1","A29TV2MF4893DA","either","1","423","","","","","","","0","1","0","","0.210335649","0.2","0.8","0.6","0.4","0.2260377558","0.1071229599","0.4764813513","0.210335649","","","","","","","","","","","","","","76","L","3","","","231","main_expt",""
"","bandit","311","875395","0.0-273.0-0.0","67323717","wem/bandit_party_1","A29TV2MF4893DA","either","1","427","","","","","","","0","0","1","0.2154905401","","0.2","0.8","0.6","0.4","","","","","0.2810037348","0.1250262501","0.4794978353","0.2154905401","","","","","","","","","","76","L","3","","","232","main_expt",""
"","bandit","312","877087","0.0-274.0-0.0","67323717","wem/bandit_party_1","A29TV2MF4893DA","either","1","184","","","","","","","1","0","0","0.2199054097","","0.2","0.8","0.6","0.4","","","","","0.3371590923","0.1262657767","0.4717583679","0.2199054097","","","","","","","","","","76","L","3","","","233","main_expt",""
"","bandit","313","879063","0.0-275.0-0.0","67323717","wem/bandit_party_1","A29TV2MF4893DA","either","1","469","","","","","","","0","0","1","","0.2116885818","0.2","0.8","0.6","0.4","0.2614597929","0.1436583916","0.4801470087","0.2116885818","","","","","","","","","","","","","","76","L","3","","","234","main_expt",""
"","bandit","314","881952","0.0-276.0-0.0","67323717","wem/bandit_party_1","A29TV2MF4893DA","either","1","1381","","","","","","","0","0","1","","0.2855471023","0.2","0.8","0.6","0.4","0.2855471023","0.1776605917","0.4698449305","0.2037112673","","","","","","","","","","","","","","72","H","0","img/none_selected.jpg","","235","main_expt",""
"","bandit","315","884207","0.0-277.0-0.0","67323717","wem/bandit_party_1","A29TV2MF4893DA","either","1","747","","","","","","","0","1","0","","0.2806831757","0.2","0.8","0.6","0.4","0.2806831757","0.2039581082","0.4750890902","0.2295670059","","","","","","","","","","","","","","72","H","0","img/none_selected.jpg","","236","main_expt",""
