"consent","trial_type","trial_index","time_elapsed","internal_node_id","subjID","study","MID","cond","drift","rt","responses","button_pressed","key_press","like","value","connected","gems","bombs","no_reward","GemPrChosen","BombPrChosen","GainOverPainPr_0","GainOverPainPr_1","GainOverPainPr_2","GainOverPainPr_3","LosePr_0","LosePr_1","LosePr_2","LosePr_3","WinPr_0","WinPr_1","WinPr_2","WinPr_3","Q0","Q1","Q2","gender","age","ethnicity","label","expt_phase","target","respCharCode","respKey","respChoiceNum","respChoice","practice","trial_counter","trial_label","Q0_index"
"GDM/GDM_behavioral_consent_30min_online.html","consent","0","8336","0.0-0.0","68140038","wem/bandit_party_1","A3JTDNRJYVCGQD","either","6","","","","","","","","","","","","","","","","","","","","","","","","","","","","","","","","","","","","","","","","",""
"","survey-text","1","14995","0.0-1.0","68140038","wem/bandit_party_1","A3JTDNRJYVCGQD","either","6","5651","{""Q0"":""A3JTDNRJYVCGQD""}","","","","","","","","","","","","","","","","","","","","","","","","","","","","","","","","","","","","","","",""
"","button-response","2","18389","0.0-2.0","68140038","wem/bandit_party_1","A3JTDNRJYVCGQD","either","6","2389","","1","","","","","","","","","","","","","","","","","","","","","","","","","","","","","","","","","","","","","",""
"","text-replacement","3","35214","0.0-3.0","68140038","wem/bandit_party_1","A3JTDNRJYVCGQD","either","6","15820","","","32","","","","","","","","","","","","","","","","","","","","","","","","","","","","","","","","","","","","",""
"","text-replacement","4","47249","0.0-4.0","68140038","wem/bandit_party_1","A3JTDNRJYVCGQD","either","6","12034","","","32","","","","","","","","","","","","","","","","","","","","","","","","","","","","","","","","","","","","",""
"","identification","5","56099","0.0-6.0-0.0","68140038","wem/bandit_party_1","A3JTDNRJYVCGQD","either","6","8840","","","","2","2","1","","","","","","","","","","","","","","","","","","","","","","","","pre","identification_pre","the Republican party","","","","","","","",""
"","identification","6","60367","0.0-6.0-1.0","68140038","wem/bandit_party_1","A3JTDNRJYVCGQD","either","6","3259","","","","6","6","6","","","","","","","","","","","","","","","","","","","","","","","","pre","identification_pre","the Democratic Party","","","","","","","",""
"","text-replacement","7","67139","0.0-7.0","68140038","wem/bandit_party_1","A3JTDNRJYVCGQD","either","6","5768","","","32","","","","","","","","","","","","","","","","","","","","","","","","","","","","","","","","","","","","",""
"","text-replacement","8","74398","0.0-8.0","68140038","wem/bandit_party_1","A3JTDNRJYVCGQD","either","6","7256","","","32","","","","","","","","","","","","","","","","","","","","","","","","","","","","","","","","","","","","",""
"","text-replacement","9","87389","0.0-9.0","68140038","wem/bandit_party_1","A3JTDNRJYVCGQD","either","6","12986","","","32","","","","","","","","","","","","","","","","","","","","","","","","","","","","","","","","","","","","",""
"","text-replacement","10","91385","0.0-10.0","68140038","wem/bandit_party_1","A3JTDNRJYVCGQD","either","6","3994","","","32","","","","","","","","","","","","","","","","","","","","","","","","","","","","","","","","","","","","",""
"","text-replacement","11","97116","0.0-11.0","68140038","wem/bandit_party_1","A3JTDNRJYVCGQD","either","6","5729","","","32","","","","","","","","","","","","","","","","","","","","","","","","","","","","","","","","","","","","",""
"","bandit","12","104075","0.0-12.0-0.0","68140038","wem/bandit_party_1","A3JTDNRJYVCGQD","either","6","5449","","","","","","","0","0","1","0","0","","","","","0","","","","0","","","","","","","","","","","","","74","J","0","img/none_selected_demo.jpg","true","0","",""
"","bandit","13","107040","0.0-13.0-0.0","68140038","wem/bandit_party_1","A3JTDNRJYVCGQD","either","6","1451","","","","","","","0","0","1","0","0","","","","","0","","","","0","","","","","","","","","","","","","75","K","0","img/none_selected_demo.jpg","true","0","",""
"","text-replacement","14","119034","0.0-14.0","68140038","wem/bandit_party_1","A3JTDNRJYVCGQD","either","6","11993","","","32","","","","","","","","","","","","","","","","","","","","","","","","","","","","","","","","","","","","",""
"","text-replacement","15","126776","0.0-15.0","68140038","wem/bandit_party_1","A3JTDNRJYVCGQD","either","6","7739","","","32","","","","","","","","","","","","","","","","","","","","","","","","","","","","","","","","","","","","",""
"","text-replacement","16","143252","0.0-16.0","68140038","wem/bandit_party_1","A3JTDNRJYVCGQD","either","6","16474","","","32","","","","","","","","","","","","","","","","","","","","","","","","","","","","","","","","","","","","",""
"","text-replacement","17","146944","0.0-17.0","68140038","wem/bandit_party_1","A3JTDNRJYVCGQD","either","6","3690","","","32","","","","","","","","","","","","","","","","","","","","","","","","","","","","","","","","","","","","",""
"","bandit","18","149835","0.0-18.0-0.0","68140038","wem/bandit_party_1","A3JTDNRJYVCGQD","either","6","1379","","","","","","","0","0","1","","0.2","0.5","0.5","","","0.8","0.2","","","","","","","","","","","","","","","","75","K","1","","true","0","80_20_practice",""
"","bandit","19","152158","0.0-18.0-1.0","68140038","wem/bandit_party_1","A3JTDNRJYVCGQD","either","6","814","","","","","","","0","1","0","","0.8","0.5","0.5","","","0.8","0.2","","","","","","","","","","","","","","","","74","J","0","img/none_selected_demo.jpg","true","0","80_20_practice",""
"","bandit","20","154116","0.0-18.0-2.0","68140038","wem/bandit_party_1","A3JTDNRJYVCGQD","either","6","451","","","","","","","0","0","1","0.8","","0.5","0.5","","","","","","","0.8","0.2","","","","","","","","","","","","74","J","0","img/none_selected_demo.jpg","true","0","80_20_practice",""
"","bandit","21","155916","0.0-18.0-3.0","68140038","wem/bandit_party_1","A3JTDNRJYVCGQD","either","6","292","","","","","","","0","0","1","","0.2","0.5","0.5","","","0.8","0.2","","","","","","","","","","","","","","","","75","K","1","","true","0","80_20_practice",""
"","bandit","22","157673","0.0-18.0-4.0","68140038","wem/bandit_party_1","A3JTDNRJYVCGQD","either","6","248","","","","","","","0","1","0","","0.8","0.5","0.5","","","0.8","0.2","","","","","","","","","","","","","","","","74","J","0","img/none_selected_demo.jpg","true","0","80_20_practice",""
"","bandit","23","159605","0.0-18.0-5.0","68140038","wem/bandit_party_1","A3JTDNRJYVCGQD","either","6","426","","","","","","","0","1","0","","0.8","0.5","0.5","","","0.8","0.2","","","","","","","","","","","","","","","","74","J","0","img/none_selected_demo.jpg","true","0","80_20_practice",""
"","bandit","24","161456","0.0-18.0-6.0","68140038","wem/bandit_party_1","A3JTDNRJYVCGQD","either","6","339","","","","","","","0","1","0","","0.8","0.5","0.5","","","0.8","0.2","","","","","","","","","","","","","","","","74","J","0","img/none_selected_demo.jpg","true","0","80_20_practice",""
"","bandit","25","163227","0.0-18.0-7.0","68140038","wem/bandit_party_1","A3JTDNRJYVCGQD","either","6","256","","","","","","","0","1","0","","0.8","0.5","0.5","","","0.8","0.2","","","","","","","","","","","","","","","","74","J","0","img/none_selected_demo.jpg","true","0","80_20_practice",""
"","bandit","26","164908","0.0-18.0-8.0","68140038","wem/bandit_party_1","A3JTDNRJYVCGQD","either","6","175","","","","","","","0","0","1","0.8","","0.5","0.5","","","","","","","0.8","0.2","","","","","","","","","","","","74","J","0","img/none_selected_demo.jpg","true","0","80_20_practice",""
"","bandit","27","166556","0.0-18.0-9.0","68140038","wem/bandit_party_1","A3JTDNRJYVCGQD","either","6","141","","","","","","","0","1","0","","0.8","0.5","0.5","","","0.8","0.2","","","","","","","","","","","","","","","","74","J","0","img/none_selected_demo.jpg","true","0","80_20_practice",""
"","bandit","28","168427","0.0-18.0-10.0","68140038","wem/bandit_party_1","A3JTDNRJYVCGQD","either","6","367","","","","","","","0","1","0","","0.8","0.5","0.5","","","0.8","0.2","","","","","","","","","","","","","","","","74","J","0","img/none_selected_demo.jpg","true","0","80_20_practice",""
"","bandit","29","170219","0.0-18.0-11.0","68140038","wem/bandit_party_1","A3JTDNRJYVCGQD","either","6","285","","","","","","","0","0","1","","0.8","0.5","0.5","","","0.8","0.2","","","","","","","","","","","","","","","","74","J","0","img/none_selected_demo.jpg","true","0","80_20_practice",""
"","bandit","30","172042","0.0-18.0-12.0","68140038","wem/bandit_party_1","A3JTDNRJYVCGQD","either","6","317","","","","","","","1","0","0","0.8","","0.5","0.5","","","","","","","0.8","0.2","","","","","","","","","","","","74","J","0","img/none_selected_demo.jpg","true","0","80_20_practice",""
"","bandit","31","173721","0.0-18.0-13.0","68140038","wem/bandit_party_1","A3JTDNRJYVCGQD","either","6","173","","","","","","","0","1","0","","0.8","0.5","0.5","","","0.8","0.2","","","","","","","","","","","","","","","","74","J","0","img/none_selected_demo.jpg","true","0","80_20_practice",""
"","bandit","32","175468","0.0-18.0-14.0","68140038","wem/bandit_party_1","A3JTDNRJYVCGQD","either","6","237","","","","","","","0","0","1","0.8","","0.5","0.5","","","","","","","0.8","0.2","","","","","","","","","","","","74","J","0","img/none_selected_demo.jpg","true","0","80_20_practice",""
"","bandit","33","177160","0.0-18.0-15.0","68140038","wem/bandit_party_1","A3JTDNRJYVCGQD","either","6","183","","","","","","","0","1","0","","0.8","0.5","0.5","","","0.8","0.2","","","","","","","","","","","","","","","","74","J","0","img/none_selected_demo.jpg","true","0","80_20_practice",""
"","bandit","34","178965","0.0-18.0-16.0","68140038","wem/bandit_party_1","A3JTDNRJYVCGQD","either","6","297","","","","","","","0","1","0","","0.8","0.5","0.5","","","0.8","0.2","","","","","","","","","","","","","","","","74","J","0","img/none_selected_demo.jpg","true","0","80_20_practice",""
"","bandit","35","180701","0.0-18.0-17.0","68140038","wem/bandit_party_1","A3JTDNRJYVCGQD","either","6","232","","","","","","","0","1","0","","0.8","0.5","0.5","","","0.8","0.2","","","","","","","","","","","","","","","","74","J","0","img/none_selected_demo.jpg","true","0","80_20_practice",""
"","bandit","36","182367","0.0-18.0-18.0","68140038","wem/bandit_party_1","A3JTDNRJYVCGQD","either","6","158","","","","","","","1","0","0","0.8","","0.5","0.5","","","","","","","0.8","0.2","","","","","","","","","","","","74","J","0","img/none_selected_demo.jpg","true","0","80_20_practice",""
"","bandit","37","184117","0.0-18.0-19.0","68140038","wem/bandit_party_1","A3JTDNRJYVCGQD","either","6","242","","","","","","","1","0","0","0.8","","0.5","0.5","","","","","","","0.8","0.2","","","","","","","","","","","","74","J","0","img/none_selected_demo.jpg","true","0","80_20_practice",""
"","text-replacement","38","187767","0.0-19.0","68140038","wem/bandit_party_1","A3JTDNRJYVCGQD","either","6","3649","","","32","","","","","","","","","","","","","","","","","","","","","","","","","","","","","","","","","","","","",""
"","bandit","39","189978","0.0-20.0-0.0","68140038","wem/bandit_party_1","A3JTDNRJYVCGQD","either","6","706","","","","","","","1","0","0","1","0","","","","","0","1","","","1","0","","","","","","","","","","","","74","J","0","img/none_selected_demo.jpg","true","0","",""
"","text-replacement","40","195269","0.0-21.0","68140038","wem/bandit_party_1","A3JTDNRJYVCGQD","either","6","5289","","","32","","","","","","","","","","","","","","","","","","","","","","","","","","","","","","","","","","","","",""
"","text-replacement","41","200398","0.0-22.0","68140038","wem/bandit_party_1","A3JTDNRJYVCGQD","either","6","5127","","","32","","","","","","","","","","","","","","","","","","","","","","","","","","","","","","","","","","","","",""
"","text-replacement","42","203241","0.0-23.0","68140038","wem/bandit_party_1","A3JTDNRJYVCGQD","either","6","2838","","","32","","","","","","","","","","","","","","","","","","","","","","","","","","","","","","","","","","","","",""
"","text-replacement","43","206845","0.0-24.0","68140038","wem/bandit_party_1","A3JTDNRJYVCGQD","either","6","3597","","","32","","","","","","","","","","","","","","","","","","","","","","","","","","","","","","","","","","","","",""
"","text-replacement","44","216756","0.0-25.0","68140038","wem/bandit_party_1","A3JTDNRJYVCGQD","either","6","9906","","","32","","","","","","","","","","","","","","","","","","","","","","","","","","","","","","","","","","","","",""
"","text-replacement","45","220216","0.0-26.0","68140038","wem/bandit_party_1","A3JTDNRJYVCGQD","either","6","3456","","","32","","","","","","","","","","","","","","","","","","","","","","","","","","","","","","","","","","","","",""
"","text-replacement","46","226326","0.0-27.0","68140038","wem/bandit_party_1","A3JTDNRJYVCGQD","either","6","6105","","","32","","","","","","","","","","","","","","","","","","","","","","","","","","","","","","","","","","","","",""
"","text-replacement","47","231207","0.0-28.0","68140038","wem/bandit_party_1","A3JTDNRJYVCGQD","either","6","4875","","","32","","","","","","","","","","","","","","","","","","","","","","","","","","","","","","","","","","","","",""
"","text-replacement","48","238340","0.0-29.0","68140038","wem/bandit_party_1","A3JTDNRJYVCGQD","either","6","7130","","","32","","","","","","","","","","","","","","","","","","","","","","","","","","","","","","","","","","","","",""
"","text-replacement","49","240519","0.0-30.0","68140038","wem/bandit_party_1","A3JTDNRJYVCGQD","either","6","2178","","","32","","","","","","","","","","","","","","","","","","","","","","","","","","","","","","","","","","","","",""
"","text-replacement","50","243664","0.0-31.0","68140038","wem/bandit_party_1","A3JTDNRJYVCGQD","either","6","3142","","","32","","","","","","","","","","","","","","","","","","","","","","","","","","","","","","","","","","","","",""
"","bandit","51","245860","0.0-32.0-0.0","68140038","wem/bandit_party_1","A3JTDNRJYVCGQD","either","6","682","","","","","","","1","0","0","0.8","","0.5","0.5","0.5","0.5","","","","","0.8","0.2","0.6","0.2","","","","","","","","","","72","H","0","img/none_selected.jpg","true","0","full_practice",""
"","bandit","52","247691","0.0-32.0-1.0","68140038","wem/bandit_party_1","A3JTDNRJYVCGQD","either","6","317","","","","","","","1","0","0","0.8","","0.5","0.5","0.5","0.5","","","","","0.8","0.2","0.6","0.2","","","","","","","","","","72","H","0","img/none_selected.jpg","true","0","full_practice",""
"","bandit","53","249504","0.0-32.0-2.0","68140038","wem/bandit_party_1","A3JTDNRJYVCGQD","either","6","295","","","","","","","0","1","0","","0.8","0.5","0.5","0.5","0.5","0.8","0.2","0.6","0.2","","","","","","","","","","","","","","72","H","0","img/none_selected.jpg","true","0","full_practice",""
"","bandit","54","251292","0.0-32.0-3.0","68140038","wem/bandit_party_1","A3JTDNRJYVCGQD","either","6","275","","","","","","","0","1","0","","0.8","0.5","0.5","0.5","0.5","0.8","0.2","0.6","0.2","","","","","","","","","","","","","","72","H","0","img/none_selected.jpg","true","0","full_practice",""
"","bandit","55","253097","0.0-32.0-4.0","68140038","wem/bandit_party_1","A3JTDNRJYVCGQD","either","6","297","","","","","","","0","1","0","","0.8","0.5","0.5","0.5","0.5","0.8","0.2","0.6","0.2","","","","","","","","","","","","","","72","H","0","img/none_selected.jpg","true","0","full_practice",""
"","bandit","56","254925","0.0-32.0-5.0","68140038","wem/bandit_party_1","A3JTDNRJYVCGQD","either","6","317","","","","","","","1","0","0","0.8","","0.5","0.5","0.5","0.5","","","","","0.8","0.2","0.6","0.2","","","","","","","","","","72","H","0","img/none_selected.jpg","true","0","full_practice",""
"","bandit","57","256711","0.0-32.0-6.0","68140038","wem/bandit_party_1","A3JTDNRJYVCGQD","either","6","268","","","","","","","0","1","0","","0.8","0.5","0.5","0.5","0.5","0.8","0.2","0.6","0.2","","","","","","","","","","","","","","72","H","0","img/none_selected.jpg","true","0","full_practice",""
"","bandit","58","258773","0.0-32.0-7.0","68140038","wem/bandit_party_1","A3JTDNRJYVCGQD","either","6","552","","","","","","","0","0","1","0.8","","0.5","0.5","0.5","0.5","","","","","0.8","0.2","0.6","0.2","","","","","","","","","","72","H","0","img/none_selected.jpg","true","0","full_practice",""
"","bandit","59","260596","0.0-32.0-8.0","68140038","wem/bandit_party_1","A3JTDNRJYVCGQD","either","6","306","","","","","","","0","0","1","","0.8","0.5","0.5","0.5","0.5","0.8","0.2","0.6","0.2","","","","","","","","","","","","","","72","H","0","img/none_selected.jpg","true","0","full_practice",""
"","bandit","60","262550","0.0-32.0-9.0","68140038","wem/bandit_party_1","A3JTDNRJYVCGQD","either","6","446","","","","","","","0","0","1","","0.8","0.5","0.5","0.5","0.5","0.8","0.2","0.6","0.2","","","","","","","","","","","","","","72","H","0","img/none_selected.jpg","true","0","full_practice",""
"","bandit","61","264342","0.0-32.0-10.0","68140038","wem/bandit_party_1","A3JTDNRJYVCGQD","either","6","277","","","","","","","0","0","1","0.2","","0.5","0.5","0.5","0.5","","","","","0.8","0.2","0.6","0.2","","","","","","","","","","74","J","1","","true","0","full_practice",""
"","bandit","62","266170","0.0-32.0-11.0","68140038","wem/bandit_party_1","A3JTDNRJYVCGQD","either","6","322","","","","","","","1","0","0","0.6","","0.5","0.5","0.5","0.5","","","","","0.8","0.2","0.6","0.2","","","","","","","","","","75","K","2","","true","0","full_practice",""
"","bandit","63","268055","0.0-32.0-12.0","68140038","wem/bandit_party_1","A3JTDNRJYVCGQD","either","6","369","","","","","","","1","0","0","0.6","","0.5","0.5","0.5","0.5","","","","","0.8","0.2","0.6","0.2","","","","","","","","","","75","K","2","","true","0","full_practice",""
"","bandit","64","269921","0.0-32.0-13.0","68140038","wem/bandit_party_1","A3JTDNRJYVCGQD","either","6","340","","","","","","","0","0","1","0.6","","0.5","0.5","0.5","0.5","","","","","0.8","0.2","0.6","0.2","","","","","","","","","","75","K","2","","true","0","full_practice",""
"","bandit","65","273238","0.0-32.0-14.0","68140038","wem/bandit_party_1","A3JTDNRJYVCGQD","either","6","1806","","","","","","","0","0","1","","0.2","0.5","0.5","0.5","0.5","0.8","0.2","0.6","0.2","","","","","","","","","","","","","","76","L","3","","true","0","full_practice",""
"","bandit","66","275014","0.0-32.0-15.0","68140038","wem/bandit_party_1","A3JTDNRJYVCGQD","either","6","263","","","","","","","0","0","1","0.2","","0.5","0.5","0.5","0.5","","","","","0.8","0.2","0.6","0.2","","","","","","","","","","76","L","3","","true","0","full_practice",""
"","bandit","67","276871","0.0-32.0-16.0","68140038","wem/bandit_party_1","A3JTDNRJYVCGQD","either","6","348","","","","","","","0","0","1","","0.6","0.5","0.5","0.5","0.5","0.8","0.2","0.6","0.2","","","","","","","","","","","","","","75","K","2","","true","0","full_practice",""
"","bandit","68","278591","0.0-32.0-17.0","68140038","wem/bandit_party_1","A3JTDNRJYVCGQD","either","6","209","","","","","","","0","0","1","0.2","","0.5","0.5","0.5","0.5","","","","","0.8","0.2","0.6","0.2","","","","","","","","","","74","J","1","","true","0","full_practice",""
"","bandit","69","280433","0.0-32.0-18.0","68140038","wem/bandit_party_1","A3JTDNRJYVCGQD","either","6","337","","","","","","","1","0","0","0.8","","0.5","0.5","0.5","0.5","","","","","0.8","0.2","0.6","0.2","","","","","","","","","","72","H","0","img/none_selected.jpg","true","0","full_practice",""
"","bandit","70","282410","0.0-32.0-19.0","68140038","wem/bandit_party_1","A3JTDNRJYVCGQD","either","6","469","","","","","","","0","1","0","","0.8","0.5","0.5","0.5","0.5","0.8","0.2","0.6","0.2","","","","","","","","","","","","","","72","H","0","img/none_selected.jpg","true","0","full_practice",""
"","text","71","285244","0.0-33.0","68140038","wem/bandit_party_1","A3JTDNRJYVCGQD","either","6","2825","","","32","","","","","","","","","","","","","","","","","","","","","","","","","","","","","","","","","","","","",""
"","text-replacement","72","300274","0.0-34.0","68140038","wem/bandit_party_1","A3JTDNRJYVCGQD","either","6","14027","","","32","","","","","","","","","","","","","","","","","","","","","","","","","","","","","","","","","","","","",""
"","text-replacement","73","318079","0.0-35.0","68140038","wem/bandit_party_1","A3JTDNRJYVCGQD","either","6","17801","","","32","","","","","","","","","","","","","","","","","","","","","","","","","","","","","","","","","","","","",""
"","text-replacement","74","326233","0.0-36.0","68140038","wem/bandit_party_1","A3JTDNRJYVCGQD","either","6","8149","","","32","","","","","","","","","","","","","","","","","","","","","","","","","","","","","","","","","","","","",""
"","text-replacement","75","335554","0.0-37.0","68140038","wem/bandit_party_1","A3JTDNRJYVCGQD","either","6","9320","","","32","","","","","","","","","","","","","","","","","","","","","","","","","","","","","","","","","","","","",""
"","text-replacement","76","344605","0.0-38.0","68140038","wem/bandit_party_1","A3JTDNRJYVCGQD","either","6","9047","","","32","","","","","","","","","","","","","","","","","","","","","","","","","","","","","","","","","","","","",""
"","survey-multi-choice-replacement","77","351711","0.0-39.0-0.0","68140038","wem/bandit_party_1","A3JTDNRJYVCGQD","either","6","7089","","","","","","","","","","","","","","","","","","","","","","","","Money will be added to the pool for <span style='color:blue;'>DEMOCRATS</span>","","","","","","","attn_check","","","","","","","","","0"
"","survey-multi-choice-replacement","78","360969","0.0-40.0-0.0","68140038","wem/bandit_party_1","A3JTDNRJYVCGQD","either","6","8248","","","","","","","","","","","","","","","","","","","","","","","","Equal amounts of money will be added to the pool for <span style='color:blue;'>DEMOCRATS</span> and subtracted from the pool for <span style='color:red;'>REPUBLICANS</span>","","","","","","","attn_check","","","","","","","","","2"
"","survey-multi-choice-replacement","79","363922","0.0-41.0-0.0","68140038","wem/bandit_party_1","A3JTDNRJYVCGQD","either","6","1945","","","","","","","","","","","","","","","","","","","","","","","","No money will be added to either pool","","","","","","","attn_check","","","","","","","","","3"
"","bandit","80","368764","0.0-42.0-0.0","68140038","wem/bandit_party_1","A3JTDNRJYVCGQD","either","6","2332","","","","","","","0","0","1","0.06094066238","","0.2","0.8","0.6","0.4","","","","","0.4656478179","0.1734470434","0.1720655487","0.06094066238","","","","","","","","","","76","L","3","","","1","main_expt",""
"","bandit","81","370561","0.0-43.0-0.0","68140038","wem/bandit_party_1","A3JTDNRJYVCGQD","either","6","288","","","","","","","0","0","1","0.1607886358","","0.2","0.8","0.6","0.4","","","","","0.4661883906","0.1582158198","0.1607886358","0.04941180107","","","","","","","","","","75","K","2","","","2","main_expt",""
"","bandit","82","372269","0.0-44.0-0.0","68140038","wem/bandit_party_1","A3JTDNRJYVCGQD","either","6","196","","","","","","","0","1","0","","0.1264016625","0.2","0.8","0.6","0.4","0.4608397999","0.1264016625","0.1825924006","0.09066711981","","","","","","","","","","","","","","74","J","1","","","3","main_expt",""
"","bandit","83","374059","0.0-45.0-0.0","68140038","wem/bandit_party_1","A3JTDNRJYVCGQD","either","6","283","","","","","","","0","0","1","0.1212924903","","0.2","0.8","0.6","0.4","","","","","0.4568511376","0.1212924903","0.1572982515","0.07815644495","","","","","","","","","","74","J","1","","","4","main_expt",""
"","bandit","84","375805","0.0-46.0-0.0","68140038","wem/bandit_party_1","A3JTDNRJYVCGQD","either","6","237","","","","","","","1","0","0","0.4576747282","","0.2","0.8","0.6","0.4","","","","","0.4576747282","0.1603104869","0.1873501432","0.06547040057","","","","","","","","","","72","H","0","img/none_selected.jpg","","5","main_expt",""
"","bandit","85","377600","0.0-47.0-0.0","68140038","wem/bandit_party_1","A3JTDNRJYVCGQD","either","6","281","","","","","","","0","0","1","","0.4673201091","0.2","0.8","0.6","0.4","0.4673201091","0.1916070739","0.1484719509","0.09500806419","","","","","","","","","","","","","","72","H","0","img/none_selected.jpg","","6","main_expt",""
"","bandit","86","379385","0.0-48.0-0.0","68140038","wem/bandit_party_1","A3JTDNRJYVCGQD","either","6","272","","","","","","","1","0","0","0.1624213819","","0.2","0.8","0.6","0.4","","","","","0.4671816856","0.1624213819","0.1368680622","0.1156714339","","","","","","","","","","74","J","1","","","7","main_expt",""
"","bandit","87","381221","0.0-49.0-0.0","68140038","wem/bandit_party_1","A3JTDNRJYVCGQD","either","6","319","","","","","","","0","0","1","0.1529627983","","0.2","0.8","0.6","0.4","","","","","0.4577650209","0.1529627983","0.1412197478","0.08939878806","","","","","","","","","","74","J","1","","","8","main_expt",""
"","bandit","88","382999","0.0-50.0-0.0","68140038","wem/bandit_party_1","A3JTDNRJYVCGQD","either","6","255","","","","","","","0","0","1","","0.4538037209","0.2","0.8","0.6","0.4","0.4538037209","0.1638779","0.1285241668","0.1379609943","","","","","","","","","","","","","","72","H","0","img/none_selected.jpg","","9","main_expt",""
"","bandit","89","385092","0.0-51.0-0.0","68140038","wem/bandit_party_1","A3JTDNRJYVCGQD","either","6","572","","","","","","","0","0","1","0.1137500729","","0.2","0.8","0.6","0.4","","","","","0.4567906288","0.1682184418","0.1137500729","0.08892925829","","","","","","","","","","75","K","2","","","10","main_expt",""
"","bandit","90","386895","0.0-52.0-0.0","68140038","wem/bandit_party_1","A3JTDNRJYVCGQD","either","6","290","","","","","","","0","0","1","","0.1053961985","0.2","0.8","0.6","0.4","0.4707556997","0.1511948373","0.1134058804","0.1053961985","","","","","","","","","","","","","","76","L","3","","","11","main_expt",""
"","bandit","91","388705","0.0-53.0-0.0","68140038","wem/bandit_party_1","A3JTDNRJYVCGQD","either","6","296","","","","","","","0","0","1","0.2144966391","","0.2","0.8","0.6","0.4","","","","","0.4534589675","0.2144966391","0.1358134986","0.1267534428","","","","","","","","","","74","J","1","","","12","main_expt",""
"","bandit","92","390436","0.0-54.0-0.0","68140038","wem/bandit_party_1","A3JTDNRJYVCGQD","either","6","219","","","","","","","0","1","0","","0.4474824422","0.2","0.8","0.6","0.4","0.4474824422","0.1443049275","0.1105925571","0.1179877152","","","","","","","","","","","","","","72","H","0","img/none_selected.jpg","","13","main_expt",""
"","bandit","93","392287","0.0-55.0-0.0","68140038","wem/bandit_party_1","A3JTDNRJYVCGQD","either","6","336","","","","","","","0","1","0","","0.4125602811","0.2","0.8","0.6","0.4","0.4125602811","0.149160688","0.09057326494","0.1300626215","","","","","","","","","","","","","","72","H","0","img/none_selected.jpg","","14","main_expt",""
"","bandit","94","394086","0.0-56.0-0.0","68140038","wem/bandit_party_1","A3JTDNRJYVCGQD","either","6","290","","","","","","","0","1","0","","0.3715785473","0.2","0.8","0.6","0.4","0.3715785473","0.1525333278","0.05963436345","0.1129073675","","","","","","","","","","","","","","72","H","0","img/none_selected.jpg","","15","main_expt",""
"","bandit","95","396117","0.0-57.0-0.0","68140038","wem/bandit_party_1","A3JTDNRJYVCGQD","either","6","523","","","","","","","0","1","0","","0.3670357029","0.2","0.8","0.6","0.4","0.3670357029","0.1437253933","0.03970917029","0.1132840383","","","","","","","","","","","","","","72","H","0","img/none_selected.jpg","","16","main_expt",""
"","bandit","96","398080","0.0-58.0-0.0","68140038","wem/bandit_party_1","A3JTDNRJYVCGQD","either","6","455","","","","","","","0","0","1","","0.333794799","0.2","0.8","0.6","0.4","0.333794799","0.1191274054","0.03301664506","0.1530786807","","","","","","","","","","","","","","72","H","0","img/none_selected.jpg","","17","main_expt",""
"","bandit","97","399900","0.0-59.0-0.0","68140038","wem/bandit_party_1","A3JTDNRJYVCGQD","either","6","308","","","","","","","0","1","0","","0.3720862831","0.2","0.8","0.6","0.4","0.3720862831","0.1231388663","0.0325619","0.1367655081","","","","","","","","","","","","","","72","H","0","img/none_selected.jpg","","18","main_expt",""
"","bandit","98","401802","0.0-60.0-0.0","68140038","wem/bandit_party_1","A3JTDNRJYVCGQD","either","6","388","","","","","","","1","0","0","0.3940248177","","0.2","0.8","0.6","0.4","","","","","0.3940248177","0.1014962652","0.05136562407","0.1519969922","","","","","","","","","","72","H","0","img/none_selected.jpg","","19","main_expt",""
"","bandit","99","403651","0.0-61.0-0.0","68140038","wem/bandit_party_1","A3JTDNRJYVCGQD","either","6","339","","","","","","","1","0","0","0.3980303587","","0.2","0.8","0.6","0.4","","","","","0.3980303587","0.1184271466","0.05620034239","0.2344823222","","","","","","","","","","72","H","0","img/none_selected.jpg","","20","main_expt",""
"","bandit","100","405556","0.0-62.0-0.0","68140038","wem/bandit_party_1","A3JTDNRJYVCGQD","either","6","391","","","","","","","0","0","1","","0.405953395","0.2","0.8","0.6","0.4","0.405953395","0.1434190777","0.04865895453","0.2227593861","","","","","","","","","","","","","","72","H","0","img/none_selected.jpg","","21","main_expt",""
"","bandit","101","407309","0.0-63.0-0.0","68140038","wem/bandit_party_1","A3JTDNRJYVCGQD","either","6","243","","","","","","","0","0","1","","0.37898799","0.2","0.8","0.6","0.4","0.37898799","0.1323354157","0.05276066643","0.1831098024","","","","","","","","","","","","","","72","H","0","img/none_selected.jpg","","22","main_expt",""
"","bandit","102","409013","0.0-64.0-0.0","68140038","wem/bandit_party_1","A3JTDNRJYVCGQD","either","6","187","","","","","","","1","0","0","0.1384191998","","0.2","0.8","0.6","0.4","","","","","0.3661255489","0.1384191998","0.05284133488","0.1660310818","","","","","","","","","","74","J","1","","","23","main_expt",""
"","bandit","103","410821","0.0-65.0-0.0","68140038","wem/bandit_party_1","A3JTDNRJYVCGQD","either","6","299","","","","","","","1","0","0","0.1395593146","","0.2","0.8","0.6","0.4","","","","","0.3576379461","0.1395593146","0.0333904923","0.1400827643","","","","","","","","","","74","J","1","","","24","main_expt",""
"","bandit","104","412607","0.0-66.0-0.0","68140038","wem/bandit_party_1","A3JTDNRJYVCGQD","either","6","268","","","","","","","0","0","1","0.1696236693","","0.2","0.8","0.6","0.4","","","","","0.3346121782","0.1696236693","0.04666446392","0.2022937807","","","","","","","","","","74","J","1","","","25","main_expt",""
"","bandit","105","414397","0.0-67.0-0.0","68140038","wem/bandit_party_1","A3JTDNRJYVCGQD","either","6","274","","","","","","","0","0","1","0.1754084838","","0.2","0.8","0.6","0.4","","","","","0.3790434843","0.1754084838","0.04067930801","0.1725383963","","","","","","","","","","74","J","1","","","26","main_expt",""
"","bandit","106","416136","0.0-68.0-0.0","68140038","wem/bandit_party_1","A3JTDNRJYVCGQD","either","6","229","","","","","","","0","0","1","","0.03070036018","0.2","0.8","0.6","0.4","0.3744762435","0.118483546","0.03070036018","0.1735642386","","","","","","","","","","","","","","75","K","2","","","27","main_expt",""
"","bandit","107","417921","0.0-69.0-0.0","68140038","wem/bandit_party_1","A3JTDNRJYVCGQD","either","6","270","","","","","","","0","0","1","","0.149532802","0.2","0.8","0.6","0.4","0.3650769418","0.1259847853","0.02292460278","0.149532802","","","","","","","","","","","","","","76","L","3","","","28","main_expt",""
"","bandit","108","419706","0.0-70.0-0.0","68140038","wem/bandit_party_1","A3JTDNRJYVCGQD","either","6","257","","","","","","","0","0","1","","0.3299345172","0.2","0.8","0.6","0.4","0.3299345172","0.1072727049","0.03476379039","0.1597785082","","","","","","","","","","","","","","72","H","0","img/none_selected.jpg","","29","main_expt",""
"","bandit","109","421452","0.0-71.0-0.0","68140038","wem/bandit_party_1","A3JTDNRJYVCGQD","either","6","239","","","","","","","0","0","1","0.07952930744","","0.2","0.8","0.6","0.4","","","","","0.3010095271","0.07952930744","0.04211589453","0.1978771271","","","","","","","","","","74","J","1","","","30","main_expt",""
"","bandit","110","423080","0.0-72.0-0.0","68140038","wem/bandit_party_1","A3JTDNRJYVCGQD","either","6","117","","","","","","","0","0","1","","0.331530841","0.2","0.8","0.6","0.4","0.331530841","0.09691030242","0.04495483672","0.1928768267","","","","","","","","","","","","","","72","H","0","img/none_selected.jpg","","31","main_expt",""
"","bandit","111","424807","0.0-73.0-0.0","68140038","wem/bandit_party_1","A3JTDNRJYVCGQD","either","6","220","","","","","","","0","0","1","0.1338720944","","0.2","0.8","0.6","0.4","","","","","0.3469043085","0.1338720944","0.04126869591","0.1511047494","","","","","","","","","","74","J","1","","","32","main_expt",""
"","bandit","112","426667","0.0-74.0-0.0","68140038","wem/bandit_party_1","A3JTDNRJYVCGQD","either","6","352","","","","","","","0","0","1","0.02396570111","","0.2","0.8","0.6","0.4","","","","","0.2778139242","0.1428203538","0.02396570111","0.09247049486","","","","","","","","","","75","K","2","","","33","main_expt",""
"","bandit","113","428451","0.0-75.0-0.0","68140038","wem/bandit_party_1","A3JTDNRJYVCGQD","either","6","273","","","","","","","0","0","1","0.1127946788","","0.2","0.8","0.6","0.4","","","","","0.236883459","0.1258169527","0.03561151332","0.1127946788","","","","","","","","","","76","L","3","","","34","main_expt",""
"","bandit","114","430201","0.0-76.0-0.0","68140038","wem/bandit_party_1","A3JTDNRJYVCGQD","either","6","240","","","","","","","0","0","1","0.1652362889","","0.2","0.8","0.6","0.4","","","","","0.2656196476","0.1652362889","0.04565222073","0.1279928094","","","","","","","","","","74","J","1","","","35","main_expt",""
"","bandit","115","431968","0.0-77.0-0.0","68140038","wem/bandit_party_1","A3JTDNRJYVCGQD","either","6","259","","","","","","","0","0","1","","0.2309028503","0.2","0.8","0.6","0.4","0.2309028503","0.1472348388","0.05036449293","0.09285608896","","","","","","","","","","","","","","72","H","0","img/none_selected.jpg","","36","main_expt",""
"","bandit","116","433696","0.0-78.0-0.0","68140038","wem/bandit_party_1","A3JTDNRJYVCGQD","either","6","220","","","","","","","0","0","1","0.20581188","","0.2","0.8","0.6","0.4","","","","","0.1961267878","0.20581188","0.04764774511","0.1251507517","","","","","","","","","","74","J","1","","","37","main_expt",""
"","bandit","117","435450","0.0-79.0-0.0","68140038","wem/bandit_party_1","A3JTDNRJYVCGQD","either","6","240","","","","","","","0","0","1","","0.2197692452","0.2","0.8","0.6","0.4","0.2197692452","0.2096070571","0.04692466818","0.1248439258","","","","","","","","","","","","","","72","H","0","img/none_selected.jpg","","38","main_expt",""
"","bandit","118","437153","0.0-80.0-0.0","68140038","wem/bandit_party_1","A3JTDNRJYVCGQD","either","6","191","","","","","","","0","0","1","0.06150360576","","0.2","0.8","0.6","0.4","","","","","0.1783178102","0.1888903691","0.06150360576","0.1192858938","","","","","","","","","","75","K","2","","","39","main_expt",""
"","bandit","119","438875","0.0-81.0-0.0","68140038","wem/bandit_party_1","A3JTDNRJYVCGQD","either","6","210","","","","","","","0","0","1","0.1457630933","","0.2","0.8","0.6","0.4","","","","","0.1354267005","0.1769314034","0.1025324214","0.1457630933","","","","","","","","","","76","L","3","","","40","main_expt",""
"","bandit","120","440649","0.0-82.0-0.0","68140038","wem/bandit_party_1","A3JTDNRJYVCGQD","either","6","256","","","","","","","0","0","1","0.1788887836","","0.2","0.8","0.6","0.4","","","","","0.1307301687","0.1764673912","0.1278282258","0.1788887836","","","","","","","","","","76","L","3","","","41","main_expt",""
"","bandit","121","442442","0.0-83.0-0.0","68140038","wem/bandit_party_1","A3JTDNRJYVCGQD","either","6","275","","","","","","","0","0","1","0.1144783829","","0.2","0.8","0.6","0.4","","","","","0.1002459791","0.1164002711","0.1144783829","0.1550439797","","","","","","","","","","75","K","2","","","42","main_expt",""
"","bandit","122","444136","0.0-84.0-0.0","68140038","wem/bandit_party_1","A3JTDNRJYVCGQD","either","6","189","","","","","","","0","0","1","0.1248357276","","0.2","0.8","0.6","0.4","","","","","0.06131682752","0.1248357276","0.148274456","0.1624336935","","","","","","","","","","74","J","1","","","43","main_expt",""
"","bandit","123","445909","0.0-85.0-0.0","68140038","wem/bandit_party_1","A3JTDNRJYVCGQD","either","6","267","","","","","","","0","0","1","0.1801883524","","0.2","0.8","0.6","0.4","","","","","0.05757194937","0.1801883524","0.1733993608","0.2610419313","","","","","","","","","","74","J","1","","","44","main_expt",""
"","bandit","124","447620","0.0-86.0-0.0","68140038","wem/bandit_party_1","A3JTDNRJYVCGQD","either","6","203","","","","","","","0","0","1","","0.06317169253","0.2","0.8","0.6","0.4","0.06317169253","0.1536252234","0.1731137141","0.2547096211","","","","","","","","","","","","","","72","H","0","img/none_selected.jpg","","45","main_expt",""
"","bandit","125","449375","0.0-87.0-0.0","68140038","wem/bandit_party_1","A3JTDNRJYVCGQD","either","6","248","","","","","","","0","0","1","","0.08604650327","0.2","0.8","0.6","0.4","0.08604650327","0.1453657368","0.2577534017","0.2690630982","","","","","","","","","","","","","","72","H","0","img/none_selected.jpg","","46","main_expt",""
"","bandit","126","451166","0.0-88.0-0.0","68140038","wem/bandit_party_1","A3JTDNRJYVCGQD","either","6","281","","","","","","","0","1","0","","0.07503215105","0.2","0.8","0.6","0.4","0.07503215105","0.1163474927","0.2436059896","0.2613787364","","","","","","","","","","","","","","72","H","0","img/none_selected.jpg","","47","main_expt",""
"","bandit","127","453025","0.0-89.0-0.0","68140038","wem/bandit_party_1","A3JTDNRJYVCGQD","either","6","348","","","","","","","0","1","0","","0.09661626413","0.2","0.8","0.6","0.4","0.09661626413","0.1187671899","0.261356988","0.2764851171","","","","","","","","","","","","","","72","H","0","img/none_selected.jpg","","48","main_expt",""
"","bandit","128","454851","0.0-90.0-0.0","68140038","wem/bandit_party_1","A3JTDNRJYVCGQD","either","6","309","","","","","","","0","0","1","","0.141419135","0.2","0.8","0.6","0.4","0.141419135","0.1321787199","0.2707362224","0.2628846066","","","","","","","","","","","","","","72","H","0","img/none_selected.jpg","","49","main_expt",""
"","bandit","129","456656","0.0-91.0-0.0","68140038","wem/bandit_party_1","A3JTDNRJYVCGQD","either","6","298","","","","","","","0","0","1","","0.1341637883","0.2","0.8","0.6","0.4","0.1341637883","0.1310663867","0.2733601765","0.3634831931","","","","","","","","","","","","","","72","H","0","img/none_selected.jpg","","50","main_expt",""
"","bandit","130","458396","0.0-92.0-0.0","68140038","wem/bandit_party_1","A3JTDNRJYVCGQD","either","6","233","","","","","","","0","0","1","0.1450472339","","0.2","0.8","0.6","0.4","","","","","0.1225974466","0.1450472339","0.2590969561","0.3771608335","","","","","","","","","","74","J","1","","","51","main_expt",""
"","bandit","131","459988","0.0-93.0-0.0","68140038","wem/bandit_party_1","A3JTDNRJYVCGQD","either","6","79","","","","","","","0","0","1","0.2515646212","","0.2","0.8","0.6","0.4","","","","","0.1145468474","0.1731775471","0.2515646212","0.3093307572","","","","","","","","","","75","K","2","","","52","main_expt",""
"","bandit","132","461748","0.0-94.0-0.0","68140038","wem/bandit_party_1","A3JTDNRJYVCGQD","either","6","254","","","","","","","0","0","1","","0.2990929044","0.2","0.8","0.6","0.4","0.1059564611","0.2258016315","0.2257746054","0.2990929044","","","","","","","","","","","","","","76","L","3","","","53","main_expt",""
"","bandit","133","463473","0.0-95.0-0.0","68140038","wem/bandit_party_1","A3JTDNRJYVCGQD","either","6","218","","","","","","","0","0","1","0.2172527187","","0.2","0.8","0.6","0.4","","","","","0.1090017536","0.2172527187","0.2750925763","0.2221679908","","","","","","","","","","74","J","1","","","54","main_expt",""
"","bandit","134","465222","0.0-96.0-0.0","68140038","wem/bandit_party_1","A3JTDNRJYVCGQD","either","6","235","","","","","","","0","0","1","","0.1249444004","0.2","0.8","0.6","0.4","0.1249444004","0.1652356872","0.3608357377","0.1886471815","","","","","","","","","","","","","","72","H","0","img/none_selected.jpg","","55","main_expt",""
"","bandit","135","467014","0.0-97.0-0.0","68140038","wem/bandit_party_1","A3JTDNRJYVCGQD","either","6","284","","","","","","","0","0","1","","0.09043885587","0.2","0.8","0.6","0.4","0.09043885587","0.1576418272","0.4022545085","0.1973213641","","","","","","","","","","","","","","72","H","0","img/none_selected.jpg","","56","main_expt",""
"","bandit","136","468667","0.0-98.0-0.0","68140038","wem/bandit_party_1","A3JTDNRJYVCGQD","either","6","144","","","","","","","0","0","1","","0.180776926","0.2","0.8","0.6","0.4","0.07448640425","0.180776926","0.3867568464","0.2207101474","","","","","","","","","","","","","","74","J","1","","","57","main_expt",""
"","bandit","137","470528","0.0-99.0-0.0","68140038","wem/bandit_party_1","A3JTDNRJYVCGQD","either","6","353","","","","","","","0","0","1","0.1489081552","","0.2","0.8","0.6","0.4","","","","","0.09808879237","0.1489081552","0.3840355114","0.2480089655","","","","","","","","","","74","J","1","","","58","main_expt",""
"","bandit","138","472190","0.0-100.0-0.0","68140038","wem/bandit_party_1","A3JTDNRJYVCGQD","either","6","151","","","","","","","0","0","1","","0.3617876187","0.2","0.8","0.6","0.4","0.0721355853","0.125555473","0.3617876187","0.2667579505","","","","","","","","","","","","","","75","K","2","","","59","main_expt",""
"","bandit","139","474017","0.0-101.0-0.0","68140038","wem/bandit_party_1","A3JTDNRJYVCGQD","either","6","318","","","","","","","1","0","0","0.3018070945","","0.2","0.8","0.6","0.4","","","","","0.08871326978","0.1228814318","0.3018070945","0.2637313595","","","","","","","","","","75","K","2","","","60","main_expt",""
"","bandit","140","475865","0.0-102.0-0.0","68140038","wem/bandit_party_1","A3JTDNRJYVCGQD","either","6","332","","","","","","","0","0","1","","0.2687465691","0.2","0.8","0.6","0.4","0.1472383223","0.195834737","0.2687465691","0.2400462537","","","","","","","","","","","","","","75","K","2","","","61","main_expt",""
"","bandit","141","477607","0.0-103.0-0.0","68140038","wem/bandit_party_1","A3JTDNRJYVCGQD","either","6","226","","","","","","","1","0","0","0.287622952","","0.2","0.8","0.6","0.4","","","","","0.1625866577","0.1952904108","0.287622952","0.2396546157","","","","","","","","","","75","K","2","","","62","main_expt",""
"","bandit","142","479388","0.0-104.0-0.0","68140038","wem/bandit_party_1","A3JTDNRJYVCGQD","either","6","264","","","","","","","0","0","1","0.2060093557","","0.2","0.8","0.6","0.4","","","","","0.1196153378","0.187392073","0.2060093557","0.2558687718","","","","","","","","","","75","K","2","","","63","main_expt",""
"","bandit","143","481101","0.0-105.0-0.0","68140038","wem/bandit_party_1","A3JTDNRJYVCGQD","either","6","197","","","","","","","1","0","0","0.1865830226","","0.2","0.8","0.6","0.4","","","","","0.1025290435","0.1774517964","0.1865830226","0.1789331692","","","","","","","","","","75","K","2","","","64","main_expt",""
"","bandit","144","482935","0.0-106.0-0.0","68140038","wem/bandit_party_1","A3JTDNRJYVCGQD","either","6","321","","","","","","","0","0","1","","0.2242960511","0.2","0.8","0.6","0.4","0.06637487434","0.1956590225","0.2242960511","0.2041721298","","","","","","","","","","","","","","75","K","2","","","65","main_expt",""
"","bandit","145","484698","0.0-107.0-0.0","68140038","wem/bandit_party_1","A3JTDNRJYVCGQD","either","6","239","","","","","","","0","0","1","","0.213739571","0.2","0.8","0.6","0.4","0.09888809835","0.1559932489","0.213739571","0.1083731131","","","","","","","","","","","","","","75","K","2","","","66","main_expt",""
"","bandit","146","486586","0.0-108.0-0.0","68140038","wem/bandit_party_1","A3JTDNRJYVCGQD","either","6","366","","","","","","","0","0","1","","0.08148965902","0.2","0.8","0.6","0.4","0.08542348091","0.1327283285","0.2463093088","0.08148965902","","","","","","","","","","","","","","76","L","3","","","67","main_expt",""
"","bandit","147","488543","0.0-109.0-0.0","68140038","wem/bandit_party_1","A3JTDNRJYVCGQD","either","6","445","","","","","","","0","0","1","","0.115871946","0.2","0.8","0.6","0.4","0.05648132023","0.1646421129","0.1863602012","0.115871946","","","","","","","","","","","","","","76","L","3","","","68","main_expt",""
"","bandit","148","490294","0.0-110.0-0.0","68140038","wem/bandit_party_1","A3JTDNRJYVCGQD","either","6","230","","","","","","","0","0","1","0.1879918005","","0.2","0.8","0.6","0.4","","","","","0.07427448495","0.1879918005","0.1481768435","0.1049465522","","","","","","","","","","74","J","1","","","69","main_expt",""
"","bandit","149","492028","0.0-111.0-0.0","68140038","wem/bandit_party_1","A3JTDNRJYVCGQD","either","6","217","","","","","","","0","0","1","","0.1052870039","0.2","0.8","0.6","0.4","0.1052870039","0.1708527721","0.2062415021","0.1224614501","","","","","","","","","","","","","","72","H","0","img/none_selected.jpg","","70","main_expt",""
"","bandit","150","493837","0.0-112.0-0.0","68140038","wem/bandit_party_1","A3JTDNRJYVCGQD","either","6","292","","","","","","","0","0","1","","0.1114501371","0.2","0.8","0.6","0.4","0.1114501371","0.1930923514","0.2175562698","0.1687358413","","","","","","","","","","","","","","72","H","0","img/none_selected.jpg","","71","main_expt",""
"","bandit","151","495528","0.0-113.0-0.0","68140038","wem/bandit_party_1","A3JTDNRJYVCGQD","either","6","182","","","","","","","1","0","0","0.2289396243","","0.2","0.8","0.6","0.4","","","","","0.1282799478","0.2289396243","0.2182173038","0.1902964731","","","","","","","","","","74","J","1","","","72","main_expt",""
"","bandit","152","497319","0.0-114.0-0.0","68140038","wem/bandit_party_1","A3JTDNRJYVCGQD","either","6","284","","","","","","","0","0","1","0.2223781067","","0.2","0.8","0.6","0.4","","","","","0.1113050996","0.2223781067","0.1629952044","0.1764690901","","","","","","","","","","74","J","1","","","73","main_expt",""
"","bandit","153","498988","0.0-115.0-0.0","68140038","wem/bandit_party_1","A3JTDNRJYVCGQD","either","6","161","","","","","","","1","0","0","0.1664819569","","0.2","0.8","0.6","0.4","","","","","0.1573287606","0.1664819569","0.2291178652","0.1720288853","","","","","","","","","","74","J","1","","","74","main_expt",""
"","bandit","154","500760","0.0-116.0-0.0","68140038","wem/bandit_party_1","A3JTDNRJYVCGQD","either","6","261","","","","","","","1","0","0","0.1157276324","","0.2","0.8","0.6","0.4","","","","","0.168318459","0.1157276324","0.2087405931","0.098780463","","","","","","","","","","74","J","1","","","75","main_expt",""
"","bandit","155","502512","0.0-117.0-0.0","68140038","wem/bandit_party_1","A3JTDNRJYVCGQD","either","6","242","","","","","","","0","0","1","0.06912044911","","0.2","0.8","0.6","0.4","","","","","0.131742089","0.06912044911","0.1981976751","0.08192786134","","","","","","","","","","74","J","1","","","76","main_expt",""
"","bandit","156","504241","0.0-118.0-0.0","68140038","wem/bandit_party_1","A3JTDNRJYVCGQD","either","6","217","","","","","","","0","0","1","0.06151132513","","0.2","0.8","0.6","0.4","","","","","0.1382621175","0.06151132513","0.2302368041","0.03620126105","","","","","","","","","","74","J","1","","","77","main_expt",""
"","bandit","157","506185","0.0-119.0-0.0","68140038","wem/bandit_party_1","A3JTDNRJYVCGQD","either","6","437","","","","","","","0","0","1","","0.2538269909","0.2","0.8","0.6","0.4","0.1351161864","0.08824794056","0.2538269909","0.03362754592","","","","","","","","","","","","","","75","K","2","","","78","main_expt",""
"","bandit","158","507971","0.0-120.0-0.0","68140038","wem/bandit_party_1","A3JTDNRJYVCGQD","either","6","276","","","","","","","0","0","1","","0.221492582","0.2","0.8","0.6","0.4","0.1125986002","0.08425003046","0.221492582","0.03917851348","","","","","","","","","","","","","","75","K","2","","","79","main_expt",""
"","bandit","159","509778","0.0-121.0-0.0","68140038","wem/bandit_party_1","A3JTDNRJYVCGQD","either","6","295","","","","","","","0","0","1","0.06916691586","","0.2","0.8","0.6","0.4","","","","","0.1071358869","0.1059393704","0.2126184008","0.06916691586","","","","","","","","","","76","L","3","","","80","main_expt",""
"","bandit","160","511528","0.0-122.0-0.0","68140038","wem/bandit_party_1","A3JTDNRJYVCGQD","either","6","229","","","","","","","0","0","1","0.1110223174","","0.2","0.8","0.6","0.4","","","","","0.1410751298","0.114990546","0.1803612399","0.1110223174","","","","","","","","","","76","L","3","","","81","main_expt",""
"","bandit","161","513122","0.0-123.0-0.0","68140038","wem/bandit_party_1","A3JTDNRJYVCGQD","either","6","78","","","","","","","0","0","1","0.1246300745","","0.2","0.8","0.6","0.4","","","","","0.1518454263","0.1246300745","0.1883980103","0.08899533144","","","","","","","","","","74","J","1","","","82","main_expt",""
"","bandit","162","514910","0.0-124.0-0.0","68140038","wem/bandit_party_1","A3JTDNRJYVCGQD","either","6","275","","","","","","","0","0","1","0.1285150734","","0.2","0.8","0.6","0.4","","","","","0.1285150734","0.1523433176","0.2099895667","0.1383499545","","","","","","","","","","72","H","0","img/none_selected.jpg","","83","main_expt",""
"","bandit","163","516682","0.0-125.0-0.0","68140038","wem/bandit_party_1","A3JTDNRJYVCGQD","either","6","263","","","","","","","0","0","1","0.1083679187","","0.2","0.8","0.6","0.4","","","","","0.1083679187","0.1230513595","0.1760666055","0.1815119679","","","","","","","","","","72","H","0","img/none_selected.jpg","","84","main_expt",""
"","bandit","164","518216","0.0-126.0-0.0","68140038","wem/bandit_party_1","A3JTDNRJYVCGQD","either","6","9","","","","","","","0","0","1","0.1460595132","","0.2","0.8","0.6","0.4","","","","","0.08985983991","0.1460595132","0.2077415988","0.2121304898","","","","","","","","","","74","J","1","","","85","main_expt",""
"","bandit","165","519917","0.0-127.0-0.0","68140038","wem/bandit_party_1","A3JTDNRJYVCGQD","either","6","185","","","","","","","1","0","0","0.1578730034","","0.2","0.8","0.6","0.4","","","","","0.08377758623","0.1578730034","0.1940704576","0.1931166697","","","","","","","","","","74","J","1","","","86","main_expt",""
"","bandit","166","521722","0.0-128.0-0.0","68140038","wem/bandit_party_1","A3JTDNRJYVCGQD","either","6","286","","","","","","","0","0","1","","0.1329566931","0.2","0.8","0.6","0.4","0.08340742779","0.1329566931","0.1920524506","0.1908876969","","","","","","","","","","","","","","74","J","1","","","87","main_expt",""
"","bandit","167","523741","0.0-129.0-0.0","68140038","wem/bandit_party_1","A3JTDNRJYVCGQD","either","6","504","","","","","","","0","0","1","","0.1156353122","0.2","0.8","0.6","0.4","0.06937011617","0.1156353122","0.2525081946","0.1727332377","","","","","","","","","","","","","","74","J","1","","","88","main_expt",""
"","bandit","168","525498","0.0-130.0-0.0","68140038","wem/bandit_party_1","A3JTDNRJYVCGQD","either","6","249","","","","","","","0","0","1","0.1169245856","","0.2","0.8","0.6","0.4","","","","","0.08556693901","0.1169245856","0.2476280913","0.1747664758","","","","","","","","","","74","J","1","","","89","main_expt",""
"","bandit","169","527226","0.0-131.0-0.0","68140038","wem/bandit_party_1","A3JTDNRJYVCGQD","either","6","218","","","","","","","0","0","1","0.1013294801","","0.2","0.8","0.6","0.4","","","","","0.1013294801","0.1276927611","0.2476417222","0.1302891894","","","","","","","","","","72","H","0","img/none_selected.jpg","","90","main_expt",""
"","bandit","170","529009","0.0-132.0-0.0","68140038","wem/bandit_party_1","A3JTDNRJYVCGQD","either","6","272","","","","","","","0","0","1","","0.1567130635","0.2","0.8","0.6","0.4","0.1567130635","0.1633868825","0.1875867431","0.1143331172","","","","","","","","","","","","","","72","H","0","img/none_selected.jpg","","91","main_expt",""
"","bandit","171","530813","0.0-133.0-0.0","68140038","wem/bandit_party_1","A3JTDNRJYVCGQD","either","6","283","","","","","","","0","0","1","0.1804963823","","0.2","0.8","0.6","0.4","","","","","0.1214255195","0.2172033847","0.1804963823","0.1674068059","","","","","","","","","","75","K","2","","","92","main_expt",""
"","bandit","172","532617","0.0-134.0-0.0","68140038","wem/bandit_party_1","A3JTDNRJYVCGQD","either","6","282","","","","","","","0","0","1","0.1468121695","","0.2","0.8","0.6","0.4","","","","","0.1317465968","0.2178255547","0.1468121695","0.1405005834","","","","","","","","","","75","K","2","","","93","main_expt",""
"","bandit","173","534418","0.0-135.0-0.0","68140038","wem/bandit_party_1","A3JTDNRJYVCGQD","either","6","264","","","","","","","1","0","0","0.1270151289","","0.2","0.8","0.6","0.4","","","","","0.1810196293","0.2058786334","0.1270151289","0.1338278818","","","","","","","","","","75","K","2","","","94","main_expt",""
"","bandit","174","536236","0.0-136.0-0.0","68140038","wem/bandit_party_1","A3JTDNRJYVCGQD","either","6","303","","","","","","","0","0","1","0.1049494322","","0.2","0.8","0.6","0.4","","","","","0.1537803575","0.2009860572","0.1049494322","0.16416917","","","","","","","","","","75","K","2","","","95","main_expt",""
"","bandit","175","537923","0.0-137.0-0.0","68140038","wem/bandit_party_1","A3JTDNRJYVCGQD","either","6","168","","","","","","","0","0","1","0.1242023773","","0.2","0.8","0.6","0.4","","","","","0.2255368078","0.2792576191","0.1242023773","0.1075549125","","","","","","","","","","75","K","2","","","96","main_expt",""
"","bandit","176","539696","0.0-138.0-0.0","68140038","wem/bandit_party_1","A3JTDNRJYVCGQD","either","6","249","","","","","","","0","0","1","0.101802889","","0.2","0.8","0.6","0.4","","","","","0.1881791955","0.291042229","0.101802889","0.07285617598","","","","","","","","","","75","K","2","","","97","main_expt",""
"","bandit","177","541548","0.0-139.0-0.0","68140038","wem/bandit_party_1","A3JTDNRJYVCGQD","either","6","327","","","","","","","1","0","0","0.1128802937","","0.2","0.8","0.6","0.4","","","","","0.1722186849","0.2919937097","0.08559904752","0.1128802937","","","","","","","","","","76","L","3","","","98","main_expt",""
"","bandit","178","543327","0.0-140.0-0.0","68140038","wem/bandit_party_1","A3JTDNRJYVCGQD","either","6","268","","","","","","","0","0","1","","0.07338875894","0.2","0.8","0.6","0.4","0.2581810796","0.338066437","0.04480153982","0.07338875894","","","","","","","","","","","","","","76","L","3","","","99","main_expt",""
"","bandit","179","545125","0.0-141.0-0.0","68140038","wem/bandit_party_1","A3JTDNRJYVCGQD","either","6","286","","","","","","","0","0","1","","0.06256672301","0.2","0.8","0.6","0.4","0.3094702251","0.3466775547","0.03694367041","0.06256672301","","","","","","","","","","","","","","76","L","3","","","100","main_expt",""
"","bandit","180","547034","0.0-142.0-0.0","68140038","wem/bandit_party_1","A3JTDNRJYVCGQD","either","6","397","","","","","","","0","0","1","","0.06765033746","0.2","0.8","0.6","0.4","0.3217449289","0.3776837944","0.02534596886","0.06765033746","","","","","","","","","","","","","","76","L","3","","","101","main_expt",""
"","bandit","181","548788","0.0-143.0-0.0","68140038","wem/bandit_party_1","A3JTDNRJYVCGQD","either","6","246","","","","","","","0","0","1","0.08460413752","","0.2","0.8","0.6","0.4","","","","","0.3656493725","0.3988278911","0.03456503798","0.08460413752","","","","","","","","","","76","L","3","","","102","main_expt",""
"","bandit","182","550535","0.0-144.0-0.0","68140038","wem/bandit_party_1","A3JTDNRJYVCGQD","either","6","234","","","","","","","0","0","1","","0.03116272615","0.2","0.8","0.6","0.4","0.4097417878","0.3642388176","0.03116272615","0.1149622558","","","","","","","","","","","","","","75","K","2","","","103","main_expt",""
"","bandit","183","552449","0.0-145.0-0.0","68140038","wem/bandit_party_1","A3JTDNRJYVCGQD","either","6","404","","","","","","","0","0","1","","0.04034009898","0.2","0.8","0.6","0.4","0.4005896235","0.3059376685","0.04034009898","0.1223821921","","","","","","","","","","","","","","75","K","2","","","104","main_expt",""
"","bandit","184","554054","0.0-146.0-0.0","68140038","wem/bandit_party_1","A3JTDNRJYVCGQD","either","6","85","","","","","","","1","0","0","0.2658022239","","0.2","0.8","0.6","0.4","","","","","0.3967946647","0.2658022239","0.06132200156","0.1302837569","","","","","","","","","","74","J","1","","","105","main_expt",""
"","bandit","185","555870","0.0-147.0-0.0","68140038","wem/bandit_party_1","A3JTDNRJYVCGQD","either","6","286","","","","","","","1","0","0","0.2583534607","","0.2","0.8","0.6","0.4","","","","","0.3920329447","0.2583534607","0.03171667797","0.1405927316","","","","","","","","","","74","J","1","","","106","main_expt",""
"","bandit","186","557590","0.0-148.0-0.0","68140038","wem/bandit_party_1","A3JTDNRJYVCGQD","either","6","209","","","","","","","1","0","0","0.2402432731","","0.2","0.8","0.6","0.4","","","","","0.3973329777","0.2402432731","0.06603394544","0.1835021143","","","","","","","","","","74","J","1","","","107","main_expt",""
"","bandit","187","559381","0.0-149.0-0.0","68140038","wem/bandit_party_1","A3JTDNRJYVCGQD","either","6","272","","","","","","","0","0","1","0.2364509509","","0.2","0.8","0.6","0.4","","","","","0.3839010997","0.2364509509","0.08137973005","0.2124513917","","","","","","","","","","74","J","1","","","108","main_expt",""
"","bandit","188","561209","0.0-150.0-0.0","68140038","wem/bandit_party_1","A3JTDNRJYVCGQD","either","6","305","","","","","","","0","1","0","","0.2164051194","0.2","0.8","0.6","0.4","0.3879107289","0.2164051194","0.04765661509","0.218007314","","","","","","","","","","","","","","74","J","1","","","109","main_expt",""
"","bandit","189","562985","0.0-151.0-0.0","68140038","wem/bandit_party_1","A3JTDNRJYVCGQD","either","6","259","","","","","","","0","0","1","","0.1611838666","0.2","0.8","0.6","0.4","0.3989855113","0.1611838666","0.06789381979","0.229469423","","","","","","","","","","","","","","74","J","1","","","110","main_expt",""
"","bandit","190","564766","0.0-152.0-0.0","68140038","wem/bandit_party_1","A3JTDNRJYVCGQD","either","6","258","","","","","","","0","0","1","0.2042622235","","0.2","0.8","0.6","0.4","","","","","0.3959495959","0.2042622235","0.08972795074","0.2923436213","","","","","","","","","","74","J","1","","","111","main_expt",""
"","bandit","191","566528","0.0-153.0-0.0","68140038","wem/bandit_party_1","A3JTDNRJYVCGQD","either","6","245","","","","","","","0","0","1","0.2113733305","","0.2","0.8","0.6","0.4","","","","","0.335596647","0.2113733305","0.1176683061","0.2778802509","","","","","","","","","","74","J","1","","","112","main_expt",""
"","bandit","192","568320","0.0-154.0-0.0","68140038","wem/bandit_party_1","A3JTDNRJYVCGQD","either","6","272","","","","","","","0","0","1","0.220236308","","0.2","0.8","0.6","0.4","","","","","0.2876347753","0.220236308","0.1973953549","0.2852166322","","","","","","","","","","74","J","1","","","113","main_expt",""
"","bandit","193","570066","0.0-155.0-0.0","68140038","wem/bandit_party_1","A3JTDNRJYVCGQD","either","6","234","","","","","","","0","0","1","","0.2811359795","0.2","0.8","0.6","0.4","0.2811359795","0.2453392608","0.200840576","0.3222351196","","","","","","","","","","","","","","72","H","0","img/none_selected.jpg","","114","main_expt",""
"","bandit","194","571889","0.0-156.0-0.0","68140038","wem/bandit_party_1","A3JTDNRJYVCGQD","either","6","309","","","","","","","0","0","1","","0.2056035349","0.2","0.8","0.6","0.4","0.2056035349","0.2311931225","0.2544006126","0.2865303103","","","","","","","","","","","","","","72","H","0","img/none_selected.jpg","","115","main_expt",""
"","bandit","195","573652","0.0-157.0-0.0","68140038","wem/bandit_party_1","A3JTDNRJYVCGQD","either","6","248","","","","","","","0","0","1","0.2435386161","","0.2","0.8","0.6","0.4","","","","","0.2435386161","0.2290532582","0.2264812366","0.1901772154","","","","","","","","","","72","H","0","img/none_selected.jpg","","116","main_expt",""
"","bandit","196","575360","0.0-158.0-0.0","68140038","wem/bandit_party_1","A3JTDNRJYVCGQD","either","6","193","","","","","","","0","1","0","","0.2535822563","0.2","0.8","0.6","0.4","0.2523066444","0.2610634121","0.2535822563","0.1854727963","","","","","","","","","","","","","","75","K","2","","","117","main_expt",""
"","bandit","197","577179","0.0-159.0-0.0","68140038","wem/bandit_party_1","A3JTDNRJYVCGQD","either","6","312","","","","","","","0","0","1","","0.288462609","0.2","0.8","0.6","0.4","0.258758296","0.2915584027","0.288462609","0.223078523","","","","","","","","","","","","","","75","K","2","","","118","main_expt",""
"","bandit","198","579026","0.0-160.0-0.0","68140038","wem/bandit_party_1","A3JTDNRJYVCGQD","either","6","337","","","","","","","0","1","0","","0.3077733757","0.2","0.8","0.6","0.4","0.2513882557","0.3240034744","0.3077733757","0.2157898803","","","","","","","","","","","","","","75","K","2","","","119","main_expt",""
"","bandit","199","580873","0.0-161.0-0.0","68140038","wem/bandit_party_1","A3JTDNRJYVCGQD","either","6","340","","","","","","","1","0","0","0.3470363664","","0.2","0.8","0.6","0.4","","","","","0.2178230887","0.3584552205","0.3470363664","0.2055853597","","","","","","","","","","75","K","2","","","120","main_expt",""
"","bandit","200","582710","0.0-162.0-0.0","68140038","wem/bandit_party_1","A3JTDNRJYVCGQD","either","6","328","","","","","","","0","1","0","","0.36369082","0.2","0.8","0.6","0.4","0.2249913612","0.3392259721","0.36369082","0.2308362602","","","","","","","","","","","","","","75","K","2","","","121","main_expt",""
"","bandit","201","584490","0.0-163.0-0.0","68140038","wem/bandit_party_1","A3JTDNRJYVCGQD","either","6","270","","","","","","","1","0","0","0.3740977319","","0.2","0.8","0.6","0.4","","","","","0.2135386538","0.3211990091","0.3740977319","0.1858821776","","","","","","","","","","75","K","2","","","122","main_expt",""
"","bandit","202","586292","0.0-164.0-0.0","68140038","wem/bandit_party_1","A3JTDNRJYVCGQD","either","6","292","","","","","","","0","0","1","0.3617230251","","0.2","0.8","0.6","0.4","","","","","0.2742148462","0.3082515077","0.3617230251","0.1948645322","","","","","","","","","","75","K","2","","","123","main_expt",""
"","bandit","203","588053","0.0-165.0-0.0","68140038","wem/bandit_party_1","A3JTDNRJYVCGQD","either","6","250","","","","","","","0","0","1","0.3189133642","","0.2","0.8","0.6","0.4","","","","","0.3092488957","0.3337980485","0.3189133642","0.1875433284","","","","","","","","","","75","K","2","","","124","main_expt",""
"","bandit","204","589791","0.0-166.0-0.0","68140038","wem/bandit_party_1","A3JTDNRJYVCGQD","either","6","224","","","","","","","0","0","1","0.3134342975","","0.2","0.8","0.6","0.4","","","","","0.2832498899","0.2815584253","0.3134342975","0.1805360773","","","","","","","","","","75","K","2","","","125","main_expt",""
"","bandit","205","591458","0.0-167.0-0.0","68140038","wem/bandit_party_1","A3JTDNRJYVCGQD","either","6","145","","","","","","","0","0","1","0.2199741614","","0.2","0.8","0.6","0.4","","","","","0.321902755","0.2544389989","0.2889117865","0.2199741614","","","","","","","","","","76","L","3","","","126","main_expt",""
"","bandit","206","593264","0.0-168.0-0.0","68140038","wem/bandit_party_1","A3JTDNRJYVCGQD","either","6","286","","","","","","","0","0","1","","0.212963778","0.2","0.8","0.6","0.4","0.3163630435","0.217883989","0.3101500906","0.212963778","","","","","","","","","","","","","","76","L","3","","","127","main_expt",""
"","bandit","207","595065","0.0-169.0-0.0","68140038","wem/bandit_party_1","A3JTDNRJYVCGQD","either","6","277","","","","","","","0","0","1","","0.1941215274","0.2","0.8","0.6","0.4","0.3242789072","0.1941215274","0.3257933697","0.1853882534","","","","","","","","","","","","","","74","J","1","","","128","main_expt",""
"","bandit","208","596881","0.0-170.0-0.0","68140038","wem/bandit_party_1","A3JTDNRJYVCGQD","either","6","302","","","","","","","0","0","1","0.2093197904","","0.2","0.8","0.6","0.4","","","","","0.3430844202","0.2093197904","0.2767822115","0.1486900389","","","","","","","","","","74","J","1","","","129","main_expt",""
"","bandit","209","598454","0.0-171.0-0.0","68140038","wem/bandit_party_1","A3JTDNRJYVCGQD","either","6","61","","","","","","","0","0","1","","0.3487272729","0.2","0.8","0.6","0.4","0.3487272729","0.2325895014","0.3389859305","0.1581202816","","","","","","","","","","","","","","72","H","0","img/none_selected.jpg","","130","main_expt",""
"","bandit","210","600339","0.0-172.0-0.0","68140038","wem/bandit_party_1","A3JTDNRJYVCGQD","either","6","374","","","","","","","1","0","0","0.3850752379","","0.2","0.8","0.6","0.4","","","","","0.3850752379","0.2680880231","0.2807576759","0.1189605486","","","","","","","","","","72","H","0","img/none_selected.jpg","","131","main_expt",""
"","bandit","211","602161","0.0-173.0-0.0","68140038","wem/bandit_party_1","A3JTDNRJYVCGQD","either","6","312","","","","","","","0","1","0","","0.3547422913","0.2","0.8","0.6","0.4","0.3547422913","0.2053564998","0.2044414959","0.08638656351","","","","","","","","","","","","","","72","H","0","img/none_selected.jpg","","132","main_expt",""
"","bandit","212","604019","0.0-174.0-0.0","68140038","wem/bandit_party_1","A3JTDNRJYVCGQD","either","6","346","","","","","","","0","0","1","","0.3256782816","0.2","0.8","0.6","0.4","0.3256782816","0.2102644512","0.2352631215","0.104542274","","","","","","","","","","","","","","72","H","0","img/none_selected.jpg","","133","main_expt",""
"","bandit","213","605868","0.0-175.0-0.0","68140038","wem/bandit_party_1","A3JTDNRJYVCGQD","either","6","322","","","","","","","0","0","1","","0.2479378245","0.2","0.8","0.6","0.4","0.2479378245","0.2028105977","0.2808822736","0.1401790922","","","","","","","","","","","","","","72","H","0","img/none_selected.jpg","","134","main_expt",""
"","bandit","214","607590","0.0-176.0-0.0","68140038","wem/bandit_party_1","A3JTDNRJYVCGQD","either","6","201","","","","","","","0","0","1","0.3053704558","","0.2","0.8","0.6","0.4","","","","","0.24301602","0.1556880781","0.3053704558","0.1818128853","","","","","","","","","","75","K","2","","","135","main_expt",""
"","bandit","215","609115","0.0-177.0-0.0","68140038","wem/bandit_party_1","A3JTDNRJYVCGQD","either","6","1","","","","","","","0","0","1","0.1428421262","","0.2","0.8","0.6","0.4","","","","","0.2630427063","0.1428421262","0.3140058771","0.1583738081","","","","","","","","","","74","J","1","","","136","main_expt",""
"","bandit","216","610926","0.0-178.0-0.0","68140038","wem/bandit_party_1","A3JTDNRJYVCGQD","either","6","301","","","","","","","0","0","1","0.1497920091","","0.2","0.8","0.6","0.4","","","","","0.3053425806","0.1039390038","0.323699752","0.1497920091","","","","","","","","","","76","L","3","","","137","main_expt",""
"","bandit","217","612584","0.0-179.0-0.0","68140038","wem/bandit_party_1","A3JTDNRJYVCGQD","either","6","149","","","","","","","0","0","1","","0.3435108126","0.2","0.8","0.6","0.4","0.3588623722","0.07132433681","0.3435108126","0.1128601551","","","","","","","","","","","","","","75","K","2","","","138","main_expt",""
"","bandit","218","614441","0.0-180.0-0.0","68140038","wem/bandit_party_1","A3JTDNRJYVCGQD","either","6","338","","","","","","","0","0","1","","0.1047165976","0.2","0.8","0.6","0.4","0.2762704672","0.1047165976","0.3505637202","0.1073604677","","","","","","","","","","","","","","74","J","1","","","139","main_expt",""
"","bandit","219","616225","0.0-181.0-0.0","68140038","wem/bandit_party_1","A3JTDNRJYVCGQD","either","6","260","","","","","","","0","1","0","","0.2475753012","0.2","0.8","0.6","0.4","0.2475753012","0.09043849554","0.4185251601","0.1376710563","","","","","","","","","","","","","","72","H","0","img/none_selected.jpg","","140","main_expt",""
"","bandit","220","618047","0.0-182.0-0.0","68140038","wem/bandit_party_1","A3JTDNRJYVCGQD","either","6","303","","","","","","","0","0","1","","0.2436306075","0.2","0.8","0.6","0.4","0.2436306075","0.05096505815","0.4225289085","0.1412662962","","","","","","","","","","","","","","72","H","0","img/none_selected.jpg","","141","main_expt",""
"","bandit","221","619819","0.0-183.0-0.0","68140038","wem/bandit_party_1","A3JTDNRJYVCGQD","either","6","247","","","","","","","0","0","1","","0.1998899021","0.2","0.8","0.6","0.4","0.1998899021","0.02973759478","0.455259632","0.1543424817","","","","","","","","","","","","","","72","H","0","img/none_selected.jpg","","142","main_expt",""
"","bandit","222","621551","0.0-184.0-0.0","68140038","wem/bandit_party_1","A3JTDNRJYVCGQD","either","6","209","","","","","","","0","0","1","0.04457260366","","0.2","0.8","0.6","0.4","","","","","0.2568100034","0.04457260366","0.4287003803","0.1552636118","","","","","","","","","","74","J","1","","","143","main_expt",""
"","bandit","223","623323","0.0-185.0-0.0","68140038","wem/bandit_party_1","A3JTDNRJYVCGQD","either","6","253","","","","","","","0","0","1","0.04060115041","","0.2","0.8","0.6","0.4","","","","","0.2859833531","0.04060115041","0.4260506414","0.2241753426","","","","","","","","","","74","J","1","","","144","main_expt",""
"","bandit","224","625135","0.0-186.0-0.0","68140038","wem/bandit_party_1","A3JTDNRJYVCGQD","either","6","294","","","","","","","1","0","0","0.4202170594","","0.2","0.8","0.6","0.4","","","","","0.2080640158","0.06712401514","0.4202170594","0.2484131349","","","","","","","","","","75","K","2","","","145","main_expt",""
"","bandit","225","626940","0.0-187.0-0.0","68140038","wem/bandit_party_1","A3JTDNRJYVCGQD","either","6","295","","","","","","","0","0","1","0.4333226383","","0.2","0.8","0.6","0.4","","","","","0.2469639643","0.08780921534","0.4333226383","0.2905032103","","","","","","","","","","75","K","2","","","146","main_expt",""
"","bandit","226","628710","0.0-188.0-0.0","68140038","wem/bandit_party_1","A3JTDNRJYVCGQD","either","6","257","","","","","","","1","0","0","0.4340954059","","0.2","0.8","0.6","0.4","","","","","0.2169279296","0.1333368233","0.4340954059","0.2846703457","","","","","","","","","","75","K","2","","","147","main_expt",""
"","bandit","227","630508","0.0-189.0-0.0","68140038","wem/bandit_party_1","A3JTDNRJYVCGQD","either","6","286","","","","","","","0","0","1","","0.3903754431","0.2","0.8","0.6","0.4","0.1248284812","0.09264147873","0.3903754431","0.3010433131","","","","","","","","","","","","","","75","K","2","","","148","main_expt",""
"","bandit","228","632302","0.0-190.0-0.0","68140038","wem/bandit_party_1","A3JTDNRJYVCGQD","either","6","275","","","","","","","0","0","1","0.4161192262","","0.2","0.8","0.6","0.4","","","","","0.1498862571","0.123708687","0.4161192262","0.3421268102","","","","","","","","","","75","K","2","","","149","main_expt",""
"","bandit","229","634073","0.0-191.0-0.0","68140038","wem/bandit_party_1","A3JTDNRJYVCGQD","either","6","260","","","","","","","0","1","0","","0.4545257836","0.2","0.8","0.6","0.4","0.2044632824","0.1087811601","0.4545257836","0.3382865341","","","","","","","","","","","","","","75","K","2","","","150","main_expt",""
"","bandit","230","635960","0.0-192.0-0.0","68140038","wem/bandit_party_1","A3JTDNRJYVCGQD","either","6","372","","","","","","","0","0","1","","0.4553704948","0.2","0.8","0.6","0.4","0.1630699797","0.1640336927","0.4553704948","0.3031951358","","","","","","","","","","","","","","75","K","2","","","151","main_expt",""
"","bandit","231","637776","0.0-193.0-0.0","68140038","wem/bandit_party_1","A3JTDNRJYVCGQD","either","6","291","","","","","","","0","0","1","","0.4692720684","0.2","0.8","0.6","0.4","0.1534962237","0.1474195158","0.4692720684","0.3163498213","","","","","","","","","","","","","","75","K","2","","","152","main_expt",""
"","bandit","232","639785","0.0-194.0-0.0","68140038","wem/bandit_party_1","A3JTDNRJYVCGQD","either","6","482","","","","","","","1","0","0","0.4794448159","","0.2","0.8","0.6","0.4","","","","","0.1506701345","0.1200421148","0.4794448159","0.3205280093","","","","","","","","","","75","K","2","","","153","main_expt",""
"","bandit","233","641658","0.0-195.0-0.0","68140038","wem/bandit_party_1","A3JTDNRJYVCGQD","either","6","346","","","","","","","1","0","0","0.4762011242","","0.2","0.8","0.6","0.4","","","","","0.1810992197","0.1295208369","0.4762011242","0.2780981807","","","","","","","","","","75","K","2","","","154","main_expt",""
"","bandit","234","643453","0.0-196.0-0.0","68140038","wem/bandit_party_1","A3JTDNRJYVCGQD","either","6","273","","","","","","","1","0","0","0.4797315341","","0.2","0.8","0.6","0.4","","","","","0.2574031695","0.1189574303","0.4797315341","0.2543788853","","","","","","","","","","75","K","2","","","155","main_expt",""
"","bandit","235","645287","0.0-197.0-0.0","68140038","wem/bandit_party_1","A3JTDNRJYVCGQD","either","6","314","","","","","","","1","0","0","0.4815153028","","0.2","0.8","0.6","0.4","","","","","0.1838662476","0.1511338071","0.4815153028","0.2601772157","","","","","","","","","","75","K","2","","","156","main_expt",""
"","bandit","236","647139","0.0-198.0-0.0","68140038","wem/bandit_party_1","A3JTDNRJYVCGQD","either","6","341","","","","","","","0","0","1","0.4769669351","","0.2","0.8","0.6","0.4","","","","","0.1951262555","0.1494559257","0.4769669351","0.27050514","","","","","","","","","","75","K","2","","","157","main_expt",""
"","bandit","237","648861","0.0-199.0-0.0","68140038","wem/bandit_party_1","A3JTDNRJYVCGQD","either","6","216","","","","","","","0","0","1","","0.2912044809","0.2","0.8","0.6","0.4","0.1711173681","0.1398300683","0.4819637572","0.2912044809","","","","","","","","","","","","","","76","L","3","","","158","main_expt",""
"","bandit","238","650825","0.0-200.0-0.0","68140038","wem/bandit_party_1","A3JTDNRJYVCGQD","either","6","455","","","","","","","0","0","1","","0.2863852675","0.2","0.8","0.6","0.4","0.1262927185","0.1482700517","0.4802617926","0.2863852675","","","","","","","","","","","","","","76","L","3","","","159","main_expt",""
"","bandit","239","652544","0.0-201.0-0.0","68140038","wem/bandit_party_1","A3JTDNRJYVCGQD","either","6","210","","","","","","","0","0","1","0.4834703177","","0.2","0.8","0.6","0.4","","","","","0.1289005464","0.1327856751","0.4834703177","0.3188379944","","","","","","","","","","75","K","2","","","160","main_expt",""
"","bandit","240","654292","0.0-202.0-0.0","68140038","wem/bandit_party_1","A3JTDNRJYVCGQD","either","6","241","","","","","","","0","0","1","0.1936248495","","0.2","0.8","0.6","0.4","","","","","0.07062595825","0.1936248495","0.4783639554","0.3918259889","","","","","","","","","","74","J","1","","","161","main_expt",""
"","bandit","241","656117","0.0-203.0-0.0","68140038","wem/bandit_party_1","A3JTDNRJYVCGQD","either","6","316","","","","","","","0","0","1","0.1917288119","","0.2","0.8","0.6","0.4","","","","","0.08554885259","0.1917288119","0.4702379588","0.3825352776","","","","","","","","","","74","J","1","","","162","main_expt",""
"","bandit","242","657894","0.0-204.0-0.0","68140038","wem/bandit_party_1","A3JTDNRJYVCGQD","either","6","269","","","","","","","0","0","1","","0.05790820845","0.2","0.8","0.6","0.4","0.05790820845","0.2410074379","0.4761999765","0.3500114378","","","","","","","","","","","","","","72","H","0","img/none_selected.jpg","","163","main_expt",""
"","bandit","243","659682","0.0-205.0-0.0","68140038","wem/bandit_party_1","A3JTDNRJYVCGQD","either","6","280","","","","","","","0","0","1","","0.04744410613","0.2","0.8","0.6","0.4","0.04744410613","0.2717164652","0.4683988395","0.3138306729","","","","","","","","","","","","","","72","H","0","img/none_selected.jpg","","164","main_expt",""
"","bandit","244","661417","0.0-206.0-0.0","68140038","wem/bandit_party_1","A3JTDNRJYVCGQD","either","6","225","","","","","","","0","0","1","0.07721988326","","0.2","0.8","0.6","0.4","","","","","0.07721988326","0.3360488911","0.4594806004","0.3066591237","","","","","","","","","","72","H","0","img/none_selected.jpg","","165","main_expt",""
"","bandit","245","663169","0.0-207.0-0.0","68140038","wem/bandit_party_1","A3JTDNRJYVCGQD","either","6","240","","","","","","","0","0","1","0.3288768439","","0.2","0.8","0.6","0.4","","","","","0.09276645858","0.3288768439","0.4769271284","0.359337808","","","","","","","","","","74","J","1","","","166","main_expt",""
"","bandit","246","664933","0.0-208.0-0.0","68140038","wem/bandit_party_1","A3JTDNRJYVCGQD","either","6","251","","","","","","","0","0","1","","0.341079324","0.2","0.8","0.6","0.4","0.1092251717","0.341079324","0.4824675089","0.3888119778","","","","","","","","","","","","","","74","J","1","","","167","main_expt",""
"","bandit","247","666709","0.0-209.0-0.0","68140038","wem/bandit_party_1","A3JTDNRJYVCGQD","either","6","260","","","","","","","0","0","1","0.2972081376","","0.2","0.8","0.6","0.4","","","","","0.09704797424","0.2972081376","0.4731218304","0.3188253523","","","","","","","","","","74","J","1","","","168","main_expt",""
"","bandit","248","668550","0.0-210.0-0.0","68140038","wem/bandit_party_1","A3JTDNRJYVCGQD","either","6","320","","","","","","","0","0","1","0.4558692975","","0.2","0.8","0.6","0.4","","","","","0.1131958007","0.2716537329","0.4558692975","0.3035082617","","","","","","","","","","75","K","2","","","169","main_expt",""
"","bandit","249","670325","0.0-211.0-0.0","68140038","wem/bandit_party_1","A3JTDNRJYVCGQD","either","6","263","","","","","","","0","0","1","0.424927817","","0.2","0.8","0.6","0.4","","","","","0.1636150477","0.3705489528","0.424927817","0.3540810543","","","","","","","","","","75","K","2","","","170","main_expt",""
"","bandit","250","672151","0.0-212.0-0.0","68140038","wem/bandit_party_1","A3JTDNRJYVCGQD","either","6","315","","","","","","","0","0","1","0.4254050478","","0.2","0.8","0.6","0.4","","","","","0.1889182236","0.3259531709","0.4254050478","0.2912941695","","","","","","","","","","75","K","2","","","171","main_expt",""
"","bandit","251","673942","0.0-213.0-0.0","68140038","wem/bandit_party_1","A3JTDNRJYVCGQD","either","6","278","","","","","","","0","0","1","0.2964718019","","0.2","0.8","0.6","0.4","","","","","0.1494540944","0.3253578443","0.4319935488","0.2964718019","","","","","","","","","","76","L","3","","","172","main_expt",""
"","bandit","252","675739","0.0-214.0-0.0","68140038","wem/bandit_party_1","A3JTDNRJYVCGQD","either","6","273","","","","","","","0","1","0","","0.2411205861","0.2","0.8","0.6","0.4","0.1700291406","0.3133285256","0.4157756128","0.2411205861","","","","","","","","","","","","","","76","L","3","","","173","main_expt",""
"","bandit","253","677581","0.0-215.0-0.0","68140038","wem/bandit_party_1","A3JTDNRJYVCGQD","either","6","328","","","","","","","0","0","1","","0.2132737127","0.2","0.8","0.6","0.4","0.2007600912","0.3470844982","0.3650518631","0.2132737127","","","","","","","","","","","","","","76","L","3","","","174","main_expt",""
"","bandit","254","679463","0.0-216.0-0.0","68140038","wem/bandit_party_1","A3JTDNRJYVCGQD","either","6","354","","","","","","","0","0","1","","0.2722172758","0.2","0.8","0.6","0.4","0.1613291475","0.3615725976","0.3583375904","0.2722172758","","","","","","","","","","","","","","76","L","3","","","175","main_expt",""
"","bandit","255","681405","0.0-217.0-0.0","68140038","wem/bandit_party_1","A3JTDNRJYVCGQD","either","6","411","","","","","","","0","0","1","","0.3158297255","0.2","0.8","0.6","0.4","0.1618540135","0.3592449917","0.3849487833","0.3158297255","","","","","","","","","","","","","","76","L","3","","","176","main_expt",""
"","bandit","256","683124","0.0-218.0-0.0","68140038","wem/bandit_party_1","A3JTDNRJYVCGQD","either","6","209","","","","","","","0","1","0","","0.1337509382","0.2","0.8","0.6","0.4","0.1337509382","0.3614776984","0.3741193846","0.3033070912","","","","","","","","","","","","","","72","H","0","img/none_selected.jpg","","177","main_expt",""
"","bandit","257","684917","0.0-219.0-0.0","68140038","wem/bandit_party_1","A3JTDNRJYVCGQD","either","6","277","","","","","","","0","0","1","","0.172909152","0.2","0.8","0.6","0.4","0.172909152","0.4042649322","0.3704436283","0.3070990366","","","","","","","","","","","","","","72","H","0","img/none_selected.jpg","","178","main_expt",""
"","bandit","258","686671","0.0-220.0-0.0","68140038","wem/bandit_party_1","A3JTDNRJYVCGQD","either","6","231","","","","","","","0","1","0","","0.2306318455","0.2","0.8","0.6","0.4","0.2306318455","0.3626499081","0.3718647044","0.349206168","","","","","","","","","","","","","","72","H","0","img/none_selected.jpg","","179","main_expt",""
"","bandit","259","688535","0.0-221.0-0.0","68140038","wem/bandit_party_1","A3JTDNRJYVCGQD","either","6","341","","","","","","","0","0","1","","0.2531752843","0.2","0.8","0.6","0.4","0.2531752843","0.365831292","0.3144845341","0.3533593609","","","","","","","","","","","","","","72","H","0","img/none_selected.jpg","","180","main_expt",""
"","bandit","260","690345","0.0-222.0-0.0","68140038","wem/bandit_party_1","A3JTDNRJYVCGQD","either","6","282","","","","","","","0","0","1","","0.2995137733","0.2","0.8","0.6","0.4","0.2995137733","0.3720079561","0.3328992573","0.3792633926","","","","","","","","","","","","","","72","H","0","img/none_selected.jpg","","181","main_expt",""
"","bandit","261","692125","0.0-223.0-0.0","68140038","wem/bandit_party_1","A3JTDNRJYVCGQD","either","6","254","","","","","","","0","0","1","","0.2818604164","0.2","0.8","0.6","0.4","0.2818604164","0.3747751333","0.3443004049","0.4170401524","","","","","","","","","","","","","","72","H","0","img/none_selected.jpg","","182","main_expt",""
"","bandit","262","693855","0.0-224.0-0.0","68140038","wem/bandit_party_1","A3JTDNRJYVCGQD","either","6","202","","","","","","","0","0","1","0.3772869326","","0.2","0.8","0.6","0.4","","","","","0.2706787236","0.3772869326","0.3572445505","0.4349898381","","","","","","","","","","74","J","1","","","183","main_expt",""
"","bandit","263","695633","0.0-225.0-0.0","68140038","wem/bandit_party_1","A3JTDNRJYVCGQD","either","6","252","","","","","","","0","0","1","0.3719200221","","0.2","0.8","0.6","0.4","","","","","0.2788381055","0.3719200221","0.358140682","0.4355724899","","","","","","","","","","74","J","1","","","184","main_expt",""
"","bandit","264","697273","0.0-226.0-0.0","68140038","wem/bandit_party_1","A3JTDNRJYVCGQD","either","6","109","","","","","","","0","0","1","","0.2938856532","0.2","0.8","0.6","0.4","0.2591604306","0.3759280431","0.2938856532","0.443517249","","","","","","","","","","","","","","75","K","2","","","185","main_expt",""
"","bandit","265","699126","0.0-227.0-0.0","68140038","wem/bandit_party_1","A3JTDNRJYVCGQD","either","6","343","","","","","","","0","0","1","0.2570442146","","0.2","0.8","0.6","0.4","","","","","0.1717283936","0.3686405037","0.2570442146","0.4185550765","","","","","","","","","","75","K","2","","","186","main_expt",""
"","bandit","266","700851","0.0-228.0-0.0","68140038","wem/bandit_party_1","A3JTDNRJYVCGQD","either","6","212","","","","","","","0","0","1","","0.4582246802","0.2","0.8","0.6","0.4","0.1399016055","0.3693778387","0.2781151114","0.4582246802","","","","","","","","","","","","","","76","L","3","","","187","main_expt",""
"","bandit","267","702687","0.0-229.0-0.0","68140038","wem/bandit_party_1","A3JTDNRJYVCGQD","either","6","311","","","","","","","0","1","0","","0.4499637214","0.2","0.8","0.6","0.4","0.116743447","0.3858781765","0.2510368257","0.4499637214","","","","","","","","","","","","","","76","L","3","","","188","main_expt",""
"","bandit","268","704647","0.0-230.0-0.0","68140038","wem/bandit_party_1","A3JTDNRJYVCGQD","either","6","447","","","","","","","0","0","1","0.4681283031","","0.2","0.8","0.6","0.4","","","","","0.09810356538","0.353665234","0.2299291889","0.4681283031","","","","","","","","","","76","L","3","","","189","main_expt",""
"","bandit","269","706457","0.0-231.0-0.0","68140038","wem/bandit_party_1","A3JTDNRJYVCGQD","either","6","289","","","","","","","0","0","1","","0.4672384316","0.2","0.8","0.6","0.4","0.1333212727","0.3702546744","0.2957770397","0.4672384316","","","","","","","","","","","","","","76","L","3","","","190","main_expt",""
"","bandit","270","708260","0.0-232.0-0.0","68140038","wem/bandit_party_1","A3JTDNRJYVCGQD","either","6","288","","","","","","","1","0","0","0.4633056668","","0.2","0.8","0.6","0.4","","","","","0.07289491444","0.3373283559","0.2806998676","0.4633056668","","","","","","","","","","76","L","3","","","191","main_expt",""
"","bandit","271","710125","0.0-233.0-0.0","68140038","wem/bandit_party_1","A3JTDNRJYVCGQD","either","6","338","","","","","","","0","0","1","0.4701423021","","0.2","0.8","0.6","0.4","","","","","0.09060717316","0.3717228864","0.2578649702","0.4701423021","","","","","","","","","","76","L","3","","","192","main_expt",""
"","bandit","272","711927","0.0-234.0-0.0","68140038","wem/bandit_party_1","A3JTDNRJYVCGQD","either","6","292","","","","","","","0","0","1","","0.4625827917","0.2","0.8","0.6","0.4","0.1038106097","0.3861484819","0.3019093773","0.4625827917","","","","","","","","","","","","","","76","L","3","","","193","main_expt",""
"","bandit","273","713756","0.0-235.0-0.0","68140038","wem/bandit_party_1","A3JTDNRJYVCGQD","either","6","297","","","","","","","1","0","0","0.4480064119","","0.2","0.8","0.6","0.4","","","","","0.1222204007","0.3884838939","0.3028603149","0.4480064119","","","","","","","","","","76","L","3","","","194","main_expt",""
"","bandit","274","715724","0.0-236.0-0.0","68140038","wem/bandit_party_1","A3JTDNRJYVCGQD","either","6","449","","","","","","","0","0","1","","0.4263193963","0.2","0.8","0.6","0.4","0.1230179676","0.4058549971","0.2933095063","0.4263193963","","","","","","","","","","","","","","76","L","3","","","195","main_expt",""
"","bandit","275","717517","0.0-237.0-0.0","68140038","wem/bandit_party_1","A3JTDNRJYVCGQD","either","6","262","","","","","","","0","0","1","0.4399191733","","0.2","0.8","0.6","0.4","","","","","0.1972068901","0.3894648227","0.3333663608","0.4399191733","","","","","","","","","","76","L","3","","","196","main_expt",""
"","bandit","276","719291","0.0-238.0-0.0","68140038","wem/bandit_party_1","A3JTDNRJYVCGQD","either","6","254","","","","","","","1","0","0","0.4303685687","","0.2","0.8","0.6","0.4","","","","","0.2091218652","0.3452919481","0.3472763543","0.4303685687","","","","","","","","","","76","L","3","","","197","main_expt",""
"","bandit","277","721130","0.0-239.0-0.0","68140038","wem/bandit_party_1","A3JTDNRJYVCGQD","either","6","332","","","","","","","0","0","1","0.3420385624","","0.2","0.8","0.6","0.4","","","","","0.2316117542","0.3571156804","0.3420385624","0.4166638701","","","","","","","","","","75","K","2","","","198","main_expt",""
"","bandit","278","722897","0.0-240.0-0.0","68140038","wem/bandit_party_1","A3JTDNRJYVCGQD","either","6","255","","","","","","","0","0","1","0.3761278261","","0.2","0.8","0.6","0.4","","","","","0.1983173389","0.3761278261","0.3009927129","0.4166192342","","","","","","","","","","74","J","1","","","199","main_expt",""
"","bandit","279","724681","0.0-241.0-0.0","68140038","wem/bandit_party_1","A3JTDNRJYVCGQD","either","6","274","","","","","","","0","0","1","","0.4065109498","0.2","0.8","0.6","0.4","0.2275108597","0.3623939384","0.2834367318","0.4065109498","","","","","","","","","","","","","","76","L","3","","","200","main_expt",""
"","bandit","280","726485","0.0-242.0-0.0","68140038","wem/bandit_party_1","A3JTDNRJYVCGQD","either","6","292","","","","","","","0","0","1","","0.4210367682","0.2","0.8","0.6","0.4","0.2753755663","0.3470966653","0.2305195973","0.4210367682","","","","","","","","","","","","","","76","L","3","","","201","main_expt",""
"","bandit","281","728240","0.0-243.0-0.0","68140038","wem/bandit_party_1","A3JTDNRJYVCGQD","either","6","244","","","","","","","0","0","1","0.2867984519","","0.2","0.8","0.6","0.4","","","","","0.2867984519","0.3738670455","0.236439039","0.4059774394","","","","","","","","","","72","H","0","img/none_selected.jpg","","202","main_expt",""
"","bandit","282","730080","0.0-244.0-0.0","68140038","wem/bandit_party_1","A3JTDNRJYVCGQD","either","6","330","","","","","","","0","0","1","","0.227681123","0.2","0.8","0.6","0.4","0.227681123","0.4434414113","0.207292508","0.4217634448","","","","","","","","","","","","","","72","H","0","img/none_selected.jpg","","203","main_expt",""
"","bandit","283","731794","0.0-245.0-0.0","68140038","wem/bandit_party_1","A3JTDNRJYVCGQD","either","6","199","","","","","","","1","0","0","0.4363530878","","0.2","0.8","0.6","0.4","","","","","0.2421814767","0.4363530878","0.2706274655","0.417590799","","","","","","","","","","74","J","1","","","204","main_expt",""
"","bandit","284","733634","0.0-246.0-0.0","68140038","wem/bandit_party_1","A3JTDNRJYVCGQD","either","6","330","","","","","","","1","0","0","0.4390009565","","0.2","0.8","0.6","0.4","","","","","0.2250127273","0.4390009565","0.2688171721","0.3892328218","","","","","","","","","","74","J","1","","","205","main_expt",""
"","bandit","285","735414","0.0-247.0-0.0","68140038","wem/bandit_party_1","A3JTDNRJYVCGQD","either","6","265","","","","","","","1","0","0","0.4606838579","","0.2","0.8","0.6","0.4","","","","","0.2148063869","0.4606838579","0.2774640617","0.3877758809","","","","","","","","","","74","J","1","","","206","main_expt",""
"","bandit","286","737232","0.0-248.0-0.0","68140038","wem/bandit_party_1","A3JTDNRJYVCGQD","either","6","290","","","","","","","1","0","0","0.4679198071","","0.2","0.8","0.6","0.4","","","","","0.2370073307","0.4679198071","0.31303597","0.3344078408","","","","","","","","","","74","J","1","","","207","main_expt",""
"","bandit","287","739084","0.0-249.0-0.0","68140038","wem/bandit_party_1","A3JTDNRJYVCGQD","either","6","335","","","","","","","0","0","1","0.4731710197","","0.2","0.8","0.6","0.4","","","","","0.1736764344","0.4731710197","0.3187850143","0.3285414067","","","","","","","","","","74","J","1","","","208","main_expt",""
"","bandit","288","740885","0.0-250.0-0.0","68140038","wem/bandit_party_1","A3JTDNRJYVCGQD","either","6","288","","","","","","","0","0","1","0.472507437","","0.2","0.8","0.6","0.4","","","","","0.2033963155","0.472507437","0.3031297305","0.337659841","","","","","","","","","","74","J","1","","","209","main_expt",""
"","bandit","289","742648","0.0-251.0-0.0","68140038","wem/bandit_party_1","A3JTDNRJYVCGQD","either","6","239","","","","","","","0","0","1","0.3593083662","","0.2","0.8","0.6","0.4","","","","","0.1849029676","0.4759946166","0.3593083662","0.322880172","","","","","","","","","","75","K","2","","","210","main_expt",""
"","bandit","290","744425","0.0-252.0-0.0","68140038","wem/bandit_party_1","A3JTDNRJYVCGQD","either","6","257","","","","","","","0","1","0","","0.3758292662","0.2","0.8","0.6","0.4","0.08033524441","0.4838002785","0.3758292662","0.3440981268","","","","","","","","","","","","","","75","K","2","","","211","main_expt",""
"","bandit","291","746262","0.0-253.0-0.0","68140038","wem/bandit_party_1","A3JTDNRJYVCGQD","either","6","310","","","","","","","0","1","0","","0.3771764803","0.2","0.8","0.6","0.4","0.1024936548","0.4871609062","0.3771764803","0.3135232579","","","","","","","","","","","","","","75","K","2","","","212","main_expt",""
"","bandit","292","748054","0.0-254.0-0.0","68140038","wem/bandit_party_1","A3JTDNRJYVCGQD","either","6","266","","","","","","","0","0","1","0.3935517348","","0.2","0.8","0.6","0.4","","","","","0.1380366818","0.4829725273","0.3935517348","0.328558382","","","","","","","","","","75","K","2","","","213","main_expt",""
"","bandit","293","749869","0.0-255.0-0.0","68140038","wem/bandit_party_1","A3JTDNRJYVCGQD","either","6","292","","","","","","","0","1","0","","0.3792377037","0.2","0.8","0.6","0.4","0.1206441992","0.4742933803","0.3792377037","0.3024402918","","","","","","","","","","","","","","75","K","2","","","214","main_expt",""
"","bandit","294","751692","0.0-256.0-0.0","68140038","wem/bandit_party_1","A3JTDNRJYVCGQD","either","6","303","","","","","","","0","0","1","0.3364308411","","0.2","0.8","0.6","0.4","","","","","0.1320715796","0.4754417465","0.3364308411","0.3024001881","","","","","","","","","","75","K","2","","","215","main_expt",""
"","bandit","295","753413","0.0-257.0-0.0","68140038","wem/bandit_party_1","A3JTDNRJYVCGQD","either","6","199","","","","","","","0","0","1","","0.3348871659","0.2","0.8","0.6","0.4","0.1152906885","0.4764866221","0.3348871659","0.2975117226","","","","","","","","","","","","","","75","K","2","","","216","main_expt",""
"","bandit","296","755204","0.0-258.0-0.0","68140038","wem/bandit_party_1","A3JTDNRJYVCGQD","either","6","275","","","","","","","0","1","0","","0.321293363","0.2","0.8","0.6","0.4","0.1191406027","0.4727866334","0.321293363","0.3331298207","","","","","","","","","","","","","","75","K","2","","","217","main_expt",""
"","bandit","297","757189","0.0-259.0-0.0","68140038","wem/bandit_party_1","A3JTDNRJYVCGQD","either","6","454","","","","","","","1","0","0","0.3530973922","","0.2","0.8","0.6","0.4","","","","","0.1177717736","0.4664653133","0.3530973922","0.2905667849","","","","","","","","","","75","K","2","","","218","main_expt",""
"","bandit","298","759228","0.0-260.0-0.0","68140038","wem/bandit_party_1","A3JTDNRJYVCGQD","either","6","518","","","","","","","0","0","1","0.3837093308","","0.2","0.8","0.6","0.4","","","","","0.1178729669","0.4636837267","0.3837093308","0.2701708387","","","","","","","","","","75","K","2","","","219","main_expt",""
"","bandit","299","761057","0.0-261.0-0.0","68140038","wem/bandit_party_1","A3JTDNRJYVCGQD","either","6","297","","","","","","","1","0","0","0.3651541458","","0.2","0.8","0.6","0.4","","","","","0.1284790336","0.4599900571","0.3651541458","0.2395453957","","","","","","","","","","75","K","2","","","220","main_expt",""
"","bandit","300","762949","0.0-262.0-0.0","68140038","wem/bandit_party_1","A3JTDNRJYVCGQD","either","6","363","","","","","","","0","0","1","","0.254085412","0.2","0.8","0.6","0.4","0.147465279","0.4490722186","0.254085412","0.2770622605","","","","","","","","","","","","","","75","K","2","","","221","main_expt",""
"","bandit","301","764689","0.0-263.0-0.0","68140038","wem/bandit_party_1","A3JTDNRJYVCGQD","either","6","210","","","","","","","0","0","1","0.2590796483","","0.2","0.8","0.6","0.4","","","","","0.1441925756","0.4253353094","0.2590796483","0.3390746663","","","","","","","","","","75","K","2","","","222","main_expt",""
"","bandit","302","766541","0.0-264.0-0.0","68140038","wem/bandit_party_1","A3JTDNRJYVCGQD","either","6","330","","","","","","","0","0","1","0.2640852941","","0.2","0.8","0.6","0.4","","","","","0.1731110736","0.4559825987","0.2640852941","0.384843876","","","","","","","","","","75","K","2","","","223","main_expt",""
"","bandit","303","768198","0.0-265.0-0.0","68140038","wem/bandit_party_1","A3JTDNRJYVCGQD","either","6","146","","","","","","","0","1","0","","0.4367619307","0.2","0.8","0.6","0.4","0.1124600034","0.464560515","0.2636590797","0.4367619307","","","","","","","","","","","","","","76","L","3","","","224","main_expt",""
"","bandit","304","769996","0.0-266.0-0.0","68140038","wem/bandit_party_1","A3JTDNRJYVCGQD","either","6","282","","","","","","","0","1","0","","0.42055701","0.2","0.8","0.6","0.4","0.1174510337","0.4528378766","0.3110444069","0.42055701","","","","","","","","","","","","","","76","L","3","","","225","main_expt",""
"","bandit","305","771898","0.0-267.0-0.0","68140038","wem/bandit_party_1","A3JTDNRJYVCGQD","either","6","374","","","","","","","1","0","0","0.4282593698","","0.2","0.8","0.6","0.4","","","","","0.1494320736","0.4585160156","0.3268768972","0.4282593698","","","","","","","","","","76","L","3","","","226","main_expt",""
"","bandit","306","773760","0.0-268.0-0.0","68140038","wem/bandit_party_1","A3JTDNRJYVCGQD","either","6","333","","","","","","","0","1","0","","0.4213985596","0.2","0.8","0.6","0.4","0.1655037845","0.4525914875","0.3112991039","0.4213985596","","","","","","","","","","","","","","76","L","3","","","227","main_expt",""
"","bandit","307","775553","0.0-269.0-0.0","68140038","wem/bandit_party_1","A3JTDNRJYVCGQD","either","6","276","","","","","","","0","0","1","","0.4115599459","0.2","0.8","0.6","0.4","0.1595877114","0.4618810074","0.3481066565","0.4115599459","","","","","","","","","","","","","","76","L","3","","","228","main_expt",""
"","bandit","308","777371","0.0-270.0-0.0","68140038","wem/bandit_party_1","A3JTDNRJYVCGQD","either","6","294","","","","","","","0","0","1","0.375967734","","0.2","0.8","0.6","0.4","","","","","0.1811982871","0.4661541784","0.3267856819","0.375967734","","","","","","","","","","76","L","3","","","229","main_expt",""
"","bandit","309","779280","0.0-271.0-0.0","68140038","wem/bandit_party_1","A3JTDNRJYVCGQD","either","6","376","","","","","","","0","0","1","","0.4172813036","0.2","0.8","0.6","0.4","0.2088208598","0.4681373403","0.3043034776","0.4172813036","","","","","","","","","","","","","","76","L","3","","","230","main_expt",""
"","bandit","310","780997","0.0-272.0-0.0","68140038","wem/bandit_party_1","A3JTDNRJYVCGQD","either","6","188","","","","","","","0","0","1","0.4733838814","","0.2","0.8","0.6","0.4","","","","","0.2062946352","0.4733838814","0.3127123154","0.3871641603","","","","","","","","","","74","J","1","","","231","main_expt",""
"","bandit","311","782727","0.0-273.0-0.0","68140038","wem/bandit_party_1","A3JTDNRJYVCGQD","either","6","195","","","","","","","0","0","1","0.3039198066","","0.2","0.8","0.6","0.4","","","","","0.1448621505","0.455942125","0.3039198066","0.3381606844","","","","","","","","","","75","K","2","","","232","main_expt",""
"","bandit","312","784464","0.0-274.0-0.0","68140038","wem/bandit_party_1","A3JTDNRJYVCGQD","either","6","212","","","","","","","0","0","1","","0.1096360744","0.2","0.8","0.6","0.4","0.1096360744","0.4523014459","0.2846072758","0.2918198365","","","","","","","","","","","","","","72","H","0","img/none_selected.jpg","","233","main_expt",""
"","bandit","313","786292","0.0-275.0-0.0","68140038","wem/bandit_party_1","A3JTDNRJYVCGQD","either","6","301","","","","","","","1","0","0","0.4715877437","","0.2","0.8","0.6","0.4","","","","","0.1102272527","0.4715877437","0.2430061478","0.3016980071","","","","","","","","","","74","J","1","","","234","main_expt",""
"","bandit","314","788112","0.0-276.0-0.0","68140038","wem/bandit_party_1","A3JTDNRJYVCGQD","either","6","303","","","","","","","1","0","0","0.4667146267","","0.2","0.8","0.6","0.4","","","","","0.1428859574","0.4667146267","0.263037213","0.2940059945","","","","","","","","","","74","J","1","","","235","main_expt",""
"","bandit","315","789889","0.0-277.0-0.0","68140038","wem/bandit_party_1","A3JTDNRJYVCGQD","either","6","262","","","","","","","1","0","0","0.4638430617","","0.2","0.8","0.6","0.4","","","","","0.1659437887","0.4638430617","0.2976510001","0.2926833733","","","","","","","","","","74","J","1","","","236","main_expt",""
