"consent","trial_type","trial_index","time_elapsed","internal_node_id","subjID","study","MID","cond","drift","rt","responses","button_pressed","key_press","like","value","connected","gems","bombs","no_reward","GemPrChosen","BombPrChosen","GainOverPainPr_0","GainOverPainPr_1","GainOverPainPr_2","GainOverPainPr_3","LosePr_0","LosePr_1","LosePr_2","LosePr_3","WinPr_0","WinPr_1","WinPr_2","WinPr_3","Q0","Q1","Q2","gender","age","ethnicity","label","expt_phase","target","respCharCode","respKey","respChoiceNum","respChoice","practice","trial_counter","trial_label","Q0_index"
"GDM/GDM_behavioral_consent_30min_online.html","consent","0","6253","0.0-0.0","69517315","wem/bandit_party_1","A33QIOA2EYW0LC","either","5","","","","","","","","","","","","","","","","","","","","","","","","","","","","","","","","","","","","","","","","",""
"","survey-text","1","12092","0.0-1.0","69517315","wem/bandit_party_1","A33QIOA2EYW0LC","either","5","4830","{""Q0"":""A33QIOA2EYW0LC""}","","","","","","","","","","","","","","","","","","","","","","","","","","","","","","","","","","","","","","",""
"","button-response","2","15020","0.0-2.0","69517315","wem/bandit_party_1","A33QIOA2EYW0LC","either","5","1923","","2","","","","","","","","","","","","","","","","","","","","","","","","","","","","","","","","","","","","","",""
"","text-replacement","3","21523","0.0-3.0","69517315","wem/bandit_party_1","A33QIOA2EYW0LC","either","5","5498","","","32","","","","","","","","","","","","","","","","","","","","","","","","","","","","","","","","","","","","",""
"","text-replacement","4","30030","0.0-4.0","69517315","wem/bandit_party_1","A33QIOA2EYW0LC","either","5","8504","","","32","","","","","","","","","","","","","","","","","","","","","","","","","","","","","","","","","","","","",""
"","text-replacement","5","45799","0.0-5.0-0.0","69517315","wem/bandit_party_1","A33QIOA2EYW0LC","either","5","15766","","","32","","","","","","","","","","","","","","","","","","","","","","","","","","","","","","","","","","","","",""
"","identification","6","52254","0.0-6.0-0.0","69517315","wem/bandit_party_1","A33QIOA2EYW0LC","either","5","6439","","","","0","1","0","","","","","","","","","","","","","","","","","","","","","","","","pre","identification_pre","the Democratic Party","","","","","","","",""
"","identification","7","57868","0.0-6.0-1.0","69517315","wem/bandit_party_1","A33QIOA2EYW0LC","either","5","4597","","","","3","3","3","","","","","","","","","","","","","","","","","","","","","","","","pre","identification_pre","the Republican party","","","","","","","",""
"","text-replacement","8","65411","0.0-7.0","69517315","wem/bandit_party_1","A33QIOA2EYW0LC","either","5","6538","","","32","","","","","","","","","","","","","","","","","","","","","","","","","","","","","","","","","","","","",""
"","text-replacement","9","71338","0.0-8.0","69517315","wem/bandit_party_1","A33QIOA2EYW0LC","either","5","5925","","","32","","","","","","","","","","","","","","","","","","","","","","","","","","","","","","","","","","","","",""
"","text-replacement","10","77969","0.0-9.0","69517315","wem/bandit_party_1","A33QIOA2EYW0LC","either","5","6629","","","32","","","","","","","","","","","","","","","","","","","","","","","","","","","","","","","","","","","","",""
"","text-replacement","11","82072","0.0-10.0","69517315","wem/bandit_party_1","A33QIOA2EYW0LC","either","5","4101","","","32","","","","","","","","","","","","","","","","","","","","","","","","","","","","","","","","","","","","",""
"","text-replacement","12","86548","0.0-11.0","69517315","wem/bandit_party_1","A33QIOA2EYW0LC","either","5","4474","","","32","","","","","","","","","","","","","","","","","","","","","","","","","","","","","","","","","","","","",""
"","bandit","13","89880","0.0-12.0-0.0","69517315","wem/bandit_party_1","A33QIOA2EYW0LC","either","5","1820","","","","","","","0","0","1","0","0","","","","","0","","","","0","","","","","","","","","","","","","74","J","0","img/none_selected_demo.jpg","true","0","",""
"","bandit","14","92047","0.0-13.0-0.0","69517315","wem/bandit_party_1","A33QIOA2EYW0LC","either","5","654","","","","","","","0","0","1","0","0","","","","","0","","","","0","","","","","","","","","","","","","75","K","0","img/none_selected_demo.jpg","true","0","",""
"","text-replacement","15","100720","0.0-14.0","69517315","wem/bandit_party_1","A33QIOA2EYW0LC","either","5","8669","","","32","","","","","","","","","","","","","","","","","","","","","","","","","","","","","","","","","","","","",""
"","text-replacement","16","104949","0.0-15.0","69517315","wem/bandit_party_1","A33QIOA2EYW0LC","either","5","4227","","","32","","","","","","","","","","","","","","","","","","","","","","","","","","","","","","","","","","","","",""
"","text-replacement","17","111817","0.0-16.0","69517315","wem/bandit_party_1","A33QIOA2EYW0LC","either","5","6866","","","32","","","","","","","","","","","","","","","","","","","","","","","","","","","","","","","","","","","","",""
"","text-replacement","18","116216","0.0-17.0","69517315","wem/bandit_party_1","A33QIOA2EYW0LC","either","5","4397","","","32","","","","","","","","","","","","","","","","","","","","","","","","","","","","","","","","","","","","",""
"","bandit","19","118237","0.0-18.0-0.0","69517315","wem/bandit_party_1","A33QIOA2EYW0LC","either","5","513","","","","","","","0","1","0","","0.8","0.5","0.5","","","0.8","0.2","","","","","","","","","","","","","","","","74","J","0","img/none_selected_demo.jpg","true","0","80_20_practice",""
"","bandit","20","120119","0.0-18.0-1.0","69517315","wem/bandit_party_1","A33QIOA2EYW0LC","either","5","374","","","","","","","1","0","0","0.8","","0.5","0.5","","","","","","","0.8","0.2","","","","","","","","","","","","74","J","0","img/none_selected_demo.jpg","true","0","80_20_practice",""
"","bandit","21","121921","0.0-18.0-2.0","69517315","wem/bandit_party_1","A33QIOA2EYW0LC","either","5","290","","","","","","","0","0","1","0.8","","0.5","0.5","","","","","","","0.8","0.2","","","","","","","","","","","","74","J","0","img/none_selected_demo.jpg","true","0","80_20_practice",""
"","bandit","22","123782","0.0-18.0-3.0","69517315","wem/bandit_party_1","A33QIOA2EYW0LC","either","5","346","","","","","","","1","0","0","0.8","","0.5","0.5","","","","","","","0.8","0.2","","","","","","","","","","","","74","J","0","img/none_selected_demo.jpg","true","0","80_20_practice",""
"","bandit","23","125603","0.0-18.0-4.0","69517315","wem/bandit_party_1","A33QIOA2EYW0LC","either","5","308","","","","","","","0","0","1","0.2","","0.5","0.5","","","","","","","0.8","0.2","","","","","","","","","","","","75","K","1","","true","0","80_20_practice",""
"","bandit","24","127557","0.0-18.0-5.0","69517315","wem/bandit_party_1","A33QIOA2EYW0LC","either","5","447","","","","","","","0","1","0","","0.2","0.5","0.5","","","0.8","0.2","","","","","","","","","","","","","","","","75","K","1","","true","0","80_20_practice",""
"","bandit","25","129397","0.0-18.0-6.0","69517315","wem/bandit_party_1","A33QIOA2EYW0LC","either","5","332","","","","","","","0","0","1","0.2","","0.5","0.5","","","","","","","0.8","0.2","","","","","","","","","","","","75","K","1","","true","0","80_20_practice",""
"","bandit","26","131762","0.0-18.0-7.0","69517315","wem/bandit_party_1","A33QIOA2EYW0LC","either","5","854","","","","","","","0","0","1","","0.2","0.5","0.5","","","0.8","0.2","","","","","","","","","","","","","","","","75","K","1","","true","0","80_20_practice",""
"","bandit","27","133725","0.0-18.0-8.0","69517315","wem/bandit_party_1","A33QIOA2EYW0LC","either","5","454","","","","","","","0","0","1","","0.2","0.5","0.5","","","0.8","0.2","","","","","","","","","","","","","","","","75","K","1","","true","0","80_20_practice",""
"","bandit","28","135510","0.0-18.0-9.0","69517315","wem/bandit_party_1","A33QIOA2EYW0LC","either","5","277","","","","","","","1","0","0","0.8","","0.5","0.5","","","","","","","0.8","0.2","","","","","","","","","","","","74","J","0","img/none_selected_demo.jpg","true","0","80_20_practice",""
"","bandit","29","137382","0.0-18.0-10.0","69517315","wem/bandit_party_1","A33QIOA2EYW0LC","either","5","362","","","","","","","1","0","0","0.8","","0.5","0.5","","","","","","","0.8","0.2","","","","","","","","","","","","74","J","0","img/none_selected_demo.jpg","true","0","80_20_practice",""
"","bandit","30","139210","0.0-18.0-11.0","69517315","wem/bandit_party_1","A33QIOA2EYW0LC","either","5","314","","","","","","","0","1","0","","0.8","0.5","0.5","","","0.8","0.2","","","","","","","","","","","","","","","","74","J","0","img/none_selected_demo.jpg","true","0","80_20_practice",""
"","bandit","31","141030","0.0-18.0-12.0","69517315","wem/bandit_party_1","A33QIOA2EYW0LC","either","5","311","","","","","","","1","0","0","0.8","","0.5","0.5","","","","","","","0.8","0.2","","","","","","","","","","","","74","J","0","img/none_selected_demo.jpg","true","0","80_20_practice",""
"","bandit","32","142939","0.0-18.0-13.0","69517315","wem/bandit_party_1","A33QIOA2EYW0LC","either","5","397","","","","","","","1","0","0","0.8","","0.5","0.5","","","","","","","0.8","0.2","","","","","","","","","","","","74","J","0","img/none_selected_demo.jpg","true","0","80_20_practice",""
"","bandit","33","144564","0.0-18.0-14.0","69517315","wem/bandit_party_1","A33QIOA2EYW0LC","either","5","117","","","","","","","1","0","0","0.8","","0.5","0.5","","","","","","","0.8","0.2","","","","","","","","","","","","74","J","0","img/none_selected_demo.jpg","true","0","80_20_practice",""
"","bandit","34","146161","0.0-18.0-15.0","69517315","wem/bandit_party_1","A33QIOA2EYW0LC","either","5","85","","","","","","","0","1","0","","0.8","0.5","0.5","","","0.8","0.2","","","","","","","","","","","","","","","","74","J","0","img/none_selected_demo.jpg","true","0","80_20_practice",""
"","bandit","35","148169","0.0-18.0-16.0","69517315","wem/bandit_party_1","A33QIOA2EYW0LC","either","5","497","","","","","","","1","0","0","0.8","","0.5","0.5","","","","","","","0.8","0.2","","","","","","","","","","","","74","J","0","img/none_selected_demo.jpg","true","0","80_20_practice",""
"","bandit","36","150288","0.0-18.0-17.0","69517315","wem/bandit_party_1","A33QIOA2EYW0LC","either","5","608","","","","","","","1","0","0","0.8","","0.5","0.5","","","","","","","0.8","0.2","","","","","","","","","","","","74","J","0","img/none_selected_demo.jpg","true","0","80_20_practice",""
"","bandit","37","152059","0.0-18.0-18.0","69517315","wem/bandit_party_1","A33QIOA2EYW0LC","either","5","264","","","","","","","1","0","0","0.8","","0.5","0.5","","","","","","","0.8","0.2","","","","","","","","","","","","74","J","0","img/none_selected_demo.jpg","true","0","80_20_practice",""
"","bandit","38","153711","0.0-18.0-19.0","69517315","wem/bandit_party_1","A33QIOA2EYW0LC","either","5","142","","","","","","","0","1","0","","0.8","0.5","0.5","","","0.8","0.2","","","","","","","","","","","","","","","","74","J","0","img/none_selected_demo.jpg","true","0","80_20_practice",""
"","text-replacement","39","157864","0.0-19.0","69517315","wem/bandit_party_1","A33QIOA2EYW0LC","either","5","4151","","","32","","","","","","","","","","","","","","","","","","","","","","","","","","","","","","","","","","","","",""
"","bandit","40","160927","0.0-20.0-0.0","69517315","wem/bandit_party_1","A33QIOA2EYW0LC","either","5","1557","","","","","","","1","0","0","1","0","","","","","0","1","","","1","0","","","","","","","","","","","","74","J","0","img/none_selected_demo.jpg","true","0","",""
"","text-replacement","41","164761","0.0-21.0","69517315","wem/bandit_party_1","A33QIOA2EYW0LC","either","5","3830","","","32","","","","","","","","","","","","","","","","","","","","","","","","","","","","","","","","","","","","",""
"","text-replacement","42","167128","0.0-22.0","69517315","wem/bandit_party_1","A33QIOA2EYW0LC","either","5","2364","","","32","","","","","","","","","","","","","","","","","","","","","","","","","","","","","","","","","","","","",""
"","text-replacement","43","170091","0.0-23.0","69517315","wem/bandit_party_1","A33QIOA2EYW0LC","either","5","2961","","","32","","","","","","","","","","","","","","","","","","","","","","","","","","","","","","","","","","","","",""
"","text-replacement","44","172984","0.0-24.0","69517315","wem/bandit_party_1","A33QIOA2EYW0LC","either","5","2891","","","32","","","","","","","","","","","","","","","","","","","","","","","","","","","","","","","","","","","","",""
"","text-replacement","45","176567","0.0-25.0","69517315","wem/bandit_party_1","A33QIOA2EYW0LC","either","5","3579","","","32","","","","","","","","","","","","","","","","","","","","","","","","","","","","","","","","","","","","",""
"","text-replacement","46","180314","0.0-26.0","69517315","wem/bandit_party_1","A33QIOA2EYW0LC","either","5","3744","","","32","","","","","","","","","","","","","","","","","","","","","","","","","","","","","","","","","","","","",""
"","text-replacement","47","184995","0.0-27.0","69517315","wem/bandit_party_1","A33QIOA2EYW0LC","either","5","4678","","","32","","","","","","","","","","","","","","","","","","","","","","","","","","","","","","","","","","","","",""
"","text-replacement","48","188035","0.0-28.0","69517315","wem/bandit_party_1","A33QIOA2EYW0LC","either","5","3036","","","32","","","","","","","","","","","","","","","","","","","","","","","","","","","","","","","","","","","","",""
"","text-replacement","49","193350","0.0-29.0","69517315","wem/bandit_party_1","A33QIOA2EYW0LC","either","5","5312","","","32","","","","","","","","","","","","","","","","","","","","","","","","","","","","","","","","","","","","",""
"","text-replacement","50","195292","0.0-30.0","69517315","wem/bandit_party_1","A33QIOA2EYW0LC","either","5","1939","","","32","","","","","","","","","","","","","","","","","","","","","","","","","","","","","","","","","","","","",""
"","text-replacement","51","199828","0.0-31.0","69517315","wem/bandit_party_1","A33QIOA2EYW0LC","either","5","4533","","","32","","","","","","","","","","","","","","","","","","","","","","","","","","","","","","","","","","","","",""
"","bandit","52","203242","0.0-32.0-0.0","69517315","wem/bandit_party_1","A33QIOA2EYW0LC","either","5","1907","","","","","","","0","1","0","","0.8","0.5","0.5","0.5","0.5","0.8","0.2","0.6","0.2","","","","","","","","","","","","","","72","H","0","img/none_selected.jpg","true","0","full_practice",""
"","bandit","53","205106","0.0-32.0-1.0","69517315","wem/bandit_party_1","A33QIOA2EYW0LC","either","5","353","","","","","","","0","0","1","","0.8","0.5","0.5","0.5","0.5","0.8","0.2","0.6","0.2","","","","","","","","","","","","","","72","H","0","img/none_selected.jpg","true","0","full_practice",""
"","bandit","54","206828","0.0-32.0-2.0","69517315","wem/bandit_party_1","A33QIOA2EYW0LC","either","5","213","","","","","","","0","0","1","0.8","","0.5","0.5","0.5","0.5","","","","","0.8","0.2","0.6","0.2","","","","","","","","","","72","H","0","img/none_selected.jpg","true","0","full_practice",""
"","bandit","55","208846","0.0-32.0-3.0","69517315","wem/bandit_party_1","A33QIOA2EYW0LC","either","5","506","","","","","","","0","0","1","0.2","","0.5","0.5","0.5","0.5","","","","","0.8","0.2","0.6","0.2","","","","","","","","","","74","J","1","","true","0","full_practice",""
"","bandit","56","210660","0.0-32.0-4.0","69517315","wem/bandit_party_1","A33QIOA2EYW0LC","either","5","304","","","","","","","0","0","1","0.2","","0.5","0.5","0.5","0.5","","","","","0.8","0.2","0.6","0.2","","","","","","","","","","74","J","1","","true","0","full_practice",""
"","bandit","57","212651","0.0-32.0-5.0","69517315","wem/bandit_party_1","A33QIOA2EYW0LC","either","5","483","","","","","","","0","1","0","","0.6","0.5","0.5","0.5","0.5","0.8","0.2","0.6","0.2","","","","","","","","","","","","","","75","K","2","","true","0","full_practice",""
"","bandit","58","214374","0.0-32.0-6.0","69517315","wem/bandit_party_1","A33QIOA2EYW0LC","either","5","210","","","","","","","0","1","0","","0.6","0.5","0.5","0.5","0.5","0.8","0.2","0.6","0.2","","","","","","","","","","","","","","75","K","2","","true","0","full_practice",""
"","bandit","59","216237","0.0-32.0-7.0","69517315","wem/bandit_party_1","A33QIOA2EYW0LC","either","5","332","","","","","","","0","1","0","","0.6","0.5","0.5","0.5","0.5","0.8","0.2","0.6","0.2","","","","","","","","","","","","","","75","K","2","","true","0","full_practice",""
"","bandit","60","217988","0.0-32.0-8.0","69517315","wem/bandit_party_1","A33QIOA2EYW0LC","either","5","243","","","","","","","1","0","0","0.6","","0.5","0.5","0.5","0.5","","","","","0.8","0.2","0.6","0.2","","","","","","","","","","75","K","2","","true","0","full_practice",""
"","bandit","61","219719","0.0-32.0-9.0","69517315","wem/bandit_party_1","A33QIOA2EYW0LC","either","5","223","","","","","","","0","0","1","","0.6","0.5","0.5","0.5","0.5","0.8","0.2","0.6","0.2","","","","","","","","","","","","","","75","K","2","","true","0","full_practice",""
"","bandit","62","221349","0.0-32.0-10.0","69517315","wem/bandit_party_1","A33QIOA2EYW0LC","either","5","120","","","","","","","0","1","0","","0.6","0.5","0.5","0.5","0.5","0.8","0.2","0.6","0.2","","","","","","","","","","","","","","75","K","2","","true","0","full_practice",""
"","bandit","63","222995","0.0-32.0-11.0","69517315","wem/bandit_party_1","A33QIOA2EYW0LC","either","5","137","","","","","","","0","1","0","","0.6","0.5","0.5","0.5","0.5","0.8","0.2","0.6","0.2","","","","","","","","","","","","","","75","K","2","","true","0","full_practice",""
"","bandit","64","224636","0.0-32.0-12.0","69517315","wem/bandit_party_1","A33QIOA2EYW0LC","either","5","130","","","","","","","0","0","1","","0.6","0.5","0.5","0.5","0.5","0.8","0.2","0.6","0.2","","","","","","","","","","","","","","75","K","2","","true","0","full_practice",""
"","bandit","65","226374","0.0-32.0-13.0","69517315","wem/bandit_party_1","A33QIOA2EYW0LC","either","5","228","","","","","","","1","0","0","0.6","","0.5","0.5","0.5","0.5","","","","","0.8","0.2","0.6","0.2","","","","","","","","","","75","K","2","","true","0","full_practice",""
"","bandit","66","228948","0.0-32.0-14.0","69517315","wem/bandit_party_1","A33QIOA2EYW0LC","either","5","1065","","","","","","","0","1","0","","0.6","0.5","0.5","0.5","0.5","0.8","0.2","0.6","0.2","","","","","","","","","","","","","","75","K","2","","true","0","full_practice",""
"","bandit","67","230745","0.0-32.0-15.0","69517315","wem/bandit_party_1","A33QIOA2EYW0LC","either","5","289","","","","","","","0","1","0","","0.6","0.5","0.5","0.5","0.5","0.8","0.2","0.6","0.2","","","","","","","","","","","","","","75","K","2","","true","0","full_practice",""
"","bandit","68","233167","0.0-32.0-16.0","69517315","wem/bandit_party_1","A33QIOA2EYW0LC","either","5","910","","","","","","","0","1","0","","0.6","0.5","0.5","0.5","0.5","0.8","0.2","0.6","0.2","","","","","","","","","","","","","","75","K","2","","true","0","full_practice",""
"","bandit","69","235187","0.0-32.0-17.0","69517315","wem/bandit_party_1","A33QIOA2EYW0LC","either","5","512","","","","","","","0","1","0","","0.6","0.5","0.5","0.5","0.5","0.8","0.2","0.6","0.2","","","","","","","","","","","","","","75","K","2","","true","0","full_practice",""
"","bandit","70","237163","0.0-32.0-18.0","69517315","wem/bandit_party_1","A33QIOA2EYW0LC","either","5","466","","","","","","","0","0","1","","0.6","0.5","0.5","0.5","0.5","0.8","0.2","0.6","0.2","","","","","","","","","","","","","","75","K","2","","true","0","full_practice",""
"","bandit","71","239860","0.0-32.0-19.0","69517315","wem/bandit_party_1","A33QIOA2EYW0LC","either","5","1184","","","","","","","1","0","0","0.6","","0.5","0.5","0.5","0.5","","","","","0.8","0.2","0.6","0.2","","","","","","","","","","75","K","2","","true","0","full_practice",""
"","text","72","242490","0.0-33.0","69517315","wem/bandit_party_1","A33QIOA2EYW0LC","either","5","2623","","","32","","","","","","","","","","","","","","","","","","","","","","","","","","","","","","","","","","","","",""
"","text-replacement","73","254386","0.0-34.0","69517315","wem/bandit_party_1","A33QIOA2EYW0LC","either","5","10888","","","32","","","","","","","","","","","","","","","","","","","","","","","","","","","","","","","","","","","","",""
"","text-replacement","74","266035","0.0-35.0","69517315","wem/bandit_party_1","A33QIOA2EYW0LC","either","5","11646","","","32","","","","","","","","","","","","","","","","","","","","","","","","","","","","","","","","","","","","",""
"","text-replacement","75","270901","0.0-36.0","69517315","wem/bandit_party_1","A33QIOA2EYW0LC","either","5","4863","","","32","","","","","","","","","","","","","","","","","","","","","","","","","","","","","","","","","","","","",""
"","text-replacement","76","277545","0.0-37.0","69517315","wem/bandit_party_1","A33QIOA2EYW0LC","either","5","6640","","","32","","","","","","","","","","","","","","","","","","","","","","","","","","","","","","","","","","","","",""
"","text-replacement","77","290692","0.0-38.0","69517315","wem/bandit_party_1","A33QIOA2EYW0LC","either","5","13143","","","32","","","","","","","","","","","","","","","","","","","","","","","","","","","","","","","","","","","","",""
"","survey-multi-choice-replacement","78","296089","0.0-39.0-0.0","69517315","wem/bandit_party_1","A33QIOA2EYW0LC","either","5","5387","","","","","","","","","","","","","","","","","","","","","","","","Money will be added to the pool for <span style='color:blue;'>DEMOCRATS</span>","","","","","","","attn_check","","","","","","","","","0"
"","survey-multi-choice-replacement","79","299309","0.0-40.0-0.0","69517315","wem/bandit_party_1","A33QIOA2EYW0LC","either","5","2206","","","","","","","","","","","","","","","","","","","","","","","","Equal amounts of money will be added to the pool for <span style='color:blue;'>DEMOCRATS</span> and subtracted from the pool for <span style='color:red;'>REPUBLICANS</span>","","","","","","","attn_check","","","","","","","","","2"
"","survey-multi-choice-replacement","80","302787","0.0-41.0-0.0","69517315","wem/bandit_party_1","A33QIOA2EYW0LC","either","5","2458","","","","","","","","","","","","","","","","","","","","","","","","No money will be added to either pool","","","","","","","attn_check","","","","","","","","","3"
"","bandit","81","306842","0.0-42.0-0.0","69517315","wem/bandit_party_1","A33QIOA2EYW0LC","either","5","1541","","","","","","","1","0","0","0.4265570961","","0.2","0.4","0.6","0.8","","","","","0.3340388524","0.4265570961","0.3897275569","0.1165465043","","","","","","","","","","74","J","1","","","1","main_expt",""
"","bandit","82","309127","0.0-43.0-0.0","69517315","wem/bandit_party_1","A33QIOA2EYW0LC","either","5","772","","","","","","","0","1","0","","0.3223834482","0.2","0.4","0.6","0.8","0.3223834482","0.4177099958","0.3911966266","0.08371899021","","","","","","","","","","","","","","72","H","0","img/none_selected.jpg","","2","main_expt",""
"","bandit","83","310947","0.0-44.0-0.0","69517315","wem/bandit_party_1","A33QIOA2EYW0LC","either","5","311","","","","","","","0","1","0","","0.3585509001","0.2","0.4","0.6","0.8","0.3585509001","0.4192185534","0.4074861021","0.04339790364","","","","","","","","","","","","","","72","H","0","img/none_selected.jpg","","3","main_expt",""
"","bandit","84","312538","0.0-45.0-0.0","69517315","wem/bandit_party_1","A33QIOA2EYW0LC","either","5","82","","","","","","","0","0","1","","0.3416436242","0.2","0.4","0.6","0.8","0.3416436242","0.4241610434","0.3965638453","0.04073472785","","","","","","","","","","","","","","72","H","0","img/none_selected.jpg","","4","main_expt",""
"","bandit","85","314309","0.0-46.0-0.0","69517315","wem/bandit_party_1","A33QIOA2EYW0LC","either","5","263","","","","","","","0","1","0","","0.3444758892","0.2","0.4","0.6","0.8","0.3444758892","0.4284837315","0.3688269119","0.04731773769","","","","","","","","","","","","","","72","H","0","img/none_selected.jpg","","5","main_expt",""
"","bandit","86","316227","0.0-47.0-0.0","69517315","wem/bandit_party_1","A33QIOA2EYW0LC","either","5","395","","","","","","","0","0","1","0.3574177426","","0.2","0.4","0.6","0.8","","","","","0.3574177426","0.4328708062","0.3865867917","0.05617088868","","","","","","","","","","72","H","0","img/none_selected.jpg","","6","main_expt",""
"","bandit","87","318147","0.0-48.0-0.0","69517315","wem/bandit_party_1","A33QIOA2EYW0LC","either","5","412","","","","","","","0","0","1","","0.4176545671","0.2","0.4","0.6","0.8","0.3634052143","0.4176545671","0.4294719924","0.05606577856","","","","","","","","","","","","","","74","J","1","","","7","main_expt",""
"","bandit","88","319814","0.0-49.0-0.0","69517315","wem/bandit_party_1","A33QIOA2EYW0LC","either","5","154","","","","","","","1","0","0","0.4022395488","","0.2","0.4","0.6","0.8","","","","","0.3675420607","0.4022395488","0.4210378118","0.09244853328","","","","","","","","","","74","J","1","","","8","main_expt",""
"","bandit","89","321437","0.0-50.0-0.0","69517315","wem/bandit_party_1","A33QIOA2EYW0LC","either","5","111","","","","","","","0","0","1","","0.3929004949","0.2","0.4","0.6","0.8","0.3921196104","0.3929004949","0.4502112583","0.1271341085","","","","","","","","","","","","","","74","J","1","","","9","main_expt",""
"","bandit","90","323032","0.0-51.0-0.0","69517315","wem/bandit_party_1","A33QIOA2EYW0LC","either","5","82","","","","","","","1","0","0","0.3863711448","","0.2","0.4","0.6","0.8","","","","","0.4026182126","0.3863711448","0.4452653155","0.1370717255","","","","","","","","","","74","J","1","","","10","main_expt",""
"","bandit","91","324760","0.0-52.0-0.0","69517315","wem/bandit_party_1","A33QIOA2EYW0LC","either","5","221","","","","","","","0","0","1","","0.4205849279","0.2","0.4","0.6","0.8","0.3543069494","0.4205849279","0.4352349267","0.1275050207","","","","","","","","","","","","","","74","J","1","","","11","main_expt",""
"","bandit","92","326549","0.0-53.0-0.0","69517315","wem/bandit_party_1","A33QIOA2EYW0LC","either","5","279","","","","","","","0","0","1","","0.4525069231","0.2","0.4","0.6","0.8","0.3504097904","0.4525069231","0.4029030639","0.122317004","","","","","","","","","","","","","","74","J","1","","","12","main_expt",""
"","bandit","93","328136","0.0-54.0-0.0","69517315","wem/bandit_party_1","A33QIOA2EYW0LC","either","5","71","","","","","","","0","0","1","0.4198147105","","0.2","0.4","0.6","0.8","","","","","0.2787441393","0.4485799753","0.4198147105","0.1251711411","","","","","","","","","","75","K","2","","","13","main_expt",""
"","bandit","94","329858","0.0-55.0-0.0","69517315","wem/bandit_party_1","A33QIOA2EYW0LC","either","5","214","","","","","","","0","0","1","0.1380641988","","0.2","0.4","0.6","0.8","","","","","0.2723245106","0.4504049656","0.3761312174","0.1380641988","","","","","","","","","","76","L","3","","","14","main_expt",""
"","bandit","95","331692","0.0-56.0-0.0","69517315","wem/bandit_party_1","A33QIOA2EYW0LC","either","5","323","","","","","","","0","0","1","","0.4017507227","0.2","0.4","0.6","0.8","0.3687644442","0.4281165459","0.4017507227","0.2010812313","","","","","","","","","","","","","","75","K","2","","","15","main_expt",""
"","bandit","96","334003","0.0-57.0-0.0","69517315","wem/bandit_party_1","A33QIOA2EYW0LC","either","5","803","","","","","","","0","0","1","","0.3992289848","0.2","0.4","0.6","0.8","0.3992289848","0.4035101098","0.3859888637","0.1747275657","","","","","","","","","","","","","","72","H","0","img/none_selected.jpg","","16","main_expt",""
"","bandit","97","335734","0.0-58.0-0.0","69517315","wem/bandit_party_1","A33QIOA2EYW0LC","either","5","221","","","","","","","0","1","0","","0.4067061876","0.2","0.4","0.6","0.8","0.4067061876","0.4063691663","0.3706978481","0.1816524112","","","","","","","","","","","","","","72","H","0","img/none_selected.jpg","","17","main_expt",""
"","bandit","98","337858","0.0-59.0-0.0","69517315","wem/bandit_party_1","A33QIOA2EYW0LC","either","5","614","","","","","","","0","1","0","","0.3969002131","0.2","0.4","0.6","0.8","0.3969002131","0.4201618032","0.3323991027","0.1700798448","","","","","","","","","","","","","","72","H","0","img/none_selected.jpg","","18","main_expt",""
"","bandit","99","340060","0.0-60.0-0.0","69517315","wem/bandit_party_1","A33QIOA2EYW0LC","either","5","690","","","","","","","0","1","0","","0.3930099592","0.2","0.4","0.6","0.8","0.3930099592","0.3868389751","0.3301718366","0.1998500639","","","","","","","","","","","","","","72","H","0","img/none_selected.jpg","","19","main_expt",""
"","bandit","100","341898","0.0-61.0-0.0","69517315","wem/bandit_party_1","A33QIOA2EYW0LC","either","5","328","","","","","","","0","0","1","","0.3791602553","0.2","0.4","0.6","0.8","0.3791602553","0.3868875991","0.3714618997","0.2418808817","","","","","","","","","","","","","","72","H","0","img/none_selected.jpg","","20","main_expt",""
"","bandit","101","343500","0.0-62.0-0.0","69517315","wem/bandit_party_1","A33QIOA2EYW0LC","either","5","92","","","","","","","0","1","0","","0.4127515201","0.2","0.4","0.6","0.8","0.4127515201","0.4253770554","0.3621694591","0.2293341009","","","","","","","","","","","","","","72","H","0","img/none_selected.jpg","","21","main_expt",""
"","bandit","102","345507","0.0-63.0-0.0","69517315","wem/bandit_party_1","A33QIOA2EYW0LC","either","5","497","","","","","","","0","1","0","","0.4164833055","0.2","0.4","0.6","0.8","0.4164833055","0.4285762007","0.3648829928","0.2074184163","","","","","","","","","","","","","","72","H","0","img/none_selected.jpg","","22","main_expt",""
"","bandit","103","347236","0.0-64.0-0.0","69517315","wem/bandit_party_1","A33QIOA2EYW0LC","either","5","218","","","","","","","0","1","0","","0.4143027846","0.2","0.4","0.6","0.8","0.4143027846","0.4082522222","0.2856994719","0.1832507358","","","","","","","","","","","","","","72","H","0","img/none_selected.jpg","","23","main_expt",""
"","bandit","104","349113","0.0-65.0-0.0","69517315","wem/bandit_party_1","A33QIOA2EYW0LC","either","5","367","","","","","","","0","0","1","","0.3649270698","0.2","0.4","0.6","0.8","0.3649270698","0.4027270218","0.3152516524","0.1469425149","","","","","","","","","","","","","","72","H","0","img/none_selected.jpg","","24","main_expt",""
"","bandit","105","351251","0.0-66.0-0.0","69517315","wem/bandit_party_1","A33QIOA2EYW0LC","either","5","627","","","","","","","0","0","1","","0.392676409","0.2","0.4","0.6","0.8","0.392676409","0.4100212433","0.2778145345","0.102794739","","","","","","","","","","","","","","72","H","0","img/none_selected.jpg","","25","main_expt",""
"","bandit","106","356157","0.0-67.0-0.0","69517315","wem/bandit_party_1","A33QIOA2EYW0LC","either","5","3394","","","","","","","0","1","0","","0.4031565401","0.2","0.4","0.6","0.8","0.4031565401","0.4190791169","0.3170506137","0.1173732637","","","","","","","","","","","","","","72","H","0","img/none_selected.jpg","","26","main_expt",""
"","bandit","107","358263","0.0-68.0-0.0","69517315","wem/bandit_party_1","A33QIOA2EYW0LC","either","5","591","","","","","","","0","0","1","","0.4245959001","0.2","0.4","0.6","0.8","0.4245959001","0.4527212376","0.3223143746","0.08835016803","","","","","","","","","","","","","","72","H","0","img/none_selected.jpg","","27","main_expt",""
"","bandit","108","360178","0.0-69.0-0.0","69517315","wem/bandit_party_1","A33QIOA2EYW0LC","either","5","404","","","","","","","0","1","0","","0.4232885055","0.2","0.4","0.6","0.8","0.4232885055","0.4480998813","0.3234472479","0.1134440288","","","","","","","","","","","","","","72","H","0","img/none_selected.jpg","","28","main_expt",""
"","bandit","109","362442","0.0-70.0-0.0","69517315","wem/bandit_party_1","A33QIOA2EYW0LC","either","5","754","","","","","","","0","1","0","","0.4495512981","0.2","0.4","0.6","0.8","0.4495512981","0.4628669208","0.2881425904","0.1982905849","","","","","","","","","","","","","","72","H","0","img/none_selected.jpg","","29","main_expt",""
"","bandit","110","364109","0.0-71.0-0.0","69517315","wem/bandit_party_1","A33QIOA2EYW0LC","either","5","151","","","","","","","0","0","1","","0.4485299892","0.2","0.4","0.6","0.8","0.4485299892","0.4565655028","0.2326555855","0.2366655967","","","","","","","","","","","","","","72","H","0","img/none_selected.jpg","","30","main_expt",""
"","bandit","111","367232","0.0-72.0-0.0","69517315","wem/bandit_party_1","A33QIOA2EYW0LC","either","5","1614","","","","","","","0","0","1","0.4599237238","","0.2","0.4","0.6","0.8","","","","","0.4599237238","0.4686031056","0.2364604256","0.1622470467","","","","","","","","","","72","H","0","img/none_selected.jpg","","31","main_expt",""
"","bandit","112","369178","0.0-73.0-0.0","69517315","wem/bandit_party_1","A33QIOA2EYW0LC","either","5","436","","","","","","","0","1","0","","0.4508116693","0.2","0.4","0.6","0.8","0.4508116693","0.4659582456","0.2451982598","0.1771911602","","","","","","","","","","","","","","72","H","0","img/none_selected.jpg","","32","main_expt",""
"","bandit","113","371360","0.0-74.0-0.0","69517315","wem/bandit_party_1","A33QIOA2EYW0LC","either","5","669","","","","","","","0","1","0","","0.45101727","0.2","0.4","0.6","0.8","0.45101727","0.4810757035","0.2360369815","0.1622836308","","","","","","","","","","","","","","72","H","0","img/none_selected.jpg","","33","main_expt",""
"","bandit","114","373227","0.0-75.0-0.0","69517315","wem/bandit_party_1","A33QIOA2EYW0LC","either","5","347","","","","","","","0","1","0","","0.4340174653","0.2","0.4","0.6","0.8","0.4340174653","0.4842727378","0.2317763892","0.1655985557","","","","","","","","","","","","","","72","H","0","img/none_selected.jpg","","34","main_expt",""
"","bandit","115","375148","0.0-76.0-0.0","69517315","wem/bandit_party_1","A33QIOA2EYW0LC","either","5","408","","","","","","","0","0","1","","0.4040147441","0.2","0.4","0.6","0.8","0.4040147441","0.4745470136","0.2527891731","0.1492797185","","","","","","","","","","","","","","72","H","0","img/none_selected.jpg","","35","main_expt",""
"","bandit","116","376988","0.0-77.0-0.0","69517315","wem/bandit_party_1","A33QIOA2EYW0LC","either","5","327","","","","","","","0","0","1","","0.4268829696","0.2","0.4","0.6","0.8","0.4268829696","0.4440965139","0.2641283143","0.1504543003","","","","","","","","","","","","","","72","H","0","img/none_selected.jpg","","36","main_expt",""
"","bandit","117","379095","0.0-78.0-0.0","69517315","wem/bandit_party_1","A33QIOA2EYW0LC","either","5","594","","","","","","","1","0","0","0.4544425755","","0.2","0.4","0.6","0.8","","","","","0.4562327564","0.4544425755","0.2309310423","0.1064249526","","","","","","","","","","74","J","1","","","37","main_expt",""
"","bandit","118","381048","0.0-79.0-0.0","69517315","wem/bandit_party_1","A33QIOA2EYW0LC","either","5","445","","","","","","","0","0","1","","0.4700138218","0.2","0.4","0.6","0.8","0.4481627861","0.4700138218","0.2093170459","0.1346530267","","","","","","","","","","","","","","74","J","1","","","38","main_expt",""
"","bandit","119","382904","0.0-80.0-0.0","69517315","wem/bandit_party_1","A33QIOA2EYW0LC","either","5","346","","","","","","","0","0","1","0.466948448","","0.2","0.4","0.6","0.8","","","","","0.4475890948","0.466948448","0.1398625959","0.1303494481","","","","","","","","","","74","J","1","","","39","main_expt",""
"","bandit","120","384717","0.0-81.0-0.0","69517315","wem/bandit_party_1","A33QIOA2EYW0LC","either","5","295","","","","","","","1","0","0","0.4679256248","","0.2","0.4","0.6","0.8","","","","","0.4501575696","0.4679256248","0.09690087606","0.1492074344","","","","","","","","","","74","J","1","","","40","main_expt",""
"","bandit","121","386572","0.0-82.0-0.0","69517315","wem/bandit_party_1","A33QIOA2EYW0LC","either","5","341","","","","","","","0","1","0","","0.445537573","0.2","0.4","0.6","0.8","0.4121884666","0.445537573","0.1129569356","0.1370672299","","","","","","","","","","","","","","74","J","1","","","41","main_expt",""
"","bandit","122","388385","0.0-83.0-0.0","69517315","wem/bandit_party_1","A33QIOA2EYW0LC","either","5","303","","","","","","","0","0","1","","0.4521531226","0.2","0.4","0.6","0.8","0.4379939247","0.4521531226","0.1227033228","0.08144147181","","","","","","","","","","","","","","74","J","1","","","42","main_expt",""
"","bandit","123","390027","0.0-84.0-0.0","69517315","wem/bandit_party_1","A33QIOA2EYW0LC","either","5","135","","","","","","","0","0","1","0.4695072217","","0.2","0.4","0.6","0.8","","","","","0.4271747655","0.4695072217","0.08393287497","0.06793865388","","","","","","","","","","74","J","1","","","43","main_expt",""
"","bandit","124","392543","0.0-85.0-0.0","69517315","wem/bandit_party_1","A33QIOA2EYW0LC","either","5","1008","","","","","","","0","0","1","","0.4480494518","0.2","0.4","0.6","0.8","0.4480494518","0.4807409838","0.06260074275","0.05295344446","","","","","","","","","","","","","","72","H","0","img/none_selected.jpg","","44","main_expt",""
"","bandit","125","394804","0.0-86.0-0.0","69517315","wem/bandit_party_1","A33QIOA2EYW0LC","either","5","748","","","","","","","0","0","1","0.08062123592","","0.2","0.4","0.6","0.8","","","","","0.4269729589","0.4507048108","0.08062123592","0.02744239742","","","","","","","","","","75","K","2","","","45","main_expt",""
"","bandit","126","396640","0.0-87.0-0.0","69517315","wem/bandit_party_1","A33QIOA2EYW0LC","either","5","327","","","","","","","0","0","1","","0.1110847749","0.2","0.4","0.6","0.8","0.4475746277","0.4382321206","0.1110847749","0.02347437243","","","","","","","","","","","","","","75","K","2","","","46","main_expt",""
"","bandit","127","398468","0.0-88.0-0.0","69517315","wem/bandit_party_1","A33QIOA2EYW0LC","either","5","314","","","","","","","0","0","1","0.02418160198","","0.2","0.4","0.6","0.8","","","","","0.4295618238","0.4393937913","0.05346849493","0.02418160198","","","","","","","","","","76","L","3","","","47","main_expt",""
"","bandit","128","400284","0.0-89.0-0.0","69517315","wem/bandit_party_1","A33QIOA2EYW0LC","either","5","303","","","","","","","0","0","1","0.01182676654","","0.2","0.4","0.6","0.8","","","","","0.4431907244","0.440318131","0.04499733497","0.01182676654","","","","","","","","","","76","L","3","","","48","main_expt",""
"","bandit","129","401802","0.0-90.0-0.0","69517315","wem/bandit_party_1","A33QIOA2EYW0LC","either","5","7","","","","","","","0","0","1","0.0186287842","","0.2","0.4","0.6","0.8","","","","","0.4187732916","0.4362102412","0.07378534534","0.0186287842","","","","","","","","","","76","L","3","","","49","main_expt",""
"","bandit","130","403489","0.0-91.0-0.0","69517315","wem/bandit_party_1","A33QIOA2EYW0LC","either","5","176","","","","","","","0","0","1","","0.44488671","0.2","0.4","0.6","0.8","0.356579213","0.44488671","0.06168845619","0.02550629551","","","","","","","","","","","","","","74","J","1","","","50","main_expt",""
"","bandit","131","405195","0.0-92.0-0.0","69517315","wem/bandit_party_1","A33QIOA2EYW0LC","either","5","194","","","","","","","0","0","1","0.4633405548","","0.2","0.4","0.6","0.8","","","","","0.2629404955","0.4633405548","0.1062028567","0.04366809707","","","","","","","","","","74","J","1","","","51","main_expt",""
"","bandit","132","407593","0.0-93.0-0.0","69517315","wem/bandit_party_1","A33QIOA2EYW0LC","either","5","887","","","","","","","0","0","1","","0.2919747068","0.2","0.4","0.6","0.8","0.2919747068","0.4528043762","0.1379608546","0.04357168116","","","","","","","","","","","","","","72","H","0","img/none_selected.jpg","","52","main_expt",""
"","bandit","133","410517","0.0-94.0-0.0","69517315","wem/bandit_party_1","A33QIOA2EYW0LC","either","5","1413","","","","","","","0","1","0","","0.3809901122","0.2","0.4","0.6","0.8","0.3809901122","0.4390431751","0.1356826849","0.03899227154","","","","","","","","","","","","","","72","H","0","img/none_selected.jpg","","53","main_expt",""
"","bandit","134","412665","0.0-95.0-0.0","69517315","wem/bandit_party_1","A33QIOA2EYW0LC","either","5","638","","","","","","","0","0","1","0.3452518694","","0.2","0.4","0.6","0.8","","","","","0.3452518694","0.4549270822","0.1038772241","0.04009146386","","","","","","","","","","72","H","0","img/none_selected.jpg","","54","main_expt",""
"","bandit","135","414303","0.0-96.0-0.0","69517315","wem/bandit_party_1","A33QIOA2EYW0LC","either","5","129","","","","","","","0","0","1","","0.4710341864","0.2","0.4","0.6","0.8","0.3263112327","0.4710341864","0.1689791829","0.0155768565","","","","","","","","","","","","","","74","J","1","","","55","main_expt",""
"","bandit","136","416608","0.0-97.0-0.0","69517315","wem/bandit_party_1","A33QIOA2EYW0LC","either","5","795","","","","","","","0","0","1","0.1108888145","","0.2","0.4","0.6","0.8","","","","","0.3308963945","0.4745834276","0.1108888145","0.02112461672","","","","","","","","","","75","K","2","","","56","main_expt",""
"","bandit","137","418434","0.0-98.0-0.0","69517315","wem/bandit_party_1","A33QIOA2EYW0LC","either","5","312","","","","","","","0","0","1","0.1206542402","","0.2","0.4","0.6","0.8","","","","","0.3150326571","0.489318572","0.1206542402","0.0126553198","","","","","","","","","","75","K","2","","","57","main_expt",""
"","bandit","138","420230","0.0-99.0-0.0","69517315","wem/bandit_party_1","A33QIOA2EYW0LC","either","5","279","","","","","","","0","0","1","","0.09707343937","0.2","0.4","0.6","0.8","0.3049116772","0.480037986","0.09707343937","0.01131359515","","","","","","","","","","","","","","75","K","2","","","58","main_expt",""
"","bandit","139","421835","0.0-100.0-0.0","69517315","wem/bandit_party_1","A33QIOA2EYW0LC","either","5","98","","","","","","","0","1","0","","0.4593461039","0.2","0.4","0.6","0.8","0.3050987947","0.4593461039","0.1044384952","0.01030075821","","","","","","","","","","","","","","74","J","1","","","59","main_expt",""
"","bandit","140","423626","0.0-101.0-0.0","69517315","wem/bandit_party_1","A33QIOA2EYW0LC","either","5","271","","","","","","","0","0","1","","0.446051488","0.2","0.4","0.6","0.8","0.3274009355","0.446051488","0.08890369623","0.005868957973","","","","","","","","","","","","","","74","J","1","","","60","main_expt",""
"","bandit","141","425577","0.0-102.0-0.0","69517315","wem/bandit_party_1","A33QIOA2EYW0LC","either","5","440","","","","","","","0","1","0","","0.4391285327","0.2","0.4","0.6","0.8","0.3428943983","0.4391285327","0.08921221942","0.004361943215","","","","","","","","","","","","","","74","J","1","","","61","main_expt",""
"","bandit","142","427891","0.0-103.0-0.0","69517315","wem/bandit_party_1","A33QIOA2EYW0LC","either","5","802","","","","","","","0","0","1","","0.4063883723","0.2","0.4","0.6","0.8","0.3549763931","0.4063883723","0.09812025034","0.005208412743","","","","","","","","","","","","","","74","J","1","","","62","main_expt",""
"","bandit","143","429408","0.0-104.0-0.0","69517315","wem/bandit_party_1","A33QIOA2EYW0LC","either","5","5","","","","","","","1","0","0","0.4330387396","","0.2","0.4","0.6","0.8","","","","","0.3496678451","0.4330387396","0.09006279409","0.006461011255","","","","","","","","","","74","J","1","","","63","main_expt",""
"","bandit","144","431219","0.0-105.0-0.0","69517315","wem/bandit_party_1","A33QIOA2EYW0LC","either","5","297","","","","","","","0","1","0","","0.4207902426","0.2","0.4","0.6","0.8","0.3188537263","0.4207902426","0.1118976224","0.01267926231","","","","","","","","","","","","","","74","J","1","","","64","main_expt",""
"","bandit","145","433110","0.0-106.0-0.0","69517315","wem/bandit_party_1","A33QIOA2EYW0LC","either","5","377","","","","","","","0","1","0","","0.3719582347","0.2","0.4","0.6","0.8","0.3191795336","0.3719582347","0.1053817613","0.009732787917","","","","","","","","","","","","","","74","J","1","","","65","main_expt",""
"","bandit","146","434985","0.0-107.0-0.0","69517315","wem/bandit_party_1","A33QIOA2EYW0LC","either","5","363","","","","","","","0","0","1","0.3748569955","","0.2","0.4","0.6","0.8","","","","","0.268616347","0.3748569955","0.1307356695","0.01092542651","","","","","","","","","","74","J","1","","","66","main_expt",""
"","bandit","147","437000","0.0-108.0-0.0","69517315","wem/bandit_party_1","A33QIOA2EYW0LC","either","5","505","","","","","","","0","0","1","","0.335252031","0.2","0.4","0.6","0.8","0.259194563","0.335252031","0.1418436428","0.02125534741","","","","","","","","","","","","","","74","J","1","","","67","main_expt",""
"","bandit","148","439229","0.0-109.0-0.0","69517315","wem/bandit_party_1","A33QIOA2EYW0LC","either","5","722","","","","","","","0","0","1","0.3199157278","","0.2","0.4","0.6","0.8","","","","","0.2281204868","0.3199157278","0.1459089566","0.02360283027","","","","","","","","","","74","J","1","","","68","main_expt",""
"","bandit","149","441176","0.0-110.0-0.0","69517315","wem/bandit_party_1","A33QIOA2EYW0LC","either","5","439","","","","","","","0","1","0","","0.3068525281","0.2","0.4","0.6","0.8","0.2195844169","0.3068525281","0.1809721424","0.02539305756","","","","","","","","","","","","","","74","J","1","","","69","main_expt",""
"","bandit","150","443172","0.0-111.0-0.0","69517315","wem/bandit_party_1","A33QIOA2EYW0LC","either","5","485","","","","","","","0","0","1","","0.3181076016","0.2","0.4","0.6","0.8","0.1883338509","0.3181076016","0.1784068974","0.05014388586","","","","","","","","","","","","","","74","J","1","","","70","main_expt",""
"","bandit","151","444758","0.0-112.0-0.0","69517315","wem/bandit_party_1","A33QIOA2EYW0LC","either","5","77","","","","","","","1","0","0","0.2926426422","","0.2","0.4","0.6","0.8","","","","","0.1639708178","0.2926426422","0.1973023396","0.04209054697","","","","","","","","","","74","J","1","","","71","main_expt",""
"","bandit","152","447007","0.0-113.0-0.0","69517315","wem/bandit_party_1","A33QIOA2EYW0LC","either","5","739","","","","","","","0","0","1","","0.2380263643","0.2","0.4","0.6","0.8","0.1312842785","0.2380263643","0.2436342847","0.05611199342","","","","","","","","","","","","","","74","J","1","","","72","main_expt",""
"","bandit","153","448547","0.0-114.0-0.0","69517315","wem/bandit_party_1","A33QIOA2EYW0LC","either","5","30","","","","","","","0","0","1","","0.2407197948","0.2","0.4","0.6","0.8","0.1805041857","0.2407197948","0.1992173182","0.05293238473","","","","","","","","","","","","","","74","J","1","","","73","main_expt",""
"","bandit","154","450463","0.0-115.0-0.0","69517315","wem/bandit_party_1","A33QIOA2EYW0LC","either","5","408","","","","","","","0","0","1","0.2317468449","","0.2","0.4","0.6","0.8","","","","","0.1739557812","0.2317468449","0.2347098304","0.0318456884","","","","","","","","","","74","J","1","","","74","main_expt",""
"","bandit","155","452150","0.0-116.0-0.0","69517315","wem/bandit_party_1","A33QIOA2EYW0LC","either","5","176","","","","","","","0","0","1","","0.2434916027","0.2","0.4","0.6","0.8","0.2434916027","0.2545997551","0.2641442137","0.03873230677","","","","","","","","","","","","","","72","H","0","img/none_selected.jpg","","75","main_expt",""
"","bandit","156","453977","0.0-117.0-0.0","69517315","wem/bandit_party_1","A33QIOA2EYW0LC","either","5","315","","","","","","","0","0","1","","0.2438468568","0.2","0.4","0.6","0.8","0.2438468568","0.2890845388","0.3192644053","0.03304947682","","","","","","","","","","","","","","72","H","0","img/none_selected.jpg","","76","main_expt",""
"","bandit","157","455601","0.0-118.0-0.0","69517315","wem/bandit_party_1","A33QIOA2EYW0LC","either","5","112","","","","","","","0","0","1","","0.2425324642","0.2","0.4","0.6","0.8","0.2425324642","0.2386362654","0.3351132613","0.02607887458","","","","","","","","","","","","","","72","H","0","img/none_selected.jpg","","77","main_expt",""
"","bandit","158","457263","0.0-119.0-0.0","69517315","wem/bandit_party_1","A33QIOA2EYW0LC","either","5","150","","","","","","","0","0","1","0.3086784207","","0.2","0.4","0.6","0.8","","","","","0.205588479","0.2673679704","0.3086784207","0.02492981692","","","","","","","","","","75","K","2","","","78","main_expt",""
"","bandit","159","459746","0.0-120.0-0.0","69517315","wem/bandit_party_1","A33QIOA2EYW0LC","either","5","969","","","","","","","0","1","0","","0.3076482073","0.2","0.4","0.6","0.8","0.213062191","0.2813811921","0.3076482073","0.01824110002","","","","","","","","","","","","","","75","K","2","","","79","main_expt",""
"","bandit","160","461552","0.0-121.0-0.0","69517315","wem/bandit_party_1","A33QIOA2EYW0LC","either","5","292","","","","","","","0","1","0","","0.3605025214","0.2","0.4","0.6","0.8","0.1852926048","0.2419447949","0.3605025214","0.0202176162","","","","","","","","","","","","","","75","K","2","","","80","main_expt",""
"","bandit","161","463112","0.0-122.0-0.0","69517315","wem/bandit_party_1","A33QIOA2EYW0LC","either","5","48","","","","","","","0","1","0","","0.3286166321","0.2","0.4","0.6","0.8","0.2332942271","0.323481111","0.3286166321","0.0252752587","","","","","","","","","","","","","","75","K","2","","","81","main_expt",""
"","bandit","162","465208","0.0-123.0-0.0","69517315","wem/bandit_party_1","A33QIOA2EYW0LC","either","5","585","","","","","","","0","0","1","0.3459677762","","0.2","0.4","0.6","0.8","","","","","0.2087797338","0.3097244961","0.3459677762","0.05668457717","","","","","","","","","","75","K","2","","","82","main_expt",""
"","bandit","163","466745","0.0-124.0-0.0","69517315","wem/bandit_party_1","A33QIOA2EYW0LC","either","5","26","","","","","","","0","0","1","0.3092751195","","0.2","0.4","0.6","0.8","","","","","0.2049979043","0.2787498647","0.3092751195","0.07760530004","","","","","","","","","","75","K","2","","","83","main_expt",""
"","bandit","164","468551","0.0-125.0-0.0","69517315","wem/bandit_party_1","A33QIOA2EYW0LC","either","5","296","","","","","","","0","0","1","0.03696005566","","0.2","0.4","0.6","0.8","","","","","0.2151780091","0.2589524449","0.3044630387","0.03696005566","","","","","","","","","","76","L","3","","","84","main_expt",""
"","bandit","165","470376","0.0-126.0-0.0","69517315","wem/bandit_party_1","A33QIOA2EYW0LC","either","5","311","","","","","","","0","0","1","0.04177257934","","0.2","0.4","0.6","0.8","","","","","0.1497615914","0.2769318636","0.2812480587","0.04177257934","","","","","","","","","","76","L","3","","","85","main_expt",""
"","bandit","166","533726","0.0-127.0-0.0","69517315","wem/bandit_party_1","A33QIOA2EYW0LC","either","5","61837","","","","","","","0","0","1","","0.1223687677","0.2","0.4","0.6","0.8","0.1223687677","0.2849222391","0.2506532223","0.0385770192","","","","","","","","","","","","","","72","H","0","img/none_selected.jpg","","86","main_expt",""
"","bandit","167","535737","0.0-128.0-0.0","69517315","wem/bandit_party_1","A33QIOA2EYW0LC","either","5","499","","","","","","","0","0","1","","0.3131087309","0.2","0.4","0.6","0.8","0.1472857413","0.3131087309","0.2269900387","0.03720252147","","","","","","","","","","","","","","74","J","1","","","87","main_expt",""
"","bandit","168","538674","0.0-129.0-0.0","69517315","wem/bandit_party_1","A33QIOA2EYW0LC","either","5","1422","","","","","","","0","0","1","","0.3038587512","0.2","0.4","0.6","0.8","0.1252586248","0.3038587512","0.1504729919","0.06746059371","","","","","","","","","","","","","","74","J","1","","","88","main_expt",""
"","bandit","169","540483","0.0-130.0-0.0","69517315","wem/bandit_party_1","A33QIOA2EYW0LC","either","5","297","","","","","","","0","1","0","","0.3308022157","0.2","0.4","0.6","0.8","0.1194927994","0.3308022157","0.1382070302","0.04069757945","","","","","","","","","","","","","","74","J","1","","","89","main_expt",""
"","bandit","170","542404","0.0-131.0-0.0","69517315","wem/bandit_party_1","A33QIOA2EYW0LC","either","5","408","","","","","","","0","1","0","","0.3574922351","0.2","0.4","0.6","0.8","0.1589750007","0.3574922351","0.1364765349","0.07325379503","","","","","","","","","","","","","","74","J","1","","","90","main_expt",""
"","bandit","171","544342","0.0-132.0-0.0","69517315","wem/bandit_party_1","A33QIOA2EYW0LC","either","5","423","","","","","","","0","1","0","","0.3729517688","0.2","0.4","0.6","0.8","0.1859960426","0.3729517688","0.09318196272","0.06877471811","","","","","","","","","","","","","","74","J","1","","","91","main_expt",""
"","bandit","172","546106","0.0-133.0-0.0","69517315","wem/bandit_party_1","A33QIOA2EYW0LC","either","5","253","","","","","","","0","0","1","","0.398352994","0.2","0.4","0.6","0.8","0.192419488","0.398352994","0.06946097624","0.04115987362","","","","","","","","","","","","","","74","J","1","","","92","main_expt",""
"","bandit","173","547826","0.0-134.0-0.0","69517315","wem/bandit_party_1","A33QIOA2EYW0LC","either","5","205","","","","","","","0","0","1","","0.4135860398","0.2","0.4","0.6","0.8","0.1716033463","0.4135860398","0.08102832817","0.07078892783","","","","","","","","","","","","","","74","J","1","","","93","main_expt",""
"","bandit","174","549364","0.0-135.0-0.0","69517315","wem/bandit_party_1","A33QIOA2EYW0LC","either","5","24","","","","","","","0","0","1","0.1935897604","","0.2","0.4","0.6","0.8","","","","","0.1935897604","0.3786880174","0.1271360848","0.05572868433","","","","","","","","","","72","H","0","img/none_selected.jpg","","94","main_expt",""
"","bandit","175","551000","0.0-136.0-0.0","69517315","wem/bandit_party_1","A33QIOA2EYW0LC","either","5","124","","","","","","","0","0","1","","0.1097592989","0.2","0.4","0.6","0.8","0.2193228015","0.3823424718","0.1097592989","0.05056929995","","","","","","","","","","","","","","75","K","2","","","95","main_expt",""
"","bandit","176","552664","0.0-137.0-0.0","69517315","wem/bandit_party_1","A33QIOA2EYW0LC","either","5","152","","","","","","","0","0","1","0.1085490834","","0.2","0.4","0.6","0.8","","","","","0.3262643469","0.3642725552","0.1085490834","0.04159874267","","","","","","","","","","75","K","2","","","96","main_expt",""
"","bandit","177","554952","0.0-138.0-0.0","69517315","wem/bandit_party_1","A33QIOA2EYW0LC","either","5","778","","","","","","","0","0","1","0.03654451862","","0.2","0.4","0.6","0.8","","","","","0.3207405496","0.3197717944","0.1049812554","0.03654451862","","","","","","","","","","76","L","3","","","97","main_expt",""
"","bandit","178","556757","0.0-139.0-0.0","69517315","wem/bandit_party_1","A33QIOA2EYW0LC","either","5","291","","","","","","","0","0","1","","0.04190300095","0.2","0.4","0.6","0.8","0.3712856991","0.2514424369","0.08177978443","0.04190300095","","","","","","","","","","","","","","76","L","3","","","98","main_expt",""
"","bandit","179","558289","0.0-140.0-0.0","69517315","wem/bandit_party_1","A33QIOA2EYW0LC","either","5","19","","","","","","","0","0","1","0.2926772137","","0.2","0.4","0.6","0.8","","","","","0.3740145378","0.2926772137","0.07574087804","0.08742990617","","","","","","","","","","74","J","1","","","99","main_expt",""
"","bandit","180","560025","0.0-141.0-0.0","69517315","wem/bandit_party_1","A33QIOA2EYW0LC","either","5","225","","","","","","","0","0","1","","0.234485335","0.2","0.4","0.6","0.8","0.3776295542","0.234485335","0.07829319678","0.08966523481","","","","","","","","","","","","","","74","J","1","","","100","main_expt",""
"","bandit","181","561583","0.0-142.0-0.0","69517315","wem/bandit_party_1","A33QIOA2EYW0LC","either","5","46","","","","","","","0","0","1","","0.250352175","0.2","0.4","0.6","0.8","0.3592666398","0.250352175","0.07919243683","0.07849065771","","","","","","","","","","","","","","74","J","1","","","101","main_expt",""
"","bandit","182","563937","0.0-143.0-0.0","69517315","wem/bandit_party_1","A33QIOA2EYW0LC","either","5","839","","","","","","","0","1","0","","0.3412191773","0.2","0.4","0.6","0.8","0.3412191773","0.2139972863","0.1052753188","0.1054267613","","","","","","","","","","","","","","72","H","0","img/none_selected.jpg","","102","main_expt",""
"","bandit","183","565719","0.0-144.0-0.0","69517315","wem/bandit_party_1","A33QIOA2EYW0LC","either","5","267","","","","","","","0","0","1","","0.3133100433","0.2","0.4","0.6","0.8","0.3133100433","0.20092706","0.1248526142","0.1120981937","","","","","","","","","","","","","","72","H","0","img/none_selected.jpg","","103","main_expt",""
"","bandit","184","567371","0.0-145.0-0.0","69517315","wem/bandit_party_1","A33QIOA2EYW0LC","either","5","136","","","","","","","0","0","1","","0.3219148419","0.2","0.4","0.6","0.8","0.3219148419","0.2305366804","0.142969925","0.1034740879","","","","","","","","","","","","","","72","H","0","img/none_selected.jpg","","104","main_expt",""
"","bandit","185","568946","0.0-146.0-0.0","69517315","wem/bandit_party_1","A33QIOA2EYW0LC","either","5","62","","","","","","","0","0","1","","0.3300892518","0.2","0.4","0.6","0.8","0.3300892518","0.2102135581","0.13947254","0.07597240327","","","","","","","","","","","","","","72","H","0","img/none_selected.jpg","","105","main_expt",""
"","bandit","186","570715","0.0-147.0-0.0","69517315","wem/bandit_party_1","A33QIOA2EYW0LC","either","5","253","","","","","","","0","1","0","","0.3401839058","0.2","0.4","0.6","0.8","0.3401839058","0.2219457329","0.1329526997","0.1124257427","","","","","","","","","","","","","","72","H","0","img/none_selected.jpg","","106","main_expt",""
"","bandit","187","572361","0.0-148.0-0.0","69517315","wem/bandit_party_1","A33QIOA2EYW0LC","either","5","135","","","","","","","0","0","1","","0.3784706915","0.2","0.4","0.6","0.8","0.3784706915","0.3048423019","0.1727290233","0.1133168519","","","","","","","","","","","","","","72","H","0","img/none_selected.jpg","","107","main_expt",""
"","bandit","188","574800","0.0-149.0-0.0","69517315","wem/bandit_party_1","A33QIOA2EYW0LC","either","5","927","","","","","","","1","0","0","0.1864487031","","0.2","0.4","0.6","0.8","","","","","0.3945753887","0.258150515","0.1864487031","0.1752395656","","","","","","","","","","75","K","2","","","108","main_expt",""
"","bandit","189","576598","0.0-150.0-0.0","69517315","wem/bandit_party_1","A33QIOA2EYW0LC","either","5","287","","","","","","","0","0","1","0.2463216238","","0.2","0.4","0.6","0.8","","","","","0.356827327","0.1859129148","0.2463216238","0.1862973424","","","","","","","","","","75","K","2","","","109","main_expt",""
"","bandit","190","578545","0.0-151.0-0.0","69517315","wem/bandit_party_1","A33QIOA2EYW0LC","either","5","436","","","","","","","0","0","1","0.2431522628","","0.2","0.4","0.6","0.8","","","","","0.2344179837","0.1371624404","0.2431522628","0.2015845776","","","","","","","","","","75","K","2","","","110","main_expt",""
"","bandit","191","580458","0.0-152.0-0.0","69517315","wem/bandit_party_1","A33QIOA2EYW0LC","either","5","399","","","","","","","0","0","1","0.1757476643","","0.2","0.4","0.6","0.8","","","","","0.2644823096","0.1258232978","0.1757476643","0.2003651753","","","","","","","","","","75","K","2","","","111","main_expt",""
"","bandit","192","582225","0.0-153.0-0.0","69517315","wem/bandit_party_1","A33QIOA2EYW0LC","either","5","256","","","","","","","0","0","1","0.2451518953","","0.2","0.4","0.6","0.8","","","","","0.28311182","0.1529967373","0.2451518953","0.21392293","","","","","","","","","","75","K","2","","","112","main_expt",""
"","bandit","193","583983","0.0-154.0-0.0","69517315","wem/bandit_party_1","A33QIOA2EYW0LC","either","5","249","","","","","","","0","0","1","","0.1606798039","0.2","0.4","0.6","0.8","0.2413269532","0.148248117","0.2407836715","0.1606798039","","","","","","","","","","","","","","76","L","3","","","113","main_expt",""
"","bandit","194","585872","0.0-155.0-0.0","69517315","wem/bandit_party_1","A33QIOA2EYW0LC","either","5","379","","","","","","","0","0","1","0.2095980235","","0.2","0.4","0.6","0.8","","","","","0.3100969134","0.1562208239","0.3099317417","0.2095980235","","","","","","","","","","76","L","3","","","114","main_expt",""
"","bandit","195","587814","0.0-156.0-0.0","69517315","wem/bandit_party_1","A33QIOA2EYW0LC","either","5","431","","","","","","","0","0","1","0.2550279667","","0.2","0.4","0.6","0.8","","","","","0.329842252","0.2138032898","0.3180754701","0.2550279667","","","","","","","","","","76","L","3","","","115","main_expt",""
"","bandit","196","589404","0.0-157.0-0.0","69517315","wem/bandit_party_1","A33QIOA2EYW0LC","either","5","74","","","","","","","0","0","1","0.2471764387","","0.2","0.4","0.6","0.8","","","","","0.3223706096","0.2331260325","0.2919742107","0.2471764387","","","","","","","","","","76","L","3","","","116","main_expt",""
"","bandit","197","591411","0.0-158.0-0.0","69517315","wem/bandit_party_1","A33QIOA2EYW0LC","either","5","496","","","","","","","0","0","1","0.1826309729","","0.2","0.4","0.6","0.8","","","","","0.3098408215","0.1826309729","0.2799774295","0.2730878341","","","","","","","","","","74","J","1","","","117","main_expt",""
"","bandit","198","593299","0.0-159.0-0.0","69517315","wem/bandit_party_1","A33QIOA2EYW0LC","either","5","376","","","","","","","0","0","1","0.1511269107","","0.2","0.4","0.6","0.8","","","","","0.2974554567","0.1511269107","0.2646714695","0.2071462199","","","","","","","","","","74","J","1","","","118","main_expt",""
"","bandit","199","595823","0.0-160.0-0.0","69517315","wem/bandit_party_1","A33QIOA2EYW0LC","either","5","1016","","","","","","","0","0","1","","0.1559979654","0.2","0.4","0.6","0.8","0.3598468986","0.1559979654","0.3179839519","0.2275232499","","","","","","","","","","","","","","74","J","1","","","119","main_expt",""
"","bandit","200","597640","0.0-161.0-0.0","69517315","wem/bandit_party_1","A33QIOA2EYW0LC","either","5","307","","","","","","","0","0","1","","0.1463004055","0.2","0.4","0.6","0.8","0.2984373086","0.1463004055","0.3302262658","0.2767559596","","","","","","","","","","","","","","74","J","1","","","120","main_expt",""
"","bandit","201","599413","0.0-162.0-0.0","69517315","wem/bandit_party_1","A33QIOA2EYW0LC","either","5","260","","","","","","","0","0","1","","0.2973090059","0.2","0.4","0.6","0.8","0.2973090059","0.1418195479","0.3500549905","0.3448590315","","","","","","","","","","","","","","72","H","0","img/none_selected.jpg","","121","main_expt",""
"","bandit","202","601146","0.0-163.0-0.0","69517315","wem/bandit_party_1","A33QIOA2EYW0LC","either","5","220","","","","","","","1","0","0","0.3382791822","","0.2","0.4","0.6","0.8","","","","","0.3382791822","0.1270782113","0.2686616284","0.3593301016","","","","","","","","","","72","H","0","img/none_selected.jpg","","122","main_expt",""
"","bandit","203","602897","0.0-164.0-0.0","69517315","wem/bandit_party_1","A33QIOA2EYW0LC","either","5","238","","","","","","","0","1","0","","0.3154347028","0.2","0.4","0.6","0.8","0.3154347028","0.1207154071","0.2277230314","0.3680529171","","","","","","","","","","","","","","72","H","0","img/none_selected.jpg","","123","main_expt",""
"","bandit","204","604752","0.0-165.0-0.0","69517315","wem/bandit_party_1","A33QIOA2EYW0LC","either","5","337","","","","","","","0","0","1","","0.2966737815","0.2","0.4","0.6","0.8","0.2966737815","0.1229329119","0.3287090939","0.3476523483","","","","","","","","","","","","","","72","H","0","img/none_selected.jpg","","124","main_expt",""
"","bandit","205","606582","0.0-166.0-0.0","69517315","wem/bandit_party_1","A33QIOA2EYW0LC","either","5","319","","","","","","","0","0","1","","0.3094831126","0.2","0.4","0.6","0.8","0.3094831126","0.09241122996","0.3687339586","0.3564603465","","","","","","","","","","","","","","72","H","0","img/none_selected.jpg","","125","main_expt",""
"","bandit","206","608369","0.0-167.0-0.0","69517315","wem/bandit_party_1","A33QIOA2EYW0LC","either","5","276","","","","","","","0","0","1","","0.2488993205","0.2","0.4","0.6","0.8","0.2488993205","0.08418962236","0.3836195774","0.3550684458","","","","","","","","","","","","","","72","H","0","img/none_selected.jpg","","126","main_expt",""
"","bandit","207","610188","0.0-168.0-0.0","69517315","wem/bandit_party_1","A33QIOA2EYW0LC","either","5","307","","","","","","","0","0","1","0.1953487027","","0.2","0.4","0.6","0.8","","","","","0.1953487027","0.154715772","0.3617365958","0.3235559827","","","","","","","","","","72","H","0","img/none_selected.jpg","","127","main_expt",""
"","bandit","208","611730","0.0-169.0-0.0","69517315","wem/bandit_party_1","A33QIOA2EYW0LC","either","5","29","","","","","","","1","0","0","0.2171889907","","0.2","0.4","0.6","0.8","","","","","0.2171889907","0.1556709078","0.3235283493","0.312087491","","","","","","","","","","72","H","0","img/none_selected.jpg","","128","main_expt",""
"","bandit","209","613311","0.0-170.0-0.0","69517315","wem/bandit_party_1","A33QIOA2EYW0LC","either","5","73","","","","","","","0","0","1","0.2467699801","","0.2","0.4","0.6","0.8","","","","","0.2467699801","0.1214200615","0.3453830546","0.2843272188","","","","","","","","","","72","H","0","img/none_selected.jpg","","129","main_expt",""
"","bandit","210","615514","0.0-171.0-0.0","69517315","wem/bandit_party_1","A33QIOA2EYW0LC","either","5","689","","","","","","","0","0","1","","0.2814443482","0.2","0.4","0.6","0.8","0.2814443482","0.1377283829","0.3242747857","0.2128416856","","","","","","","","","","","","","","72","H","0","img/none_selected.jpg","","130","main_expt",""
"","bandit","211","617332","0.0-172.0-0.0","69517315","wem/bandit_party_1","A33QIOA2EYW0LC","either","5","302","","","","","","","0","0","1","","0.2834176508","0.2","0.4","0.6","0.8","0.2834176508","0.1397421628","0.3417201858","0.2403879813","","","","","","","","","","","","","","72","H","0","img/none_selected.jpg","","131","main_expt",""
"","bandit","212","618889","0.0-173.0-0.0","69517315","wem/bandit_party_1","A33QIOA2EYW0LC","either","5","43","","","","","","","0","0","1","","0.1061875113","0.2","0.4","0.6","0.8","0.2429908031","0.1061875113","0.3498614837","0.2811421594","","","","","","","","","","","","","","74","J","1","","","132","main_expt",""
"","bandit","213","620757","0.0-174.0-0.0","69517315","wem/bandit_party_1","A33QIOA2EYW0LC","either","5","353","","","","","","","0","0","1","","0.07774811701","0.2","0.4","0.6","0.8","0.3053559495","0.07774811701","0.3134828643","0.3002858371","","","","","","","","","","","","","","74","J","1","","","133","main_expt",""
"","bandit","214","622935","0.0-175.0-0.0","69517315","wem/bandit_party_1","A33QIOA2EYW0LC","either","5","666","","","","","","","0","0","1","","0.08211281178","0.2","0.4","0.6","0.8","0.2693478067","0.08211281178","0.3554593188","0.277406375","","","","","","","","","","","","","","74","J","1","","","134","main_expt",""
"","bandit","215","624718","0.0-176.0-0.0","69517315","wem/bandit_party_1","A33QIOA2EYW0LC","either","5","271","","","","","","","0","0","1","0.1123817552","","0.2","0.4","0.6","0.8","","","","","0.3369166079","0.1123817552","0.3150900126","0.2897147582","","","","","","","","","","74","J","1","","","135","main_expt",""
"","bandit","216","628432","0.0-177.0-0.0","69517315","wem/bandit_party_1","A33QIOA2EYW0LC","either","5","2203","","","","","","","0","0","1","0.1478339482","","0.2","0.4","0.6","0.8","","","","","0.268603144","0.1478339482","0.3199395785","0.3590576628","","","","","","","","","","74","J","1","","","136","main_expt",""
"","bandit","217","630547","0.0-178.0-0.0","69517315","wem/bandit_party_1","A33QIOA2EYW0LC","either","5","598","","","","","","","0","1","0","","0.33362357","0.2","0.4","0.6","0.8","0.2373427956","0.1374936615","0.33362357","0.3822427384","","","","","","","","","","","","","","75","K","2","","","137","main_expt",""
"","bandit","218","632446","0.0-179.0-0.0","69517315","wem/bandit_party_1","A33QIOA2EYW0LC","either","5","383","","","","","","","0","0","1","","0.3611324022","0.2","0.4","0.6","0.8","0.2206869265","0.159761955","0.3611324022","0.3410071165","","","","","","","","","","","","","","75","K","2","","","138","main_expt",""
"","bandit","219","634288","0.0-180.0-0.0","69517315","wem/bandit_party_1","A33QIOA2EYW0LC","either","5","331","","","","","","","1","0","0","0.3504145086","","0.2","0.4","0.6","0.8","","","","","0.2177966349","0.1363721132","0.3504145086","0.3738014659","","","","","","","","","","75","K","2","","","139","main_expt",""
"","bandit","220","636184","0.0-181.0-0.0","69517315","wem/bandit_party_1","A33QIOA2EYW0LC","either","5","382","","","","","","","1","0","0","0.309774603","","0.2","0.4","0.6","0.8","","","","","0.2387685432","0.1031445192","0.309774603","0.422575493","","","","","","","","","","75","K","2","","","140","main_expt",""
"","bandit","221","638033","0.0-182.0-0.0","69517315","wem/bandit_party_1","A33QIOA2EYW0LC","either","5","332","","","","","","","0","1","0","","0.3506531288","0.2","0.4","0.6","0.8","0.2575087366","0.09805286369","0.3506531288","0.4439129864","","","","","","","","","","","","","","75","K","2","","","141","main_expt",""
"","bandit","222","639741","0.0-183.0-0.0","69517315","wem/bandit_party_1","A33QIOA2EYW0LC","either","5","195","","","","","","","0","0","1","0.2965027242","","0.2","0.4","0.6","0.8","","","","","0.2392038972","0.1149002948","0.2965027242","0.4323802182","","","","","","","","","","75","K","2","","","142","main_expt",""
"","bandit","223","641483","0.0-184.0-0.0","69517315","wem/bandit_party_1","A33QIOA2EYW0LC","either","5","225","","","","","","","0","0","1","","0.2087517366","0.2","0.4","0.6","0.8","0.2216470548","0.1209542099","0.2087517366","0.4358412593","","","","","","","","","","","","","","75","K","2","","","143","main_expt",""
"","bandit","224","643131","0.0-185.0-0.0","69517315","wem/bandit_party_1","A33QIOA2EYW0LC","either","5","134","","","","","","","0","0","1","","0.2313605626","0.2","0.4","0.6","0.8","0.2224896139","0.1202521083","0.2313605626","0.4407373256","","","","","","","","","","","","","","75","K","2","","","144","main_expt",""
"","bandit","225","644643","0.0-186.0-0.0","69517315","wem/bandit_party_1","A33QIOA2EYW0LC","either","5","1","","","","","","","0","0","1","0.1785565547","","0.2","0.4","0.6","0.8","","","","","0.1925605464","0.1619743669","0.1785565547","0.4661091035","","","","","","","","","","75","K","2","","","145","main_expt",""
"","bandit","226","646597","0.0-187.0-0.0","69517315","wem/bandit_party_1","A33QIOA2EYW0LC","either","5","439","","","","","","","0","0","1","0.1770660648","","0.2","0.4","0.6","0.8","","","","","0.2069800611","0.1664631043","0.1770660648","0.4637097668","","","","","","","","","","75","K","2","","","146","main_expt",""
"","bandit","227","648447","0.0-188.0-0.0","69517315","wem/bandit_party_1","A33QIOA2EYW0LC","either","5","335","","","","","","","0","1","0","","0.1063371611","0.2","0.4","0.6","0.8","0.2489662189","0.1669241763","0.1063371611","0.4700491642","","","","","","","","","","","","","","75","K","2","","","147","main_expt",""
"","bandit","228","650290","0.0-189.0-0.0","69517315","wem/bandit_party_1","A33QIOA2EYW0LC","either","5","328","","","","","","","0","0","1","","0.1216370817","0.2","0.4","0.6","0.8","0.1946464158","0.1581456949","0.1216370817","0.4648109734","","","","","","","","","","","","","","75","K","2","","","148","main_expt",""
"","bandit","229","651907","0.0-190.0-0.0","69517315","wem/bandit_party_1","A33QIOA2EYW0LC","either","5","100","","","","","","","0","0","1","0.1024256959","","0.2","0.4","0.6","0.8","","","","","0.1826562491","0.1698392466","0.1024256959","0.4635511513","","","","","","","","","","75","K","2","","","149","main_expt",""
"","bandit","230","653828","0.0-191.0-0.0","69517315","wem/bandit_party_1","A33QIOA2EYW0LC","either","5","405","","","","","","","0","0","1","0.1371094633","","0.2","0.4","0.6","0.8","","","","","0.1750473563","0.2140114634","0.1371094633","0.4445017148","","","","","","","","","","75","K","2","","","150","main_expt",""
"","bandit","231","655542","0.0-192.0-0.0","69517315","wem/bandit_party_1","A33QIOA2EYW0LC","either","5","202","","","","","","","0","0","1","0.1702433702","","0.2","0.4","0.6","0.8","","","","","0.1109536645","0.2392960001","0.1702433702","0.4434799742","","","","","","","","","","75","K","2","","","151","main_expt",""
"","bandit","232","658123","0.0-193.0-0.0","69517315","wem/bandit_party_1","A33QIOA2EYW0LC","either","5","1066","","","","","","","0","0","1","0.1860489046","","0.2","0.4","0.6","0.8","","","","","0.1143086707","0.2095863317","0.1860489046","0.4451665291","","","","","","","","","","75","K","2","","","152","main_expt",""
"","bandit","233","660079","0.0-194.0-0.0","69517315","wem/bandit_party_1","A33QIOA2EYW0LC","either","5","444","","","","","","","0","0","1","","0.2117094388","0.2","0.4","0.6","0.8","0.1236290712","0.2543258611","0.2117094388","0.4401532833","","","","","","","","","","","","","","75","K","2","","","153","main_expt",""
"","bandit","234","662031","0.0-195.0-0.0","69517315","wem/bandit_party_1","A33QIOA2EYW0LC","either","5","440","","","","","","","0","0","1","","0.2072389033","0.2","0.4","0.6","0.8","0.1600695342","0.2602259906","0.2072389033","0.4516855879","","","","","","","","","","","","","","75","K","2","","","154","main_expt",""
"","bandit","235","663968","0.0-196.0-0.0","69517315","wem/bandit_party_1","A33QIOA2EYW0LC","either","5","424","","","","","","","0","0","1","0.4480264808","","0.2","0.4","0.6","0.8","","","","","0.1770288166","0.2750581274","0.1986333914","0.4480264808","","","","","","","","","","76","L","3","","","155","main_expt",""
"","bandit","236","666138","0.0-197.0-0.0","69517315","wem/bandit_party_1","A33QIOA2EYW0LC","either","5","653","","","","","","","0","0","1","0.4260414265","","0.2","0.4","0.6","0.8","","","","","0.1761817894","0.2438045727","0.2054640346","0.4260414265","","","","","","","","","","76","L","3","","","156","main_expt",""
"","bandit","237","668137","0.0-198.0-0.0","69517315","wem/bandit_party_1","A33QIOA2EYW0LC","either","5","484","","","","","","","1","0","0","0.4365201507","","0.2","0.4","0.6","0.8","","","","","0.1998830888","0.2857025143","0.1810715383","0.4365201507","","","","","","","","","","76","L","3","","","157","main_expt",""
"","bandit","238","669810","0.0-199.0-0.0","69517315","wem/bandit_party_1","A33QIOA2EYW0LC","either","5","157","","","","","","","0","0","1","0.4076244479","","0.2","0.4","0.6","0.8","","","","","0.2150354531","0.2887719476","0.2118906364","0.4076244479","","","","","","","","","","76","L","3","","","158","main_expt",""
"","bandit","239","671651","0.0-200.0-0.0","69517315","wem/bandit_party_1","A33QIOA2EYW0LC","either","5","324","","","","","","","1","0","0","0.2293976715","","0.2","0.4","0.6","0.8","","","","","0.2221069796","0.2859462397","0.2293976715","0.403953851","","","","","","","","","","75","K","2","","","159","main_expt",""
"","bandit","240","673439","0.0-201.0-0.0","69517315","wem/bandit_party_1","A33QIOA2EYW0LC","either","5","279","","","","","","","1","0","0","0.2186051381","","0.2","0.4","0.6","0.8","","","","","0.2627335039","0.207432816","0.2186051381","0.4282135537","","","","","","","","","","75","K","2","","","160","main_expt",""
"","bandit","241","675259","0.0-202.0-0.0","69517315","wem/bandit_party_1","A33QIOA2EYW0LC","either","5","306","","","","","","","0","0","1","0.2175927206","","0.2","0.4","0.6","0.8","","","","","0.2922457848","0.1611694724","0.2175927206","0.4479073124","","","","","","","","","","75","K","2","","","161","main_expt",""
"","bandit","242","677046","0.0-203.0-0.0","69517315","wem/bandit_party_1","A33QIOA2EYW0LC","either","5","275","","","","","","","0","0","1","0.2370404117","","0.2","0.4","0.6","0.8","","","","","0.3040212123","0.14378348","0.2370404117","0.4456201243","","","","","","","","","","75","K","2","","","162","main_expt",""
"","bandit","243","678837","0.0-204.0-0.0","69517315","wem/bandit_party_1","A33QIOA2EYW0LC","either","5","282","","","","","","","0","1","0","","0.2778780432","0.2","0.4","0.6","0.8","0.2933359027","0.1707099899","0.2778780432","0.4384930657","","","","","","","","","","","","","","75","K","2","","","163","main_expt",""
"","bandit","244","680634","0.0-205.0-0.0","69517315","wem/bandit_party_1","A33QIOA2EYW0LC","either","5","281","","","","","","","1","0","0","0.2643388611","","0.2","0.4","0.6","0.8","","","","","0.2388203062","0.1933693166","0.2643388611","0.4231568034","","","","","","","","","","75","K","2","","","164","main_expt",""
"","bandit","245","682462","0.0-206.0-0.0","69517315","wem/bandit_party_1","A33QIOA2EYW0LC","either","5","311","","","","","","","1","0","0","0.1967204453","","0.2","0.4","0.6","0.8","","","","","0.2646204916","0.2406324952","0.1967204453","0.4412535734","","","","","","","","","","75","K","2","","","165","main_expt",""
"","bandit","246","684320","0.0-207.0-0.0","69517315","wem/bandit_party_1","A33QIOA2EYW0LC","either","5","345","","","","","","","0","0","1","","0.1567937345","0.2","0.4","0.6","0.8","0.2591758032","0.2650462377","0.1567937345","0.438364003","","","","","","","","","","","","","","75","K","2","","","166","main_expt",""
"","bandit","247","686138","0.0-208.0-0.0","69517315","wem/bandit_party_1","A33QIOA2EYW0LC","either","5","304","","","","","","","0","0","1","0.1201482918","","0.2","0.4","0.6","0.8","","","","","0.1955934818","0.245875583","0.1201482918","0.4290991351","","","","","","","","","","75","K","2","","","167","main_expt",""
"","bandit","248","687757","0.0-209.0-0.0","69517315","wem/bandit_party_1","A33QIOA2EYW0LC","either","5","106","","","","","","","0","0","1","","0.0936051119","0.2","0.4","0.6","0.8","0.2090603634","0.257303599","0.0936051119","0.4510860662","","","","","","","","","","","","","","75","K","2","","","168","main_expt",""
"","bandit","249","689574","0.0-210.0-0.0","69517315","wem/bandit_party_1","A33QIOA2EYW0LC","either","5","303","","","","","","","0","0","1","0.08775096918","","0.2","0.4","0.6","0.8","","","","","0.2678479696","0.2993732043","0.08775096918","0.4491424364","","","","","","","","","","75","K","2","","","169","main_expt",""
"","bandit","250","691517","0.0-211.0-0.0","69517315","wem/bandit_party_1","A33QIOA2EYW0LC","either","5","431","","","","","","","0","0","1","0.06743429675","","0.2","0.4","0.6","0.8","","","","","0.2532125956","0.3388977639","0.06743429675","0.4332244901","","","","","","","","","","75","K","2","","","170","main_expt",""
"","bandit","251","693297","0.0-212.0-0.0","69517315","wem/bandit_party_1","A33QIOA2EYW0LC","either","5","266","","","","","","","0","0","1","","0.05979118822","0.2","0.4","0.6","0.8","0.2568627054","0.2947926635","0.05979118822","0.4405036994","","","","","","","","","","","","","","75","K","2","","","171","main_expt",""
"","bandit","252","695052","0.0-213.0-0.0","69517315","wem/bandit_party_1","A33QIOA2EYW0LC","either","5","239","","","","","","","0","0","1","0.03200499914","","0.2","0.4","0.6","0.8","","","","","0.2451563353","0.2892529657","0.03200499914","0.4358521759","","","","","","","","","","75","K","2","","","172","main_expt",""
"","bandit","253","696961","0.0-214.0-0.0","69517315","wem/bandit_party_1","A33QIOA2EYW0LC","either","5","397","","","","","","","0","0","1","0.04613358223","","0.2","0.4","0.6","0.8","","","","","0.3003395367","0.2571917514","0.04613358223","0.4471617722","","","","","","","","","","75","K","2","","","173","main_expt",""
"","bandit","254","698632","0.0-215.0-0.0","69517315","wem/bandit_party_1","A33QIOA2EYW0LC","either","5","156","","","","","","","0","0","1","0.05969677181","","0.2","0.4","0.6","0.8","","","","","0.2545998681","0.244173221","0.05969677181","0.4560251174","","","","","","","","","","75","K","2","","","174","main_expt",""
"","bandit","255","700501","0.0-216.0-0.0","69517315","wem/bandit_party_1","A33QIOA2EYW0LC","either","5","351","","","","","","","0","0","1","0.05930066603","","0.2","0.4","0.6","0.8","","","","","0.3383135611","0.2038098688","0.05930066603","0.4379349024","","","","","","","","","","75","K","2","","","175","main_expt",""
"","bandit","256","702302","0.0-217.0-0.0","69517315","wem/bandit_party_1","A33QIOA2EYW0LC","either","5","289","","","","","","","0","0","1","0.08110879181","","0.2","0.4","0.6","0.8","","","","","0.3880627729","0.2053823003","0.08110879181","0.4328841116","","","","","","","","","","75","K","2","","","176","main_expt",""
"","bandit","257","704105","0.0-218.0-0.0","69517315","wem/bandit_party_1","A33QIOA2EYW0LC","either","5","289","","","","","","","0","0","1","","0.07611568943","0.2","0.4","0.6","0.8","0.3920994557","0.2193083282","0.07611568943","0.3965365967","","","","","","","","","","","","","","75","K","2","","","177","main_expt",""
"","bandit","258","705858","0.0-219.0-0.0","69517315","wem/bandit_party_1","A33QIOA2EYW0LC","either","5","237","","","","","","","0","0","1","","0.1220467165","0.2","0.4","0.6","0.8","0.3882277994","0.1904263594","0.1220467165","0.3899234309","","","","","","","","","","","","","","75","K","2","","","178","main_expt",""
"","bandit","259","707734","0.0-220.0-0.0","69517315","wem/bandit_party_1","A33QIOA2EYW0LC","either","5","361","","","","","","","0","0","1","","0.2212788648","0.2","0.4","0.6","0.8","0.3939691408","0.2212788648","0.1698853315","0.4238443777","","","","","","","","","","","","","","74","J","1","","","179","main_expt",""
"","bandit","260","709592","0.0-221.0-0.0","69517315","wem/bandit_party_1","A33QIOA2EYW0LC","either","5","342","","","","","","","0","0","1","0.2640717145","","0.2","0.4","0.6","0.8","","","","","0.4074656662","0.2640717145","0.1374762061","0.4487400994","","","","","","","","","","74","J","1","","","180","main_expt",""
"","bandit","261","711648","0.0-222.0-0.0","69517315","wem/bandit_party_1","A33QIOA2EYW0LC","either","5","541","","","","","","","0","0","1","","0.2426483564","0.2","0.4","0.6","0.8","0.3724421945","0.2426483564","0.09961924189","0.4314573438","","","","","","","","","","","","","","74","J","1","","","181","main_expt",""
"","bandit","262","713540","0.0-223.0-0.0","69517315","wem/bandit_party_1","A33QIOA2EYW0LC","either","5","383","","","","","","","0","0","1","","0.2001563476","0.2","0.4","0.6","0.8","0.2998177931","0.2001563476","0.1391043194","0.4458059303","","","","","","","","","","","","","","74","J","1","","","182","main_expt",""
"","bandit","263","715639","0.0-224.0-0.0","69517315","wem/bandit_party_1","A33QIOA2EYW0LC","either","5","586","","","","","","","0","1","0","","0.2167094124","0.2","0.4","0.6","0.8","0.3629728763","0.2167094124","0.1336424596","0.4485460149","","","","","","","","","","","","","","74","J","1","","","183","main_expt",""
"","bandit","264","717616","0.0-225.0-0.0","69517315","wem/bandit_party_1","A33QIOA2EYW0LC","either","5","461","","","","","","","0","0","1","","0.2402813617","0.2","0.4","0.6","0.8","0.3763603645","0.2402813617","0.115911235","0.4078350507","","","","","","","","","","","","","","74","J","1","","","184","main_expt",""
"","bandit","265","719787","0.0-226.0-0.0","69517315","wem/bandit_party_1","A33QIOA2EYW0LC","either","5","654","","","","","","","0","0","1","","0.2745112141","0.2","0.4","0.6","0.8","0.3472982705","0.2745112141","0.1394203739","0.3805788675","","","","","","","","","","","","","","74","J","1","","","185","main_expt",""
"","bandit","266","721679","0.0-227.0-0.0","69517315","wem/bandit_party_1","A33QIOA2EYW0LC","either","5","378","","","","","","","0","1","0","","0.2774566956","0.2","0.4","0.6","0.8","0.3095995051","0.2774566956","0.1557479742","0.4236809331","","","","","","","","","","","","","","74","J","1","","","186","main_expt",""
"","bandit","267","723613","0.0-228.0-0.0","69517315","wem/bandit_party_1","A33QIOA2EYW0LC","either","5","423","","","","","","","1","0","0","0.2876011691","","0.2","0.4","0.6","0.8","","","","","0.2567332284","0.2876011691","0.1823611596","0.4058627081","","","","","","","","","","74","J","1","","","187","main_expt",""
"","bandit","268","725192","0.0-229.0-0.0","69517315","wem/bandit_party_1","A33QIOA2EYW0LC","either","5","63","","","","","","","0","0","1","0.2947112378","","0.2","0.4","0.6","0.8","","","","","0.2555256861","0.2947112378","0.1854179297","0.3913346521","","","","","","","","","","74","J","1","","","188","main_expt",""
"","bandit","269","726785","0.0-230.0-0.0","69517315","wem/bandit_party_1","A33QIOA2EYW0LC","either","5","75","","","","","","","0","0","1","0.2581494","","0.2","0.4","0.6","0.8","","","","","0.2009875262","0.2581494","0.1875645599","0.3760164219","","","","","","","","","","74","J","1","","","189","main_expt",""
"","bandit","270","729358","0.0-231.0-0.0","69517315","wem/bandit_party_1","A33QIOA2EYW0LC","either","5","1060","","","","","","","0","0","1","0.1756323468","","0.2","0.4","0.6","0.8","","","","","0.2055488595","0.1756323468","0.2018323604","0.3327352817","","","","","","","","","","74","J","1","","","190","main_expt",""
"","bandit","271","731016","0.0-232.0-0.0","69517315","wem/bandit_party_1","A33QIOA2EYW0LC","either","5","146","","","","","","","0","0","1","","0.2521570866","0.2","0.4","0.6","0.8","0.1506387864","0.2521570866","0.221094727","0.3015177445","","","","","","","","","","","","","","74","J","1","","","191","main_expt",""
"","bandit","272","733543","0.0-233.0-0.0","69517315","wem/bandit_party_1","A33QIOA2EYW0LC","either","5","1012","","","","","","","0","0","1","","0.2027442266","0.2","0.4","0.6","0.8","0.2027442266","0.2964739449","0.2320570195","0.2773298268","","","","","","","","","","","","","","72","H","0","img/none_selected.jpg","","192","main_expt",""
"","bandit","273","735615","0.0-234.0-0.0","69517315","wem/bandit_party_1","A33QIOA2EYW0LC","either","5","557","","","","","","","0","0","1","","0.1969137872","0.2","0.4","0.6","0.8","0.1969137872","0.2612966838","0.2948950962","0.2836613797","","","","","","","","","","","","","","72","H","0","img/none_selected.jpg","","193","main_expt",""
"","bandit","274","737551","0.0-235.0-0.0","69517315","wem/bandit_party_1","A33QIOA2EYW0LC","either","5","425","","","","","","","0","0","1","","0.2114994946","0.2","0.4","0.6","0.8","0.2114994946","0.3292914436","0.2602906927","0.2799350415","","","","","","","","","","","","","","72","H","0","img/none_selected.jpg","","194","main_expt",""
"","bandit","275","739708","0.0-236.0-0.0","69517315","wem/bandit_party_1","A33QIOA2EYW0LC","either","5","644","","","","","","","0","0","1","","0.2467939011","0.2","0.4","0.6","0.8","0.2467939011","0.4070308407","0.1771499101","0.2068597772","","","","","","","","","","","","","","72","H","0","img/none_selected.jpg","","195","main_expt",""
"","bandit","276","741460","0.0-237.0-0.0","69517315","wem/bandit_party_1","A33QIOA2EYW0LC","either","5","233","","","","","","","0","0","1","","0.2731811988","0.2","0.4","0.6","0.8","0.2731811988","0.3494820729","0.1746274925","0.2679469531","","","","","","","","","","","","","","72","H","0","img/none_selected.jpg","","196","main_expt",""
"","bandit","277","743045","0.0-238.0-0.0","69517315","wem/bandit_party_1","A33QIOA2EYW0LC","either","5","72","","","","","","","0","0","1","","0.2512114903","0.2","0.4","0.6","0.8","0.2512114903","0.3571939809","0.193224684","0.2448078588","","","","","","","","","","","","","","72","H","0","img/none_selected.jpg","","197","main_expt",""
"","bandit","278","744840","0.0-239.0-0.0","69517315","wem/bandit_party_1","A33QIOA2EYW0LC","either","5","280","","","","","","","0","0","1","","0.190651112","0.2","0.4","0.6","0.8","0.190651112","0.382430028","0.1771509929","0.2433987968","","","","","","","","","","","","","","72","H","0","img/none_selected.jpg","","198","main_expt",""
"","bandit","279","746592","0.0-240.0-0.0","69517315","wem/bandit_party_1","A33QIOA2EYW0LC","either","5","235","","","","","","","0","0","1","","0.1701189695","0.2","0.4","0.6","0.8","0.1701189695","0.3353474301","0.2466668772","0.2653624242","","","","","","","","","","","","","","72","H","0","img/none_selected.jpg","","199","main_expt",""
"","bandit","280","748455","0.0-241.0-0.0","69517315","wem/bandit_party_1","A33QIOA2EYW0LC","either","5","349","","","","","","","0","0","1","","0.1656975488","0.2","0.4","0.6","0.8","0.1656975488","0.3321976498","0.2477816141","0.2551376492","","","","","","","","","","","","","","72","H","0","img/none_selected.jpg","","200","main_expt",""
"","bandit","281","750605","0.0-242.0-0.0","69517315","wem/bandit_party_1","A33QIOA2EYW0LC","either","5","638","","","","","","","0","0","1","","0.1647298582","0.2","0.4","0.6","0.8","0.1647298582","0.3218117355","0.2744817861","0.2660639347","","","","","","","","","","","","","","72","H","0","img/none_selected.jpg","","201","main_expt",""
"","bandit","282","752224","0.0-243.0-0.0","69517315","wem/bandit_party_1","A33QIOA2EYW0LC","either","5","106","","","","","","","0","0","1","","0.1242041815","0.2","0.4","0.6","0.8","0.1242041815","0.2949214693","0.3043062986","0.2220900594","","","","","","","","","","","","","","72","H","0","img/none_selected.jpg","","202","main_expt",""
"","bandit","283","753761","0.0-244.0-0.0","69517315","wem/bandit_party_1","A33QIOA2EYW0LC","either","5","22","","","","","","","0","0","1","0.1543353204","","0.2","0.4","0.6","0.8","","","","","0.1684487429","0.300077299","0.272185569","0.1543353204","","","","","","","","","","76","L","3","","","203","main_expt",""
"","bandit","284","755576","0.0-245.0-0.0","69517315","wem/bandit_party_1","A33QIOA2EYW0LC","either","5","298","","","","","","","1","0","0","0.1605482003","","0.2","0.4","0.6","0.8","","","","","0.1666409686","0.2866085977","0.2610767704","0.1605482003","","","","","","","","","","76","L","3","","","204","main_expt",""
"","bandit","285","757526","0.0-246.0-0.0","69517315","wem/bandit_party_1","A33QIOA2EYW0LC","either","5","436","","","","","","","1","0","0","0.1406914754","","0.2","0.4","0.6","0.8","","","","","0.2197286508","0.2695546272","0.2832615928","0.1406914754","","","","","","","","","","76","L","3","","","205","main_expt",""
"","bandit","286","760644","0.0-247.0-0.0","69517315","wem/bandit_party_1","A33QIOA2EYW0LC","either","5","1606","","","","","","","0","0","1","0.1138947463","","0.2","0.4","0.6","0.8","","","","","0.2754509052","0.2622178416","0.300913322","0.1138947463","","","","","","","","","","76","L","3","","","206","main_expt",""
"","bandit","287","762712","0.0-248.0-0.0","69517315","wem/bandit_party_1","A33QIOA2EYW0LC","either","5","556","","","","","","","0","0","1","","0.1096702189","0.2","0.4","0.6","0.8","0.2664869377","0.2498186578","0.3260258847","0.1096702189","","","","","","","","","","","","","","76","L","3","","","207","main_expt",""
"","bandit","288","764797","0.0-249.0-0.0","69517315","wem/bandit_party_1","A33QIOA2EYW0LC","either","5","573","","","","","","","1","0","0","0.09922356593","","0.2","0.4","0.6","0.8","","","","","0.2686565688","0.2335358635","0.3173829003","0.09922356593","","","","","","","","","","76","L","3","","","208","main_expt",""
"","bandit","289","766725","0.0-250.0-0.0","69517315","wem/bandit_party_1","A33QIOA2EYW0LC","either","5","416","","","","","","","0","0","1","","0.101567507","0.2","0.4","0.6","0.8","0.2380255957","0.2638942681","0.3153846937","0.101567507","","","","","","","","","","","","","","76","L","3","","","209","main_expt",""
"","bandit","290","768490","0.0-251.0-0.0","69517315","wem/bandit_party_1","A33QIOA2EYW0LC","either","5","247","","","","","","","0","0","1","","0.08675379402","0.2","0.4","0.6","0.8","0.2507768727","0.2526926237","0.3010876552","0.08675379402","","","","","","","","","","","","","","76","L","3","","","210","main_expt",""
"","bandit","291","770045","0.0-252.0-0.0","69517315","wem/bandit_party_1","A33QIOA2EYW0LC","either","5","43","","","","","","","0","0","1","0.07512021269","","0.2","0.4","0.6","0.8","","","","","0.2685142319","0.2740367769","0.2864900033","0.07512021269","","","","","","","","","","76","L","3","","","211","main_expt",""
"","bandit","292","771821","0.0-253.0-0.0","69517315","wem/bandit_party_1","A33QIOA2EYW0LC","either","5","262","","","","","","","0","0","1","0.08144254236","","0.2","0.4","0.6","0.8","","","","","0.260511483","0.2440836191","0.3163372434","0.08144254236","","","","","","","","","","76","L","3","","","212","main_expt",""
"","bandit","293","773853","0.0-254.0-0.0","69517315","wem/bandit_party_1","A33QIOA2EYW0LC","either","5","515","","","","","","","0","0","1","0.06585574052","","0.2","0.4","0.6","0.8","","","","","0.2579605047","0.2341903104","0.2701305136","0.06585574052","","","","","","","","","","76","L","3","","","213","main_expt",""
"","bandit","294","775991","0.0-255.0-0.0","69517315","wem/bandit_party_1","A33QIOA2EYW0LC","either","5","623","","","","","","","1","0","0","0.302599165","","0.2","0.4","0.6","0.8","","","","","0.2470456849","0.2097526345","0.302599165","0.08686614453","","","","","","","","","","75","K","2","","","214","main_expt",""
"","bandit","295","777565","0.0-256.0-0.0","69517315","wem/bandit_party_1","A33QIOA2EYW0LC","either","5","60","","","","","","","1","0","0","0.2968005471","","0.2","0.4","0.6","0.8","","","","","0.3285383036","0.1796882487","0.2968005471","0.1068548489","","","","","","","","","","75","K","2","","","215","main_expt",""
"","bandit","296","779333","0.0-257.0-0.0","69517315","wem/bandit_party_1","A33QIOA2EYW0LC","either","5","255","","","","","","","0","0","1","0.2835536598","","0.2","0.4","0.6","0.8","","","","","0.3780044773","0.2237900511","0.2835536598","0.1211736082","","","","","","","","","","75","K","2","","","216","main_expt",""
"","bandit","297","781078","0.0-258.0-0.0","69517315","wem/bandit_party_1","A33QIOA2EYW0LC","either","5","230","","","","","","","0","1","0","","0.2520762718","0.2","0.4","0.6","0.8","0.3939228946","0.2265358539","0.2520762718","0.09343701815","","","","","","","","","","","","","","75","K","2","","","217","main_expt",""
"","bandit","298","783206","0.0-259.0-0.0","69517315","wem/bandit_party_1","A33QIOA2EYW0LC","either","5","613","","","","","","","0","0","1","","0.2562699476","0.2","0.4","0.6","0.8","0.3198270803","0.2364013437","0.2562699476","0.1001055386","","","","","","","","","","","","","","75","K","2","","","218","main_expt",""
"","bandit","299","785137","0.0-260.0-0.0","69517315","wem/bandit_party_1","A33QIOA2EYW0LC","either","5","419","","","","","","","1","0","0","0.3002431464","","0.2","0.4","0.6","0.8","","","","","0.3502502288","0.2810560361","0.3002431464","0.09524874014","","","","","","","","","","75","K","2","","","219","main_expt",""
"","bandit","300","787269","0.0-261.0-0.0","69517315","wem/bandit_party_1","A33QIOA2EYW0LC","either","5","615","","","","","","","0","0","1","0.3365413303","","0.2","0.4","0.6","0.8","","","","","0.3402456168","0.3027429446","0.3365413303","0.1304899995","","","","","","","","","","75","K","2","","","220","main_expt",""
"","bandit","301","789401","0.0-262.0-0.0","69517315","wem/bandit_party_1","A33QIOA2EYW0LC","either","5","613","","","","","","","0","0","1","","0.2946103072","0.2","0.4","0.6","0.8","0.3770059732","0.3132134988","0.2946103072","0.1272814923","","","","","","","","","","","","","","75","K","2","","","221","main_expt",""
"","bandit","302","791245","0.0-263.0-0.0","69517315","wem/bandit_party_1","A33QIOA2EYW0LC","either","5","330","","","","","","","0","0","1","","0.3267284332","0.2","0.4","0.6","0.8","0.3864421123","0.2424821827","0.3267284332","0.1654407056","","","","","","","","","","","","","","75","K","2","","","222","main_expt",""
"","bandit","303","793190","0.0-264.0-0.0","69517315","wem/bandit_party_1","A33QIOA2EYW0LC","either","5","429","","","","","","","0","0","1","0.3175152631","","0.2","0.4","0.6","0.8","","","","","0.4205211408","0.2595367495","0.3175152631","0.1788325852","","","","","","","","","","75","K","2","","","223","main_expt",""
"","bandit","304","795037","0.0-265.0-0.0","69517315","wem/bandit_party_1","A33QIOA2EYW0LC","either","5","333","","","","","","","1","0","0","0.3192400935","","0.2","0.4","0.6","0.8","","","","","0.4131889957","0.328819141","0.3192400935","0.1736623033","","","","","","","","","","75","K","2","","","224","main_expt",""
"","bandit","305","796910","0.0-266.0-0.0","69517315","wem/bandit_party_1","A33QIOA2EYW0LC","either","5","363","","","","","","","0","0","1","","0.3096750449","0.2","0.4","0.6","0.8","0.4001513574","0.356121412","0.3096750449","0.1721911447","","","","","","","","","","","","","","75","K","2","","","225","main_expt",""
"","bandit","306","799813","0.0-267.0-0.0","69517315","wem/bandit_party_1","A33QIOA2EYW0LC","either","5","1389","","","","","","","0","0","1","0.3142833063","","0.2","0.4","0.6","0.8","","","","","0.3963688582","0.3394019192","0.3142833063","0.2133818582","","","","","","","","","","75","K","2","","","226","main_expt",""
"","bandit","307","801804","0.0-268.0-0.0","69517315","wem/bandit_party_1","A33QIOA2EYW0LC","either","5","480","","","","","","","0","0","1","","0.3096885674","0.2","0.4","0.6","0.8","0.3979714495","0.2860553004","0.3096885674","0.2620007467","","","","","","","","","","","","","","75","K","2","","","227","main_expt",""
"","bandit","308","803771","0.0-269.0-0.0","69517315","wem/bandit_party_1","A33QIOA2EYW0LC","either","5","455","","","","","","","0","0","1","","0.3048295172","0.2","0.4","0.6","0.8","0.3811043637","0.2967856672","0.3048295172","0.2961930455","","","","","","","","","","","","","","75","K","2","","","228","main_expt",""
"","bandit","309","805795","0.0-270.0-0.0","69517315","wem/bandit_party_1","A33QIOA2EYW0LC","either","5","515","","","","","","","0","1","0","","0.2553920021","0.2","0.4","0.6","0.8","0.3488149186","0.2857745529","0.2553920021","0.3081123415","","","","","","","","","","","","","","75","K","2","","","229","main_expt",""
"","bandit","310","807956","0.0-271.0-0.0","69517315","wem/bandit_party_1","A33QIOA2EYW0LC","either","5","646","","","","","","","0","0","1","0.2783794412","","0.2","0.4","0.6","0.8","","","","","0.2883621188","0.2589404948","0.2783794412","0.3027177586","","","","","","","","","","75","K","2","","","230","main_expt",""
"","bandit","311","810230","0.0-272.0-0.0","69517315","wem/bandit_party_1","A33QIOA2EYW0LC","either","5","759","","","","","","","0","0","1","0.2735536708","","0.2","0.4","0.6","0.8","","","","","0.2444465504","0.2628441024","0.2735536708","0.2495346478","","","","","","","","","","75","K","2","","","231","main_expt",""
"","bandit","312","812245","0.0-273.0-0.0","69517315","wem/bandit_party_1","A33QIOA2EYW0LC","either","5","499","","","","","","","0","0","1","0.2262440502","","0.2","0.4","0.6","0.8","","","","","0.2996930955","0.276537748","0.2262440502","0.2185872191","","","","","","","","","","75","K","2","","","232","main_expt",""
"","bandit","313","814415","0.0-274.0-0.0","69517315","wem/bandit_party_1","A33QIOA2EYW0LC","either","5","652","","","","","","","0","0","1","0.2171974885","","0.2","0.4","0.6","0.8","","","","","0.3103031796","0.2485723575","0.2171974885","0.1874863907","","","","","","","","","","75","K","2","","","233","main_expt",""
"","bandit","314","815964","0.0-275.0-0.0","69517315","wem/bandit_party_1","A33QIOA2EYW0LC","either","5","37","","","","","","","0","0","1","","0.2172766866","0.2","0.4","0.6","0.8","0.2971988612","0.2172766866","0.2951485073","0.2165838284","","","","","","","","","","","","","","74","J","1","","","234","main_expt",""
"","bandit","315","817927","0.0-276.0-0.0","69517315","wem/bandit_party_1","A33QIOA2EYW0LC","either","5","450","","","","","","","0","0","1","","0.221542824","0.2","0.4","0.6","0.8","0.3266576642","0.221542824","0.3135740045","0.1791302586","","","","","","","","","","","","","","74","J","1","","","235","main_expt",""
"","bandit","316","820301","0.0-277.0-0.0","69517315","wem/bandit_party_1","A33QIOA2EYW0LC","either","5","861","","","","","","","0","0","1","","0.2200573756","0.2","0.4","0.6","0.8","0.3596878827","0.2200573756","0.2945285262","0.2463713802","","","","","","","","","","","","","","74","J","1","","","236","main_expt",""
