"consent","trial_type","trial_index","time_elapsed","internal_node_id","subjID","study","MID","cond","drift","rt","responses","button_pressed","key_press","like","value","connected","gems","bombs","no_reward","GemPrChosen","BombPrChosen","GainOverPainPr_0","GainOverPainPr_1","GainOverPainPr_2","GainOverPainPr_3","LosePr_0","LosePr_1","LosePr_2","LosePr_3","WinPr_0","WinPr_1","WinPr_2","WinPr_3","Q0","Q1","Q2","gender","age","ethnicity","label","expt_phase","target","respCharCode","respKey","respChoiceNum","respChoice","practice","trial_counter","trial_label","Q0_index"
"GDM/GDM_behavioral_consent_30min_online.html","consent","0","9355","0.0-0.0","70279171","wem/bandit_party_1","AKLV0WIZZ356X","either","2","","","","","","","","","","","","","","","","","","","","","","","","","","","","","","","","","","","","","","","","",""
"","survey-text","1","22218","0.0-1.0","70279171","wem/bandit_party_1","AKLV0WIZZ356X","either","2","11858","{""Q0"":""AKLV0WIZZ356X""}","","","","","","","","","","","","","","","","","","","","","","","","","","","","","","","","","","","","","","",""
"","button-response","2","25543","0.0-2.0","70279171","wem/bandit_party_1","AKLV0WIZZ356X","either","2","2321","","1","","","","","","","","","","","","","","","","","","","","","","","","","","","","","","","","","","","","","",""
"","text-replacement","3","46215","0.0-3.0","70279171","wem/bandit_party_1","AKLV0WIZZ356X","either","2","19669","","","32","","","","","","","","","","","","","","","","","","","","","","","","","","","","","","","","","","","","",""
"","text-replacement","4","58437","0.0-4.0","70279171","wem/bandit_party_1","AKLV0WIZZ356X","either","2","12222","","","32","","","","","","","","","","","","","","","","","","","","","","","","","","","","","","","","","","","","",""
"","identification","5","65183","0.0-6.0-0.0","70279171","wem/bandit_party_1","AKLV0WIZZ356X","either","2","6738","","","","4","4","4","","","","","","","","","","","","","","","","","","","","","","","","pre","identification_pre","the Democratic Party","","","","","","","",""
"","identification","6","73585","0.0-6.0-1.0","70279171","wem/bandit_party_1","AKLV0WIZZ356X","either","2","7393","","","","2","3","1","","","","","","","","","","","","","","","","","","","","","","","","pre","identification_pre","the Republican party","","","","","","","",""
"","text-replacement","7","80312","0.0-7.0","70279171","wem/bandit_party_1","AKLV0WIZZ356X","either","2","5725","","","32","","","","","","","","","","","","","","","","","","","","","","","","","","","","","","","","","","","","",""
"","text-replacement","8","86389","0.0-8.0","70279171","wem/bandit_party_1","AKLV0WIZZ356X","either","2","6076","","","32","","","","","","","","","","","","","","","","","","","","","","","","","","","","","","","","","","","","",""
"","text-replacement","9","100576","0.0-9.0","70279171","wem/bandit_party_1","AKLV0WIZZ356X","either","2","14186","","","32","","","","","","","","","","","","","","","","","","","","","","","","","","","","","","","","","","","","",""
"","text-replacement","10","106198","0.0-10.0","70279171","wem/bandit_party_1","AKLV0WIZZ356X","either","2","5621","","","32","","","","","","","","","","","","","","","","","","","","","","","","","","","","","","","","","","","","",""
"","text-replacement","11","113898","0.0-11.0","70279171","wem/bandit_party_1","AKLV0WIZZ356X","either","2","7699","","","32","","","","","","","","","","","","","","","","","","","","","","","","","","","","","","","","","","","","",""
"","bandit","12","117583","0.0-12.0-0.0","70279171","wem/bandit_party_1","AKLV0WIZZ356X","either","2","2177","","","","","","","0","0","1","0","0","","","","","0","","","","0","","","","","","","","","","","","","74","J","0","img/none_selected_demo.jpg","true","0","",""
"","bandit","13","121965","0.0-13.0-0.0","70279171","wem/bandit_party_1","AKLV0WIZZ356X","either","2","2877","","","","","","","0","0","1","0","0","","","","","0","","","","0","","","","","","","","","","","","","75","K","0","img/none_selected_demo.jpg","true","0","",""
"","text-replacement","14","127514","0.0-14.0","70279171","wem/bandit_party_1","AKLV0WIZZ356X","either","2","5548","","","32","","","","","","","","","","","","","","","","","","","","","","","","","","","","","","","","","","","","",""
"","text-replacement","15","135411","0.0-15.0","70279171","wem/bandit_party_1","AKLV0WIZZ356X","either","2","7896","","","32","","","","","","","","","","","","","","","","","","","","","","","","","","","","","","","","","","","","",""
"","text-replacement","16","140883","0.0-16.0","70279171","wem/bandit_party_1","AKLV0WIZZ356X","either","2","5471","","","32","","","","","","","","","","","","","","","","","","","","","","","","","","","","","","","","","","","","",""
"","text-replacement","17","144610","0.0-17.0","70279171","wem/bandit_party_1","AKLV0WIZZ356X","either","2","3726","","","32","","","","","","","","","","","","","","","","","","","","","","","","","","","","","","","","","","","","",""
"","bandit","18","147451","0.0-18.0-0.0","70279171","wem/bandit_party_1","AKLV0WIZZ356X","either","2","1338","","","","","","","1","0","0","0.2","","0.5","0.5","","","","","","","0.8","0.2","","","","","","","","","","","","75","K","1","","true","0","80_20_practice",""
"","bandit","19","150015","0.0-18.0-1.0","70279171","wem/bandit_party_1","AKLV0WIZZ356X","either","2","1060","","","","","","","1","0","0","0.8","","0.5","0.5","","","","","","","0.8","0.2","","","","","","","","","","","","74","J","0","img/none_selected_demo.jpg","true","0","80_20_practice",""
"","bandit","20","152003","0.0-18.0-2.0","70279171","wem/bandit_party_1","AKLV0WIZZ356X","either","2","483","","","","","","","1","0","0","0.8","","0.5","0.5","","","","","","","0.8","0.2","","","","","","","","","","","","74","J","0","img/none_selected_demo.jpg","true","0","80_20_practice",""
"","bandit","21","153865","0.0-18.0-3.0","70279171","wem/bandit_party_1","AKLV0WIZZ356X","either","2","359","","","","","","","0","0","1","","0.2","0.5","0.5","","","0.8","0.2","","","","","","","","","","","","","","","","75","K","1","","true","0","80_20_practice",""
"","bandit","22","155698","0.0-18.0-4.0","70279171","wem/bandit_party_1","AKLV0WIZZ356X","either","2","330","","","","","","","0","1","0","","0.8","0.5","0.5","","","0.8","0.2","","","","","","","","","","","","","","","","74","J","0","img/none_selected_demo.jpg","true","0","80_20_practice",""
"","bandit","23","157625","0.0-18.0-5.0","70279171","wem/bandit_party_1","AKLV0WIZZ356X","either","2","424","","","","","","","0","0","1","0.2","","0.5","0.5","","","","","","","0.8","0.2","","","","","","","","","","","","75","K","1","","true","0","80_20_practice",""
"","bandit","24","159347","0.0-18.0-6.0","70279171","wem/bandit_party_1","AKLV0WIZZ356X","either","2","219","","","","","","","1","0","0","0.8","","0.5","0.5","","","","","","","0.8","0.2","","","","","","","","","","","","74","J","0","img/none_selected_demo.jpg","true","0","80_20_practice",""
"","bandit","25","161275","0.0-18.0-7.0","70279171","wem/bandit_party_1","AKLV0WIZZ356X","either","2","425","","","","","","","1","0","0","0.8","","0.5","0.5","","","","","","","0.8","0.2","","","","","","","","","","","","74","J","0","img/none_selected_demo.jpg","true","0","80_20_practice",""
"","bandit","26","163053","0.0-18.0-8.0","70279171","wem/bandit_party_1","AKLV0WIZZ356X","either","2","273","","","","","","","0","1","0","","0.8","0.5","0.5","","","0.8","0.2","","","","","","","","","","","","","","","","74","J","0","img/none_selected_demo.jpg","true","0","80_20_practice",""
"","bandit","27","165098","0.0-18.0-9.0","70279171","wem/bandit_party_1","AKLV0WIZZ356X","either","2","541","","","","","","","1","0","0","0.8","","0.5","0.5","","","","","","","0.8","0.2","","","","","","","","","","","","74","J","0","img/none_selected_demo.jpg","true","0","80_20_practice",""
"","bandit","28","168920","0.0-18.0-10.0","70279171","wem/bandit_party_1","AKLV0WIZZ356X","either","2","2319","","","","","","","0","1","0","","0.8","0.5","0.5","","","0.8","0.2","","","","","","","","","","","","","","","","74","J","0","img/none_selected_demo.jpg","true","0","80_20_practice",""
"","bandit","29","170493","0.0-18.0-11.0","70279171","wem/bandit_party_1","AKLV0WIZZ356X","either","2","69","","","","","","","0","1","0","","0.8","0.5","0.5","","","0.8","0.2","","","","","","","","","","","","","","","","74","J","0","img/none_selected_demo.jpg","true","0","80_20_practice",""
"","bandit","30","173329","0.0-18.0-12.0","70279171","wem/bandit_party_1","AKLV0WIZZ356X","either","2","1330","","","","","","","0","1","0","","0.8","0.5","0.5","","","0.8","0.2","","","","","","","","","","","","","","","","74","J","0","img/none_selected_demo.jpg","true","0","80_20_practice",""
"","bandit","31","175584","0.0-18.0-13.0","70279171","wem/bandit_party_1","AKLV0WIZZ356X","either","2","752","","","","","","","1","0","0","0.8","","0.5","0.5","","","","","","","0.8","0.2","","","","","","","","","","","","74","J","0","img/none_selected_demo.jpg","true","0","80_20_practice",""
"","bandit","32","178077","0.0-18.0-14.0","70279171","wem/bandit_party_1","AKLV0WIZZ356X","either","2","989","","","","","","","0","1","0","","0.8","0.5","0.5","","","0.8","0.2","","","","","","","","","","","","","","","","74","J","0","img/none_selected_demo.jpg","true","0","80_20_practice",""
"","bandit","33","180022","0.0-18.0-15.0","70279171","wem/bandit_party_1","AKLV0WIZZ356X","either","2","441","","","","","","","0","1","0","","0.8","0.5","0.5","","","0.8","0.2","","","","","","","","","","","","","","","","74","J","0","img/none_selected_demo.jpg","true","0","80_20_practice",""
"","bandit","34","181902","0.0-18.0-16.0","70279171","wem/bandit_party_1","AKLV0WIZZ356X","either","2","376","","","","","","","0","1","0","","0.8","0.5","0.5","","","0.8","0.2","","","","","","","","","","","","","","","","74","J","0","img/none_selected_demo.jpg","true","0","80_20_practice",""
"","bandit","35","183802","0.0-18.0-17.0","70279171","wem/bandit_party_1","AKLV0WIZZ356X","either","2","394","","","","","","","0","0","1","0.8","","0.5","0.5","","","","","","","0.8","0.2","","","","","","","","","","","","74","J","0","img/none_selected_demo.jpg","true","0","80_20_practice",""
"","bandit","36","185700","0.0-18.0-18.0","70279171","wem/bandit_party_1","AKLV0WIZZ356X","either","2","396","","","","","","","1","0","0","0.8","","0.5","0.5","","","","","","","0.8","0.2","","","","","","","","","","","","74","J","0","img/none_selected_demo.jpg","true","0","80_20_practice",""
"","bandit","37","187935","0.0-18.0-19.0","70279171","wem/bandit_party_1","AKLV0WIZZ356X","either","2","732","","","","","","","0","0","1","0.2","","0.5","0.5","","","","","","","0.8","0.2","","","","","","","","","","","","75","K","1","","true","0","80_20_practice",""
"","text-replacement","38","194892","0.0-19.0","70279171","wem/bandit_party_1","AKLV0WIZZ356X","either","2","6955","","","32","","","","","","","","","","","","","","","","","","","","","","","","","","","","","","","","","","","","",""
"","bandit","39","197042","0.0-20.0-0.0","70279171","wem/bandit_party_1","AKLV0WIZZ356X","either","2","646","","","","","","","1","0","0","1","0","","","","","0","1","","","1","0","","","","","","","","","","","","74","J","0","img/none_selected_demo.jpg","true","0","",""
"","text-replacement","40","201204","0.0-21.0","70279171","wem/bandit_party_1","AKLV0WIZZ356X","either","2","4161","","","32","","","","","","","","","","","","","","","","","","","","","","","","","","","","","","","","","","","","",""
"","text-replacement","41","203592","0.0-22.0","70279171","wem/bandit_party_1","AKLV0WIZZ356X","either","2","2386","","","32","","","","","","","","","","","","","","","","","","","","","","","","","","","","","","","","","","","","",""
"","text-replacement","42","205991","0.0-23.0","70279171","wem/bandit_party_1","AKLV0WIZZ356X","either","2","2399","","","32","","","","","","","","","","","","","","","","","","","","","","","","","","","","","","","","","","","","",""
"","text-replacement","43","208493","0.0-24.0","70279171","wem/bandit_party_1","AKLV0WIZZ356X","either","2","2501","","","32","","","","","","","","","","","","","","","","","","","","","","","","","","","","","","","","","","","","",""
"","text-replacement","44","211775","0.0-25.0","70279171","wem/bandit_party_1","AKLV0WIZZ356X","either","2","3281","","","32","","","","","","","","","","","","","","","","","","","","","","","","","","","","","","","","","","","","",""
"","text-replacement","45","213898","0.0-26.0","70279171","wem/bandit_party_1","AKLV0WIZZ356X","either","2","2121","","","32","","","","","","","","","","","","","","","","","","","","","","","","","","","","","","","","","","","","",""
"","text-replacement","46","217045","0.0-27.0","70279171","wem/bandit_party_1","AKLV0WIZZ356X","either","2","3146","","","32","","","","","","","","","","","","","","","","","","","","","","","","","","","","","","","","","","","","",""
"","text-replacement","47","219898","0.0-28.0","70279171","wem/bandit_party_1","AKLV0WIZZ356X","either","2","2852","","","32","","","","","","","","","","","","","","","","","","","","","","","","","","","","","","","","","","","","",""
"","text-replacement","48","223337","0.0-29.0","70279171","wem/bandit_party_1","AKLV0WIZZ356X","either","2","3437","","","32","","","","","","","","","","","","","","","","","","","","","","","","","","","","","","","","","","","","",""
"","text-replacement","49","224508","0.0-30.0","70279171","wem/bandit_party_1","AKLV0WIZZ356X","either","2","1171","","","32","","","","","","","","","","","","","","","","","","","","","","","","","","","","","","","","","","","","",""
"","text-replacement","50","231521","0.0-31.0","70279171","wem/bandit_party_1","AKLV0WIZZ356X","either","2","7012","","","32","","","","","","","","","","","","","","","","","","","","","","","","","","","","","","","","","","","","",""
"","bandit","51","233766","0.0-32.0-0.0","70279171","wem/bandit_party_1","AKLV0WIZZ356X","either","2","741","","","","","","","0","0","1","0.8","","0.5","0.5","0.5","0.5","","","","","0.8","0.2","0.6","0.2","","","","","","","","","","72","H","0","img/none_selected.jpg","true","0","full_practice",""
"","bandit","52","235799","0.0-32.0-1.0","70279171","wem/bandit_party_1","AKLV0WIZZ356X","either","2","529","","","","","","","0","1","0","","0.2","0.5","0.5","0.5","0.5","0.8","0.2","0.6","0.2","","","","","","","","","","","","","","74","J","1","","true","0","full_practice",""
"","bandit","53","237668","0.0-32.0-2.0","70279171","wem/bandit_party_1","AKLV0WIZZ356X","either","2","365","","","","","","","0","1","0","","0.6","0.5","0.5","0.5","0.5","0.8","0.2","0.6","0.2","","","","","","","","","","","","","","75","K","2","","true","0","full_practice",""
"","bandit","54","239518","0.0-32.0-3.0","70279171","wem/bandit_party_1","AKLV0WIZZ356X","either","2","347","","","","","","","0","0","1","0.2","","0.5","0.5","0.5","0.5","","","","","0.8","0.2","0.6","0.2","","","","","","","","","","76","L","3","","true","0","full_practice",""
"","bandit","55","241348","0.0-32.0-4.0","70279171","wem/bandit_party_1","AKLV0WIZZ356X","either","2","327","","","","","","","0","0","1","","0.6","0.5","0.5","0.5","0.5","0.8","0.2","0.6","0.2","","","","","","","","","","","","","","75","K","2","","true","0","full_practice",""
"","bandit","56","243051","0.0-32.0-5.0","70279171","wem/bandit_party_1","AKLV0WIZZ356X","either","2","200","","","","","","","0","0","1","0.2","","0.5","0.5","0.5","0.5","","","","","0.8","0.2","0.6","0.2","","","","","","","","","","74","J","1","","true","0","full_practice",""
"","bandit","57","244824","0.0-32.0-6.0","70279171","wem/bandit_party_1","AKLV0WIZZ356X","either","2","269","","","","","","","1","0","0","0.8","","0.5","0.5","0.5","0.5","","","","","0.8","0.2","0.6","0.2","","","","","","","","","","72","H","0","img/none_selected.jpg","true","0","full_practice",""
"","bandit","58","246836","0.0-32.0-7.0","70279171","wem/bandit_party_1","AKLV0WIZZ356X","either","2","507","","","","","","","0","0","1","0.8","","0.5","0.5","0.5","0.5","","","","","0.8","0.2","0.6","0.2","","","","","","","","","","72","H","0","img/none_selected.jpg","true","0","full_practice",""
"","bandit","59","248620","0.0-32.0-8.0","70279171","wem/bandit_party_1","AKLV0WIZZ356X","either","2","276","","","","","","","0","0","1","","0.2","0.5","0.5","0.5","0.5","0.8","0.2","0.6","0.2","","","","","","","","","","","","","","74","J","1","","true","0","full_practice",""
"","bandit","60","250395","0.0-32.0-9.0","70279171","wem/bandit_party_1","AKLV0WIZZ356X","either","2","270","","","","","","","0","0","1","0.6","","0.5","0.5","0.5","0.5","","","","","0.8","0.2","0.6","0.2","","","","","","","","","","75","K","2","","true","0","full_practice",""
"","bandit","61","252228","0.0-32.0-10.0","70279171","wem/bandit_party_1","AKLV0WIZZ356X","either","2","329","","","","","","","0","0","1","","0.2","0.5","0.5","0.5","0.5","0.8","0.2","0.6","0.2","","","","","","","","","","","","","","76","L","3","","true","0","full_practice",""
"","bandit","62","253915","0.0-32.0-11.0","70279171","wem/bandit_party_1","AKLV0WIZZ356X","either","2","184","","","","","","","0","0","1","","0.2","0.5","0.5","0.5","0.5","0.8","0.2","0.6","0.2","","","","","","","","","","","","","","74","J","1","","true","0","full_practice",""
"","bandit","63","255839","0.0-32.0-12.0","70279171","wem/bandit_party_1","AKLV0WIZZ356X","either","2","419","","","","","","","0","0","1","0.2","","0.5","0.5","0.5","0.5","","","","","0.8","0.2","0.6","0.2","","","","","","","","","","74","J","1","","true","0","full_practice",""
"","bandit","64","257580","0.0-32.0-13.0","70279171","wem/bandit_party_1","AKLV0WIZZ356X","either","2","236","","","","","","","1","0","0","0.8","","0.5","0.5","0.5","0.5","","","","","0.8","0.2","0.6","0.2","","","","","","","","","","72","H","0","img/none_selected.jpg","true","0","full_practice",""
"","bandit","65","259536","0.0-32.0-14.0","70279171","wem/bandit_party_1","AKLV0WIZZ356X","either","2","452","","","","","","","1","0","0","0.8","","0.5","0.5","0.5","0.5","","","","","0.8","0.2","0.6","0.2","","","","","","","","","","72","H","0","img/none_selected.jpg","true","0","full_practice",""
"","bandit","66","262190","0.0-32.0-15.0","70279171","wem/bandit_party_1","AKLV0WIZZ356X","either","2","1152","","","","","","","1","0","0","0.8","","0.5","0.5","0.5","0.5","","","","","0.8","0.2","0.6","0.2","","","","","","","","","","72","H","0","img/none_selected.jpg","true","0","full_practice",""
"","bandit","67","264545","0.0-32.0-16.0","70279171","wem/bandit_party_1","AKLV0WIZZ356X","either","2","851","","","","","","","1","0","0","0.8","","0.5","0.5","0.5","0.5","","","","","0.8","0.2","0.6","0.2","","","","","","","","","","72","H","0","img/none_selected.jpg","true","0","full_practice",""
"","bandit","68","266754","0.0-32.0-17.0","70279171","wem/bandit_party_1","AKLV0WIZZ356X","either","2","705","","","","","","","0","0","1","","0.8","0.5","0.5","0.5","0.5","0.8","0.2","0.6","0.2","","","","","","","","","","","","","","72","H","0","img/none_selected.jpg","true","0","full_practice",""
"","bandit","69","269010","0.0-32.0-18.0","70279171","wem/bandit_party_1","AKLV0WIZZ356X","either","2","752","","","","","","","1","0","0","0.8","","0.5","0.5","0.5","0.5","","","","","0.8","0.2","0.6","0.2","","","","","","","","","","72","H","0","img/none_selected.jpg","true","0","full_practice",""
"","bandit","70","270934","0.0-32.0-19.0","70279171","wem/bandit_party_1","AKLV0WIZZ356X","either","2","420","","","","","","","1","0","0","0.8","","0.5","0.5","0.5","0.5","","","","","0.8","0.2","0.6","0.2","","","","","","","","","","72","H","0","img/none_selected.jpg","true","0","full_practice",""
"","text","71","275806","0.0-33.0","70279171","wem/bandit_party_1","AKLV0WIZZ356X","either","2","4862","","","32","","","","","","","","","","","","","","","","","","","","","","","","","","","","","","","","","","","","",""
"","text-replacement","72","290905","0.0-34.0","70279171","wem/bandit_party_1","AKLV0WIZZ356X","either","2","14096","","","32","","","","","","","","","","","","","","","","","","","","","","","","","","","","","","","","","","","","",""
"","text-replacement","73","299544","0.0-35.0","70279171","wem/bandit_party_1","AKLV0WIZZ356X","either","2","8636","","","32","","","","","","","","","","","","","","","","","","","","","","","","","","","","","","","","","","","","",""
"","text-replacement","74","305367","0.0-36.0","70279171","wem/bandit_party_1","AKLV0WIZZ356X","either","2","5822","","","32","","","","","","","","","","","","","","","","","","","","","","","","","","","","","","","","","","","","",""
"","text-replacement","75","315781","0.0-37.0","70279171","wem/bandit_party_1","AKLV0WIZZ356X","either","2","10413","","","32","","","","","","","","","","","","","","","","","","","","","","","","","","","","","","","","","","","","",""
"","text-replacement","76","317493","0.0-38.0","70279171","wem/bandit_party_1","AKLV0WIZZ356X","either","2","1711","","","32","","","","","","","","","","","","","","","","","","","","","","","","","","","","","","","","","","","","",""
"","survey-multi-choice-replacement","77","323684","0.0-39.0-0.0","70279171","wem/bandit_party_1","AKLV0WIZZ356X","either","2","6186","","","","","","","","","","","","","","","","","","","","","","","","Money will be added to the pool for <span style='color:blue;'>DEMOCRATS</span>","","","","","","","attn_check","","","","","","","","","0"
"","survey-multi-choice-replacement","78","329030","0.0-40.0-0.0","70279171","wem/bandit_party_1","AKLV0WIZZ356X","either","2","4333","","","","","","","","","","","","","","","","","","","","","","","","Equal amounts of money will be added to the pool for <span style='color:blue;'>DEMOCRATS</span> and subtracted from the pool for <span style='color:red;'>REPUBLICANS</span>","","","","","","","attn_check","","","","","","","","","2"
"","survey-multi-choice-replacement","79","332444","0.0-41.0-0.0","70279171","wem/bandit_party_1","AKLV0WIZZ356X","either","2","2407","","","","","","","","","","","","","","","","","","","","","","","","No money will be added to either pool","","","","","","","attn_check","","","","","","","","","3"
"","bandit","80","337517","0.0-42.0-0.0","70279171","wem/bandit_party_1","AKLV0WIZZ356X","either","2","2566","","","","","","","1","0","0","0.4781977867","","0.8","0.2","0.6","0.4","","","","","0.4781977867","0.326135308","0.3653736811","0.362799796","","","","","","","","","","72","H","0","img/none_selected.jpg","","1","main_expt",""
"","bandit","81","339527","0.0-43.0-0.0","70279171","wem/bandit_party_1","AKLV0WIZZ356X","either","2","505","","","","","","","1","0","0","0.4765481994","","0.8","0.2","0.6","0.4","","","","","0.4765481994","0.3564958201","0.3999069229","0.3891507205","","","","","","","","","","72","H","0","img/none_selected.jpg","","2","main_expt",""
"","bandit","82","341393","0.0-44.0-0.0","70279171","wem/bandit_party_1","AKLV0WIZZ356X","either","2","362","","","","","","","0","0","1","0.4722158263","","0.8","0.2","0.6","0.4","","","","","0.4722158263","0.3309056029","0.4363582421","0.3151339382","","","","","","","","","","72","H","0","img/none_selected.jpg","","3","main_expt",""
"","bandit","83","343804","0.0-45.0-0.0","70279171","wem/bandit_party_1","AKLV0WIZZ356X","either","2","904","","","","","","","0","0","1","0.4609570051","","0.8","0.2","0.6","0.4","","","","","0.4609570051","0.308467875","0.4300921111","0.250648122","","","","","","","","","","72","H","0","img/none_selected.jpg","","4","main_expt",""
"","bandit","84","345928","0.0-46.0-0.0","70279171","wem/bandit_party_1","AKLV0WIZZ356X","either","2","619","","","","","","","0","0","1","0.4707799186","","0.8","0.2","0.6","0.4","","","","","0.4707799186","0.3349995635","0.3863220662","0.2382585344","","","","","","","","","","72","H","0","img/none_selected.jpg","","5","main_expt",""
"","bandit","85","347910","0.0-47.0-0.0","70279171","wem/bandit_party_1","AKLV0WIZZ356X","either","2","477","","","","","","","0","1","0","","0.3743101545","0.8","0.2","0.6","0.4","0.4676743975","0.3743101545","0.4192648028","0.2088101903","","","","","","","","","","","","","","74","J","1","","","6","main_expt",""
"","bandit","86","353649","0.0-48.0-0.0","70279171","wem/bandit_party_1","AKLV0WIZZ356X","either","2","4235","","","","","","","0","0","1","","0.377506125","0.8","0.2","0.6","0.4","0.4767364015","0.377506125","0.4218548145","0.1884279889","","","","","","","","","","","","","","74","J","1","","","7","main_expt",""
"","bandit","87","355847","0.0-49.0-0.0","70279171","wem/bandit_party_1","AKLV0WIZZ356X","either","2","692","","","","","","","0","0","1","0.4298914749","","0.8","0.2","0.6","0.4","","","","","0.4837409877","0.3452849142","0.4298914749","0.2297930851","","","","","","","","","","75","K","2","","","8","main_expt",""
"","bandit","88","357941","0.0-50.0-0.0","70279171","wem/bandit_party_1","AKLV0WIZZ356X","either","2","590","","","","","","","0","0","1","0.2219539873","","0.8","0.2","0.6","0.4","","","","","0.4825212187","0.2713567333","0.4215440671","0.2219539873","","","","","","","","","","76","L","3","","","9","main_expt",""
"","bandit","89","359865","0.0-51.0-0.0","70279171","wem/bandit_party_1","AKLV0WIZZ356X","either","2","417","","","","","","","1","0","0","0.4791264729","","0.8","0.2","0.6","0.4","","","","","0.4791264729","0.2712708503","0.3991616263","0.2398128751","","","","","","","","","","72","H","0","img/none_selected.jpg","","10","main_expt",""
"","bandit","90","362175","0.0-52.0-0.0","70279171","wem/bandit_party_1","AKLV0WIZZ356X","either","2","803","","","","","","","0","0","1","","0.2635531688","0.8","0.2","0.6","0.4","0.4762013833","0.2635531688","0.4002673883","0.2551733424","","","","","","","","","","","","","","74","J","1","","","11","main_expt",""
"","bandit","91","363775","0.0-53.0-0.0","70279171","wem/bandit_party_1","AKLV0WIZZ356X","either","2","95","","","","","","","1","0","0","0.4729837645","","0.8","0.2","0.6","0.4","","","","","0.4729837645","0.2669056975","0.368629831","0.2593424883","","","","","","","","","","72","H","0","img/none_selected.jpg","","12","main_expt",""
"","bandit","92","365661","0.0-54.0-0.0","70279171","wem/bandit_party_1","AKLV0WIZZ356X","either","2","380","","","","","","","0","0","1","0.4749786695","","0.8","0.2","0.6","0.4","","","","","0.4749786695","0.3204456557","0.4189726289","0.2493591627","","","","","","","","","","72","H","0","img/none_selected.jpg","","13","main_expt",""
"","bandit","93","369807","0.0-55.0-0.0","70279171","wem/bandit_party_1","AKLV0WIZZ356X","either","2","2640","","","","","","","1","0","0","0.4810115094","","0.8","0.2","0.6","0.4","","","","","0.4810115094","0.3466526728","0.4352425359","0.2686446846","","","","","","","","","","72","H","0","img/none_selected.jpg","","14","main_expt",""
"","bandit","94","373189","0.0-56.0-0.0","70279171","wem/bandit_party_1","AKLV0WIZZ356X","either","2","1878","","","","","","","0","0","1","0.4705329286","","0.8","0.2","0.6","0.4","","","","","0.4705329286","0.3736671224","0.3819090161","0.2690169042","","","","","","","","","","72","H","0","img/none_selected.jpg","","15","main_expt",""
"","bandit","95","375563","0.0-57.0-0.0","70279171","wem/bandit_party_1","AKLV0WIZZ356X","either","2","869","","","","","","","1","0","0","0.4687419894","","0.8","0.2","0.6","0.4","","","","","0.4687419894","0.3778143907","0.3737760256","0.2518303543","","","","","","","","","","72","H","0","img/none_selected.jpg","","16","main_expt",""
"","bandit","96","377819","0.0-58.0-0.0","70279171","wem/bandit_party_1","AKLV0WIZZ356X","either","2","751","","","","","","","0","0","1","0.4594180265","","0.8","0.2","0.6","0.4","","","","","0.4594180265","0.3845750066","0.4151791473","0.2406549936","","","","","","","","","","72","H","0","img/none_selected.jpg","","17","main_expt",""
"","bandit","97","379604","0.0-59.0-0.0","70279171","wem/bandit_party_1","AKLV0WIZZ356X","either","2","281","","","","","","","0","0","1","0.425397146","","0.8","0.2","0.6","0.4","","","","","0.425397146","0.4041286345","0.4137363134","0.2670149403","","","","","","","","","","72","H","0","img/none_selected.jpg","","18","main_expt",""
"","bandit","98","381421","0.0-60.0-0.0","70279171","wem/bandit_party_1","AKLV0WIZZ356X","either","2","312","","","","","","","1","0","0","0.4201246927","","0.8","0.2","0.6","0.4","","","","","0.4201246927","0.4127350431","0.4084056464","0.2658482338","","","","","","","","","","72","H","0","img/none_selected.jpg","","19","main_expt",""
"","bandit","99","383224","0.0-61.0-0.0","70279171","wem/bandit_party_1","AKLV0WIZZ356X","either","2","297","","","","","","","0","0","1","0.3954271328","","0.8","0.2","0.6","0.4","","","","","0.3954271328","0.4107359536","0.4129175496","0.2452433766","","","","","","","","","","72","H","0","img/none_selected.jpg","","20","main_expt",""
"","bandit","100","384959","0.0-62.0-0.0","70279171","wem/bandit_party_1","AKLV0WIZZ356X","either","2","231","","","","","","","0","0","1","0.4196431029","","0.8","0.2","0.6","0.4","","","","","0.4196431029","0.3954861765","0.3888488162","0.2298761452","","","","","","","","","","72","H","0","img/none_selected.jpg","","21","main_expt",""
"","bandit","101","386715","0.0-63.0-0.0","70279171","wem/bandit_party_1","AKLV0WIZZ356X","either","2","249","","","","","","","1","0","0","0.3843335182","","0.8","0.2","0.6","0.4","","","","","0.3843335182","0.3805979297","0.3873149631","0.266827693","","","","","","","","","","72","H","0","img/none_selected.jpg","","22","main_expt",""
"","bandit","102","388593","0.0-64.0-0.0","70279171","wem/bandit_party_1","AKLV0WIZZ356X","either","2","373","","","","","","","0","1","0","","0.3839977458","0.8","0.2","0.6","0.4","0.3839977458","0.425451992","0.3659772031","0.2519769849","","","","","","","","","","","","","","72","H","0","img/none_selected.jpg","","23","main_expt",""
"","bandit","103","390375","0.0-65.0-0.0","70279171","wem/bandit_party_1","AKLV0WIZZ356X","either","2","276","","","","","","","1","0","0","0.3338939571","","0.8","0.2","0.6","0.4","","","","","0.3338939571","0.4699447661","0.3594327093","0.2447613107","","","","","","","","","","72","H","0","img/none_selected.jpg","","24","main_expt",""
"","bandit","104","399496","0.0-66.0-0.0","70279171","wem/bandit_party_1","AKLV0WIZZ356X","either","2","7616","","","","","","","0","0","1","0.324486952","","0.8","0.2","0.6","0.4","","","","","0.324486952","0.4484050393","0.3719143394","0.2350413847","","","","","","","","","","72","H","0","img/none_selected.jpg","","25","main_expt",""
"","bandit","105","401334","0.0-67.0-0.0","70279171","wem/bandit_party_1","AKLV0WIZZ356X","either","2","334","","","","","","","0","0","1","0.3095710384","","0.8","0.2","0.6","0.4","","","","","0.3095710384","0.4190234423","0.3690014044","0.207774486","","","","","","","","","","72","H","0","img/none_selected.jpg","","26","main_expt",""
"","bandit","106","403747","0.0-68.0-0.0","70279171","wem/bandit_party_1","AKLV0WIZZ356X","either","2","908","","","","","","","0","0","1","0.4251478254","","0.8","0.2","0.6","0.4","","","","","0.3355629191","0.4251478254","0.3940030818","0.2164182795","","","","","","","","","","74","J","1","","","27","main_expt",""
"","bandit","107","405614","0.0-69.0-0.0","70279171","wem/bandit_party_1","AKLV0WIZZ356X","either","2","363","","","","","","","1","0","0","0.3668681485","","0.8","0.2","0.6","0.4","","","","","0.3668681485","0.4287328697","0.4111080327","0.2164031865","","","","","","","","","","72","H","0","img/none_selected.jpg","","28","main_expt",""
"","bandit","108","407780","0.0-70.0-0.0","70279171","wem/bandit_party_1","AKLV0WIZZ356X","either","2","661","","","","","","","0","0","1","0.343198694","","0.8","0.2","0.6","0.4","","","","","0.343198694","0.4106025245","0.41290056","0.2770000278","","","","","","","","","","72","H","0","img/none_selected.jpg","","29","main_expt",""
"","bandit","109","409444","0.0-71.0-0.0","70279171","wem/bandit_party_1","AKLV0WIZZ356X","either","2","158","","","","","","","0","0","1","0.326069126","","0.8","0.2","0.6","0.4","","","","","0.326069126","0.3942494676","0.3937480262","0.2354797847","","","","","","","","","","72","H","0","img/none_selected.jpg","","30","main_expt",""
"","bandit","110","411687","0.0-72.0-0.0","70279171","wem/bandit_party_1","AKLV0WIZZ356X","either","2","738","","","","","","","1","0","0","0.3390127419","","0.8","0.2","0.6","0.4","","","","","0.3390127419","0.4285056211","0.3997016236","0.2692030882","","","","","","","","","","72","H","0","img/none_selected.jpg","","31","main_expt",""
"","bandit","111","414136","0.0-73.0-0.0","70279171","wem/bandit_party_1","AKLV0WIZZ356X","either","2","944","","","","","","","1","0","0","0.3360649894","","0.8","0.2","0.6","0.4","","","","","0.3360649894","0.4249454459","0.3574295763","0.2471118655","","","","","","","","","","72","H","0","img/none_selected.jpg","","32","main_expt",""
"","bandit","112","416355","0.0-74.0-0.0","70279171","wem/bandit_party_1","AKLV0WIZZ356X","either","2","714","","","","","","","0","0","1","0.3052602024","","0.8","0.2","0.6","0.4","","","","","0.3052602024","0.416417765","0.3877818659","0.2879199001","","","","","","","","","","72","H","0","img/none_selected.jpg","","33","main_expt",""
"","bandit","113","418211","0.0-75.0-0.0","70279171","wem/bandit_party_1","AKLV0WIZZ356X","either","2","349","","","","","","","0","0","1","0.3594788954","","0.8","0.2","0.6","0.4","","","","","0.3594788954","0.4623714429","0.3799496232","0.3180115212","","","","","","","","","","72","H","0","img/none_selected.jpg","","34","main_expt",""
"","bandit","114","420043","0.0-76.0-0.0","70279171","wem/bandit_party_1","AKLV0WIZZ356X","either","2","327","","","","","","","1","0","0","0.380235832","","0.8","0.2","0.6","0.4","","","","","0.380235832","0.4591977302","0.3577573403","0.2524306687","","","","","","","","","","72","H","0","img/none_selected.jpg","","35","main_expt",""
"","bandit","115","422102","0.0-77.0-0.0","70279171","wem/bandit_party_1","AKLV0WIZZ356X","either","2","555","","","","","","","0","0","1","0.3459989602","","0.8","0.2","0.6","0.4","","","","","0.3459989602","0.4686235256","0.3895375856","0.2351869563","","","","","","","","","","72","H","0","img/none_selected.jpg","","36","main_expt",""
"","bandit","116","423932","0.0-78.0-0.0","70279171","wem/bandit_party_1","AKLV0WIZZ356X","either","2","325","","","","","","","0","1","0","","0.3320905149","0.8","0.2","0.6","0.4","0.3320905149","0.4571547709","0.3783527007","0.2629170466","","","","","","","","","","","","","","72","H","0","img/none_selected.jpg","","37","main_expt",""
"","bandit","117","425705","0.0-79.0-0.0","70279171","wem/bandit_party_1","AKLV0WIZZ356X","either","2","266","","","","","","","0","0","1","0.3471020919","","0.8","0.2","0.6","0.4","","","","","0.3471020919","0.4688430709","0.284076782","0.3090194305","","","","","","","","","","72","H","0","img/none_selected.jpg","","38","main_expt",""
"","bandit","118","427611","0.0-80.0-0.0","70279171","wem/bandit_party_1","AKLV0WIZZ356X","either","2","401","","","","","","","1","0","0","0.3401763967","","0.8","0.2","0.6","0.4","","","","","0.3401763967","0.4612923778","0.3388972186","0.2845371228","","","","","","","","","","72","H","0","img/none_selected.jpg","","39","main_expt",""
"","bandit","119","429395","0.0-81.0-0.0","70279171","wem/bandit_party_1","AKLV0WIZZ356X","either","2","280","","","","","","","0","0","1","0.3260487483","","0.8","0.2","0.6","0.4","","","","","0.3260487483","0.4576194683","0.2663655232","0.3076259244","","","","","","","","","","72","H","0","img/none_selected.jpg","","40","main_expt",""
"","bandit","120","431212","0.0-82.0-0.0","70279171","wem/bandit_party_1","AKLV0WIZZ356X","either","2","314","","","","","","","1","0","0","0.3390218734","","0.8","0.2","0.6","0.4","","","","","0.3390218734","0.4473921051","0.2608266697","0.2888769276","","","","","","","","","","72","H","0","img/none_selected.jpg","","41","main_expt",""
"","bandit","121","432987","0.0-83.0-0.0","70279171","wem/bandit_party_1","AKLV0WIZZ356X","either","2","270","","","","","","","0","0","1","0.2889680017","","0.8","0.2","0.6","0.4","","","","","0.2889680017","0.425470286","0.2287676803","0.2639198141","","","","","","","","","","72","H","0","img/none_selected.jpg","","42","main_expt",""
"","bandit","122","434759","0.0-84.0-0.0","70279171","wem/bandit_party_1","AKLV0WIZZ356X","either","2","267","","","","","","","0","0","1","0.2784828801","","0.8","0.2","0.6","0.4","","","","","0.2784828801","0.4030522017","0.2043112358","0.2255441472","","","","","","","","","","72","H","0","img/none_selected.jpg","","43","main_expt",""
"","bandit","123","436704","0.0-85.0-0.0","70279171","wem/bandit_party_1","AKLV0WIZZ356X","either","2","440","","","","","","","0","1","0","","0.2805729819","0.8","0.2","0.6","0.4","0.2805729819","0.4106315797","0.1957049551","0.2050272072","","","","","","","","","","","","","","72","H","0","img/none_selected.jpg","","44","main_expt",""
"","bandit","124","438366","0.0-86.0-0.0","70279171","wem/bandit_party_1","AKLV0WIZZ356X","either","2","156","","","","","","","0","0","1","0.2195119073","","0.8","0.2","0.6","0.4","","","","","0.2195119073","0.4258527362","0.2207366272","0.239455925","","","","","","","","","","72","H","0","img/none_selected.jpg","","45","main_expt",""
"","bandit","125","440087","0.0-87.0-0.0","70279171","wem/bandit_party_1","AKLV0WIZZ356X","either","2","217","","","","","","","0","0","1","0.2657932304","","0.8","0.2","0.6","0.4","","","","","0.2657932304","0.4425966235","0.1727988076","0.2414778298","","","","","","","","","","72","H","0","img/none_selected.jpg","","46","main_expt",""
"","bandit","126","441781","0.0-88.0-0.0","70279171","wem/bandit_party_1","AKLV0WIZZ356X","either","2","189","","","","","","","1","0","0","0.2678398397","","0.8","0.2","0.6","0.4","","","","","0.2678398397","0.4428977597","0.1446735631","0.1884211613","","","","","","","","","","72","H","0","img/none_selected.jpg","","47","main_expt",""
"","bandit","127","443540","0.0-89.0-0.0","70279171","wem/bandit_party_1","AKLV0WIZZ356X","either","2","255","","","","","","","0","0","1","0.2866904938","","0.8","0.2","0.6","0.4","","","","","0.2866904938","0.4479964269","0.1681765936","0.1755274282","","","","","","","","","","72","H","0","img/none_selected.jpg","","48","main_expt",""
"","bandit","128","445241","0.0-90.0-0.0","70279171","wem/bandit_party_1","AKLV0WIZZ356X","either","2","196","","","","","","","0","0","1","0.2803848884","","0.8","0.2","0.6","0.4","","","","","0.2803848884","0.4660387519","0.1473883531","0.1646396384","","","","","","","","","","72","H","0","img/none_selected.jpg","","49","main_expt",""
"","bandit","129","447133","0.0-91.0-0.0","70279171","wem/bandit_party_1","AKLV0WIZZ356X","either","2","387","","","","","","","0","0","1","0.2587411269","","0.8","0.2","0.6","0.4","","","","","0.2587411269","0.4345757832","0.1378170987","0.2024226619","","","","","","","","","","72","H","0","img/none_selected.jpg","","50","main_expt",""
"","bandit","130","448799","0.0-92.0-0.0","70279171","wem/bandit_party_1","AKLV0WIZZ356X","either","2","161","","","","","","","0","0","1","0.2212901065","","0.8","0.2","0.6","0.4","","","","","0.2212901065","0.4450950844","0.1430360168","0.1976760068","","","","","","","","","","72","H","0","img/none_selected.jpg","","51","main_expt",""
"","bandit","131","450463","0.0-93.0-0.0","70279171","wem/bandit_party_1","AKLV0WIZZ356X","either","2","160","","","","","","","0","0","1","0.4475354499","","0.8","0.2","0.6","0.4","","","","","0.236006857","0.4475354499","0.1731798725","0.1796352224","","","","","","","","","","74","J","1","","","52","main_expt",""
"","bandit","132","452211","0.0-94.0-0.0","70279171","wem/bandit_party_1","AKLV0WIZZ356X","either","2","242","","","","","","","1","0","0","0.1312409056","","0.8","0.2","0.6","0.4","","","","","0.2660825342","0.4627294295","0.1312409056","0.2451732725","","","","","","","","","","75","K","2","","","53","main_expt",""
"","bandit","133","453983","0.0-95.0-0.0","70279171","wem/bandit_party_1","AKLV0WIZZ356X","either","2","268","","","","","","","0","0","1","0.1862053218","","0.8","0.2","0.6","0.4","","","","","0.2458345041","0.44829207","0.1862053218","0.2621482643","","","","","","","","","","75","K","2","","","54","main_expt",""
"","bandit","134","455735","0.0-96.0-0.0","70279171","wem/bandit_party_1","AKLV0WIZZ356X","either","2","245","","","","","","","0","0","1","0.1733563037","","0.8","0.2","0.6","0.4","","","","","0.2265690781","0.4505537928","0.1733563037","0.2441780383","","","","","","","","","","75","K","2","","","55","main_expt",""
"","bandit","135","457496","0.0-97.0-0.0","70279171","wem/bandit_party_1","AKLV0WIZZ356X","either","2","256","","","","","","","0","0","1","0.1728369204","","0.8","0.2","0.6","0.4","","","","","0.2741820357","0.4686400132","0.1728369204","0.199729785","","","","","","","","","","75","K","2","","","56","main_expt",""
"","bandit","136","459225","0.0-98.0-0.0","70279171","wem/bandit_party_1","AKLV0WIZZ356X","either","2","225","","","","","","","0","0","1","0.1945085845","","0.8","0.2","0.6","0.4","","","","","0.2937641054","0.4572679106","0.09176359954","0.1945085845","","","","","","","","","","76","L","3","","","57","main_expt",""
"","bandit","137","460981","0.0-99.0-0.0","70279171","wem/bandit_party_1","AKLV0WIZZ356X","either","2","251","","","","","","","0","0","1","","0.2614759052","0.8","0.2","0.6","0.4","0.2949827607","0.4300169527","0.04991422033","0.2614759052","","","","","","","","","","","","","","76","L","3","","","58","main_expt",""
"","bandit","138","462933","0.0-100.0-0.0","70279171","wem/bandit_party_1","AKLV0WIZZ356X","either","2","447","","","","","","","0","0","1","0.2426118991","","0.8","0.2","0.6","0.4","","","","","0.2710075273","0.4050829606","0.053239915","0.2426118991","","","","","","","","","","76","L","3","","","59","main_expt",""
"","bandit","139","466012","0.0-101.0-0.0","70279171","wem/bandit_party_1","AKLV0WIZZ356X","either","2","1573","","","","","","","0","0","1","","0.4070720156","0.8","0.2","0.6","0.4","0.2766623035","0.4070720156","0.06994226662","0.2623750897","","","","","","","","","","","","","","74","J","1","","","60","main_expt",""
"","bandit","140","468252","0.0-102.0-0.0","70279171","wem/bandit_party_1","AKLV0WIZZ356X","either","2","734","","","","","","","0","1","0","","0.3895400789","0.8","0.2","0.6","0.4","0.2574592035","0.3895400789","0.07064832373","0.2139103784","","","","","","","","","","","","","","74","J","1","","","61","main_expt",""
"","bandit","141","470416","0.0-103.0-0.0","70279171","wem/bandit_party_1","AKLV0WIZZ356X","either","2","658","","","","","","","0","0","1","0.4050708951","","0.8","0.2","0.6","0.4","","","","","0.2425209234","0.4050708951","0.08925217872","0.2566580444","","","","","","","","","","74","J","1","","","62","main_expt",""
"","bandit","142","475840","0.0-104.0-0.0","70279171","wem/bandit_party_1","AKLV0WIZZ356X","either","2","3919","","","","","","","1","0","0","0.3765761212","","0.8","0.2","0.6","0.4","","","","","0.2294211584","0.3765761212","0.08505035955","0.2393402704","","","","","","","","","","74","J","1","","","63","main_expt",""
"","bandit","143","477592","0.0-105.0-0.0","70279171","wem/bandit_party_1","AKLV0WIZZ356X","either","2","244","","","","","","","0","1","0","","0.3859881554","0.8","0.2","0.6","0.4","0.2350173232","0.3859881554","0.09892528285","0.300105392","","","","","","","","","","","","","","74","J","1","","","64","main_expt",""
"","bandit","144","479930","0.0-106.0-0.0","70279171","wem/bandit_party_1","AKLV0WIZZ356X","either","2","833","","","","","","","0","0","1","","0.3817039273","0.8","0.2","0.6","0.4","0.2775473173","0.3817039273","0.1428545766","0.2584268813","","","","","","","","","","","","","","74","J","1","","","65","main_expt",""
"","bandit","145","482196","0.0-107.0-0.0","70279171","wem/bandit_party_1","AKLV0WIZZ356X","either","2","759","","","","","","","0","1","0","","0.3622232449","0.8","0.2","0.6","0.4","0.298861572","0.3622232449","0.120440259","0.2536378703","","","","","","","","","","","","","","74","J","1","","","66","main_expt",""
"","bandit","146","485540","0.0-108.0-0.0","70279171","wem/bandit_party_1","AKLV0WIZZ356X","either","2","1839","","","","","","","0","0","1","","0.3768721334","0.8","0.2","0.6","0.4","0.3043747659","0.3768721334","0.2019700983","0.2548884231","","","","","","","","","","","","","","74","J","1","","","67","main_expt",""
"","bandit","147","488786","0.0-109.0-0.0","70279171","wem/bandit_party_1","AKLV0WIZZ356X","either","2","1741","","","","","","","0","0","1","","0.3826604183","0.8","0.2","0.6","0.4","0.2533072519","0.3826604183","0.1467862533","0.2105458193","","","","","","","","","","","","","","74","J","1","","","68","main_expt",""
"","bandit","148","490514","0.0-110.0-0.0","70279171","wem/bandit_party_1","AKLV0WIZZ356X","either","2","224","","","","","","","0","0","1","","0.3981811202","0.8","0.2","0.6","0.4","0.2451677402","0.3981811202","0.09022805221","0.2901666962","","","","","","","","","","","","","","74","J","1","","","69","main_expt",""
"","bandit","149","492523","0.0-111.0-0.0","70279171","wem/bandit_party_1","AKLV0WIZZ356X","either","2","503","","","","","","","0","1","0","","0.3936557204","0.8","0.2","0.6","0.4","0.2403061491","0.3936557204","0.1128827508","0.2973761433","","","","","","","","","","","","","","74","J","1","","","70","main_expt",""
"","bandit","150","494715","0.0-112.0-0.0","70279171","wem/bandit_party_1","AKLV0WIZZ356X","either","2","687","","","","","","","0","0","1","","0.3949471057","0.8","0.2","0.6","0.4","0.1917576795","0.3949471057","0.1184182172","0.2737706179","","","","","","","","","","","","","","74","J","1","","","71","main_expt",""
"","bandit","151","497778","0.0-113.0-0.0","70279171","wem/bandit_party_1","AKLV0WIZZ356X","either","2","1558","","","","","","","0","0","1","0.3888869603","","0.8","0.2","0.6","0.4","","","","","0.1894079546","0.3888869603","0.1038133506","0.3005227265","","","","","","","","","","74","J","1","","","72","main_expt",""
"","bandit","152","500041","0.0-114.0-0.0","70279171","wem/bandit_party_1","AKLV0WIZZ356X","either","2","757","","","","","","","0","1","0","","0.4015056825","0.8","0.2","0.6","0.4","0.235909594","0.4015056825","0.07830871569","0.3205676235","","","","","","","","","","","","","","74","J","1","","","73","main_expt",""
"","bandit","153","503153","0.0-115.0-0.0","70279171","wem/bandit_party_1","AKLV0WIZZ356X","either","2","1608","","","","","","","0","0","1","","0.4200542591","0.8","0.2","0.6","0.4","0.2772030277","0.4200542591","0.09226686474","0.3040473008","","","","","","","","","","","","","","74","J","1","","","74","main_expt",""
"","bandit","154","505894","0.0-116.0-0.0","70279171","wem/bandit_party_1","AKLV0WIZZ356X","either","2","1235","","","","","","","0","1","0","","0.4353174817","0.8","0.2","0.6","0.4","0.2237268092","0.4353174817","0.07948082514","0.2686744794","","","","","","","","","","","","","","74","J","1","","","75","main_expt",""
"","bandit","155","508497","0.0-117.0-0.0","70279171","wem/bandit_party_1","AKLV0WIZZ356X","either","2","1098","","","","","","","0","0","1","","0.4196821318","0.8","0.2","0.6","0.4","0.1739375455","0.4196821318","0.1279570505","0.258707356","","","","","","","","","","","","","","74","J","1","","","76","main_expt",""
"","bandit","156","511613","0.0-118.0-0.0","70279171","wem/bandit_party_1","AKLV0WIZZ356X","either","2","1609","","","","","","","1","0","0","0.3787369199","","0.8","0.2","0.6","0.4","","","","","0.1648796623","0.3787369199","0.1202820049","0.3010070056","","","","","","","","","","74","J","1","","","77","main_expt",""
"","bandit","157","513850","0.0-119.0-0.0","70279171","wem/bandit_party_1","AKLV0WIZZ356X","either","2","731","","","","","","","1","0","0","0.4314930014","","0.8","0.2","0.6","0.4","","","","","0.1637798684","0.4314930014","0.1054071572","0.2648586626","","","","","","","","","","74","J","1","","","78","main_expt",""
"","bandit","158","516133","0.0-120.0-0.0","70279171","wem/bandit_party_1","AKLV0WIZZ356X","either","2","777","","","","","","","1","0","0","0.4155078174","","0.8","0.2","0.6","0.4","","","","","0.1490076182","0.4155078174","0.1403095361","0.1984114041","","","","","","","","","","74","J","1","","","79","main_expt",""
"","bandit","159","519137","0.0-121.0-0.0","70279171","wem/bandit_party_1","AKLV0WIZZ356X","either","2","1500","","","","","","","0","1","0","","0.4226243671","0.8","0.2","0.6","0.4","0.1093198388","0.4226243671","0.1891235553","0.180325551","","","","","","","","","","","","","","74","J","1","","","80","main_expt",""
"","bandit","160","521097","0.0-122.0-0.0","70279171","wem/bandit_party_1","AKLV0WIZZ356X","either","2","455","","","","","","","0","0","1","","0.4474166549","0.8","0.2","0.6","0.4","0.08868186825","0.4474166549","0.1858030354","0.224531153","","","","","","","","","","","","","","74","J","1","","","81","main_expt",""
"","bandit","161","523156","0.0-123.0-0.0","70279171","wem/bandit_party_1","AKLV0WIZZ356X","either","2","555","","","","","","","0","1","0","","0.4636297045","0.8","0.2","0.6","0.4","0.1073880826","0.4636297045","0.2476542501","0.221125015","","","","","","","","","","","","","","74","J","1","","","82","main_expt",""
"","bandit","162","524919","0.0-124.0-0.0","70279171","wem/bandit_party_1","AKLV0WIZZ356X","either","2","258","","","","","","","0","0","1","","0.467509749","0.8","0.2","0.6","0.4","0.1022587498","0.467509749","0.2188241074","0.2143237207","","","","","","","","","","","","","","74","J","1","","","83","main_expt",""
"","bandit","163","526898","0.0-125.0-0.0","70279171","wem/bandit_party_1","AKLV0WIZZ356X","either","2","472","","","","","","","0","0","1","0.4551111531","","0.8","0.2","0.6","0.4","","","","","0.1085807699","0.4551111531","0.2754771977","0.2097367537","","","","","","","","","","74","J","1","","","84","main_expt",""
"","bandit","164","528864","0.0-126.0-0.0","70279171","wem/bandit_party_1","AKLV0WIZZ356X","either","2","461","","","","","","","0","0","1","","0.4621419017","0.8","0.2","0.6","0.4","0.1263918358","0.4621419017","0.2965575968","0.1661536269","","","","","","","","","","","","","","74","J","1","","","85","main_expt",""
"","bandit","165","531000","0.0-127.0-0.0","70279171","wem/bandit_party_1","AKLV0WIZZ356X","either","2","630","","","","","","","0","0","1","","0.4612050897","0.8","0.2","0.6","0.4","0.1481941301","0.4612050897","0.257129161","0.1364458955","","","","","","","","","","","","","","74","J","1","","","86","main_expt",""
"","bandit","166","532907","0.0-128.0-0.0","70279171","wem/bandit_party_1","AKLV0WIZZ356X","either","2","400","","","","","","","0","0","1","","0.4334675206","0.8","0.2","0.6","0.4","0.1447872846","0.4334675206","0.2338967043","0.08235553135","","","","","","","","","","","","","","74","J","1","","","87","main_expt",""
"","bandit","167","534540","0.0-129.0-0.0","70279171","wem/bandit_party_1","AKLV0WIZZ356X","either","2","128","","","","","","","0","0","1","0.4397617206","","0.8","0.2","0.6","0.4","","","","","0.1391637727","0.4397617206","0.2161535794","0.0754832669","","","","","","","","","","74","J","1","","","88","main_expt",""
"","bandit","168","536512","0.0-130.0-0.0","70279171","wem/bandit_party_1","AKLV0WIZZ356X","either","2","465","","","","","","","0","1","0","","0.2043146745","0.8","0.2","0.6","0.4","0.1476089376","0.4635478967","0.2043146745","0.109361408","","","","","","","","","","","","","","75","K","2","","","89","main_expt",""
"","bandit","169","538477","0.0-131.0-0.0","70279171","wem/bandit_party_1","AKLV0WIZZ356X","either","2","460","","","","","","","0","0","1","","0.2346009907","0.8","0.2","0.6","0.4","0.2081489191","0.4234969579","0.2346009907","0.07391079866","","","","","","","","","","","","","","75","K","2","","","90","main_expt",""
"","bandit","170","540430","0.0-132.0-0.0","70279171","wem/bandit_party_1","AKLV0WIZZ356X","either","2","447","","","","","","","0","0","1","0.2333967219","","0.8","0.2","0.6","0.4","","","","","0.1834039029","0.4267507071","0.2333967219","0.1164594673","","","","","","","","","","75","K","2","","","91","main_expt",""
"","bandit","171","542420","0.0-133.0-0.0","70279171","wem/bandit_party_1","AKLV0WIZZ356X","either","2","484","","","","","","","0","0","1","","0.2150480475","0.8","0.2","0.6","0.4","0.2027314649","0.4089505196","0.2150480475","0.113043345","","","","","","","","","","","","","","75","K","2","","","92","main_expt",""
"","bandit","172","543935","0.0-134.0-0.0","70279171","wem/bandit_party_1","AKLV0WIZZ356X","either","2","9","","","","","","","0","0","1","0.2588080464","","0.8","0.2","0.6","0.4","","","","","0.1738894496","0.4112501448","0.2588080464","0.1714352716","","","","","","","","","","75","K","2","","","93","main_expt",""
"","bandit","173","545670","0.0-135.0-0.0","70279171","wem/bandit_party_1","AKLV0WIZZ356X","either","2","229","","","","","","","0","0","1","","0.1253024032","0.8","0.2","0.6","0.4","0.2484708832","0.452415855","0.2748849181","0.1253024032","","","","","","","","","","","","","","76","L","3","","","94","main_expt",""
"","bandit","174","547338","0.0-136.0-0.0","70279171","wem/bandit_party_1","AKLV0WIZZ356X","either","2","162","","","","","","","1","0","0","0.1401284447","","0.8","0.2","0.6","0.4","","","","","0.2914685715","0.4589197587","0.2791739054","0.1401284447","","","","","","","","","","76","L","3","","","95","main_expt",""
"","bandit","175","549030","0.0-137.0-0.0","70279171","wem/bandit_party_1","AKLV0WIZZ356X","either","2","186","","","","","","","0","1","0","","0.1320491369","0.8","0.2","0.6","0.4","0.2417524935","0.4481870348","0.3149564315","0.1320491369","","","","","","","","","","","","","","76","L","3","","","96","main_expt",""
"","bandit","176","550674","0.0-138.0-0.0","70279171","wem/bandit_party_1","AKLV0WIZZ356X","either","2","139","","","","","","","0","0","1","","0.1518453759","0.8","0.2","0.6","0.4","0.2492821404","0.4597072186","0.372564007","0.1518453759","","","","","","","","","","","","","","76","L","3","","","97","main_expt",""
"","bandit","177","552400","0.0-139.0-0.0","70279171","wem/bandit_party_1","AKLV0WIZZ356X","either","2","220","","","","","","","0","0","1","0.2173959583","","0.8","0.2","0.6","0.4","","","","","0.3002958449","0.4705619112","0.393328365","0.2173959583","","","","","","","","","","76","L","3","","","98","main_expt",""
"","bandit","178","554319","0.0-140.0-0.0","70279171","wem/bandit_party_1","AKLV0WIZZ356X","either","2","413","","","","","","","0","0","1","","0.2618725657","0.8","0.2","0.6","0.4","0.3544832656","0.4800968761","0.421239771","0.2618725657","","","","","","","","","","","","","","76","L","3","","","99","main_expt",""
"","bandit","179","557060","0.0-141.0-0.0","70279171","wem/bandit_party_1","AKLV0WIZZ356X","either","2","1237","","","","","","","0","0","1","","0.2487788848","0.8","0.2","0.6","0.4","0.3810954338","0.4780143146","0.4130759476","0.2487788848","","","","","","","","","","","","","","76","L","3","","","100","main_expt",""
"","bandit","180","558967","0.0-142.0-0.0","70279171","wem/bandit_party_1","AKLV0WIZZ356X","either","2","401","","","","","","","0","0","1","0.4042362267","","0.8","0.2","0.6","0.4","","","","","0.4042362267","0.4849002763","0.4089462913","0.2890792313","","","","","","","","","","72","H","0","img/none_selected.jpg","","101","main_expt",""
"","bandit","181","560705","0.0-143.0-0.0","70279171","wem/bandit_party_1","AKLV0WIZZ356X","either","2","231","","","","","","","0","0","1","0.4594696392","","0.8","0.2","0.6","0.4","","","","","0.4594696392","0.4886078379","0.370330464","0.3136369757","","","","","","","","","","72","H","0","img/none_selected.jpg","","102","main_expt",""
"","bandit","182","562449","0.0-144.0-0.0","70279171","wem/bandit_party_1","AKLV0WIZZ356X","either","2","238","","","","","","","1","0","0","0.4588766667","","0.8","0.2","0.6","0.4","","","","","0.4588766667","0.47121906","0.3306315663","0.2364671533","","","","","","","","","","72","H","0","img/none_selected.jpg","","103","main_expt",""
"","bandit","183","564156","0.0-145.0-0.0","70279171","wem/bandit_party_1","AKLV0WIZZ356X","either","2","201","","","","","","","1","0","0","0.4372785745","","0.8","0.2","0.6","0.4","","","","","0.4372785745","0.4760763377","0.354634178","0.2202486688","","","","","","","","","","72","H","0","img/none_selected.jpg","","104","main_expt",""
"","bandit","184","565809","0.0-146.0-0.0","70279171","wem/bandit_party_1","AKLV0WIZZ356X","either","2","147","","","","","","","0","0","1","0.4063887309","","0.8","0.2","0.6","0.4","","","","","0.4063887309","0.4701389446","0.3896605338","0.1854418088","","","","","","","","","","72","H","0","img/none_selected.jpg","","105","main_expt",""
"","bandit","185","567545","0.0-147.0-0.0","70279171","wem/bandit_party_1","AKLV0WIZZ356X","either","2","230","","","","","","","0","0","1","0.3778019321","","0.8","0.2","0.6","0.4","","","","","0.3778019321","0.471324938","0.414339711","0.1596754559","","","","","","","","","","72","H","0","img/none_selected.jpg","","106","main_expt",""
"","bandit","186","569190","0.0-148.0-0.0","70279171","wem/bandit_party_1","AKLV0WIZZ356X","either","2","139","","","","","","","0","0","1","0.3614143111","","0.8","0.2","0.6","0.4","","","","","0.3614143111","0.4786694594","0.4164239898","0.137099288","","","","","","","","","","72","H","0","img/none_selected.jpg","","107","main_expt",""
"","bandit","187","570808","0.0-149.0-0.0","70279171","wem/bandit_party_1","AKLV0WIZZ356X","either","2","112","","","","","","","1","0","0","0.3681250399","","0.8","0.2","0.6","0.4","","","","","0.3681250399","0.4810065258","0.3836571442","0.1443984823","","","","","","","","","","72","H","0","img/none_selected.jpg","","108","main_expt",""
"","bandit","188","572708","0.0-150.0-0.0","70279171","wem/bandit_party_1","AKLV0WIZZ356X","either","2","393","","","","","","","0","0","1","0.3446081275","","0.8","0.2","0.6","0.4","","","","","0.3446081275","0.4816764674","0.3881214568","0.1409511773","","","","","","","","","","72","H","0","img/none_selected.jpg","","109","main_expt",""
"","bandit","189","574524","0.0-151.0-0.0","70279171","wem/bandit_party_1","AKLV0WIZZ356X","either","2","310","","","","","","","1","0","0","0.3681270965","","0.8","0.2","0.6","0.4","","","","","0.3681270965","0.4882082215","0.4266873791","0.1787750665","","","","","","","","","","72","H","0","img/none_selected.jpg","","110","main_expt",""
"","bandit","190","576296","0.0-152.0-0.0","70279171","wem/bandit_party_1","AKLV0WIZZ356X","either","2","265","","","","","","","0","0","1","0.391379093","","0.8","0.2","0.6","0.4","","","","","0.391379093","0.478642168","0.4475699482","0.1862786225","","","","","","","","","","72","H","0","img/none_selected.jpg","","111","main_expt",""
"","bandit","191","578072","0.0-153.0-0.0","70279171","wem/bandit_party_1","AKLV0WIZZ356X","either","2","271","","","","","","","1","0","0","0.4131544452","","0.8","0.2","0.6","0.4","","","","","0.4131544452","0.4841415165","0.4190314983","0.1654620982","","","","","","","","","","72","H","0","img/none_selected.jpg","","112","main_expt",""
"","bandit","192","579811","0.0-154.0-0.0","70279171","wem/bandit_party_1","AKLV0WIZZ356X","either","2","233","","","","","","","0","0","1","","0.3963985948","0.8","0.2","0.6","0.4","0.3963985948","0.4883212127","0.3666128881","0.1582981878","","","","","","","","","","","","","","72","H","0","img/none_selected.jpg","","113","main_expt",""
"","bandit","193","581572","0.0-155.0-0.0","70279171","wem/bandit_party_1","AKLV0WIZZ356X","either","2","255","","","","","","","0","0","1","0.4117985871","","0.8","0.2","0.6","0.4","","","","","0.4117985871","0.4883790739","0.3866259854","0.1922757069","","","","","","","","","","72","H","0","img/none_selected.jpg","","114","main_expt",""
"","bandit","194","583287","0.0-156.0-0.0","70279171","wem/bandit_party_1","AKLV0WIZZ356X","either","2","211","","","","","","","0","0","1","0.394381103","","0.8","0.2","0.6","0.4","","","","","0.394381103","0.4902011966","0.354161152","0.185618385","","","","","","","","","","72","H","0","img/none_selected.jpg","","115","main_expt",""
"","bandit","195","585104","0.0-157.0-0.0","70279171","wem/bandit_party_1","AKLV0WIZZ356X","either","2","312","","","","","","","0","0","1","0.4844723045","","0.8","0.2","0.6","0.4","","","","","0.3762408663","0.4844723045","0.3170745426","0.2057277395","","","","","","","","","","74","J","1","","","116","main_expt",""
"","bandit","196","586907","0.0-158.0-0.0","70279171","wem/bandit_party_1","AKLV0WIZZ356X","either","2","298","","","","","","","0","1","0","","0.4895589844","0.8","0.2","0.6","0.4","0.3823674378","0.4895589844","0.304536318","0.2288411079","","","","","","","","","","","","","","74","J","1","","","117","main_expt",""
"","bandit","197","588654","0.0-159.0-0.0","70279171","wem/bandit_party_1","AKLV0WIZZ356X","either","2","239","","","","","","","0","1","0","","0.4899729034","0.8","0.2","0.6","0.4","0.4050195855","0.4899729034","0.3411026949","0.2207517482","","","","","","","","","","","","","","74","J","1","","","118","main_expt",""
"","bandit","198","590392","0.0-160.0-0.0","70279171","wem/bandit_party_1","AKLV0WIZZ356X","either","2","232","","","","","","","0","0","1","","0.4947041593","0.8","0.2","0.6","0.4","0.4227562767","0.4947041593","0.3447942488","0.1955286499","","","","","","","","","","","","","","74","J","1","","","119","main_expt",""
"","bandit","199","592162","0.0-161.0-0.0","70279171","wem/bandit_party_1","AKLV0WIZZ356X","either","2","263","","","","","","","0","1","0","","0.4916865355","0.8","0.2","0.6","0.4","0.4163810796","0.4916865355","0.3686185352","0.2427950695","","","","","","","","","","","","","","74","J","1","","","120","main_expt",""
"","bandit","200","593911","0.0-162.0-0.0","70279171","wem/bandit_party_1","AKLV0WIZZ356X","either","2","244","","","","","","","0","1","0","","0.4860386064","0.8","0.2","0.6","0.4","0.406821829","0.4860386064","0.3547669752","0.2479682904","","","","","","","","","","","","","","74","J","1","","","121","main_expt",""
"","bandit","201","611436","0.0-163.0-0.0","70279171","wem/bandit_party_1","AKLV0WIZZ356X","either","2","16019","","","","","","","0","0","1","0.483083859","","0.8","0.2","0.6","0.4","","","","","0.3999449125","0.483083859","0.365994073","0.3081985406","","","","","","","","","","74","J","1","","","122","main_expt",""
"","bandit","202","613145","0.0-164.0-0.0","70279171","wem/bandit_party_1","AKLV0WIZZ356X","either","2","204","","","","","","","0","0","1","0.4791491275","","0.8","0.2","0.6","0.4","","","","","0.366626489","0.4791491275","0.3120596142","0.3089359708","","","","","","","","","","74","J","1","","","123","main_expt",""
"","bandit","203","614984","0.0-165.0-0.0","70279171","wem/bandit_party_1","AKLV0WIZZ356X","either","2","332","","","","","","","0","0","1","","0.4776777384","0.8","0.2","0.6","0.4","0.3706278578","0.4776777384","0.302161917","0.3298338218","","","","","","","","","","","","","","74","J","1","","","124","main_expt",""
"","bandit","204","617722","0.0-166.0-0.0","70279171","wem/bandit_party_1","AKLV0WIZZ356X","either","2","1232","","","","","","","0","1","0","","0.478983255","0.8","0.2","0.6","0.4","0.3545504723","0.478983255","0.2794370347","0.2795250441","","","","","","","","","","","","","","74","J","1","","","125","main_expt",""
"","bandit","205","619911","0.0-167.0-0.0","70279171","wem/bandit_party_1","AKLV0WIZZ356X","either","2","684","","","","","","","0","0","1","0.4724726719","","0.8","0.2","0.6","0.4","","","","","0.3106298006","0.4724726719","0.2466154908","0.2184127205","","","","","","","","","","74","J","1","","","126","main_expt",""
"","bandit","206","622375","0.0-168.0-0.0","70279171","wem/bandit_party_1","AKLV0WIZZ356X","either","2","955","","","","","","","0","0","1","","0.4796244369","0.8","0.2","0.6","0.4","0.3351405197","0.4796244369","0.2712823261","0.2488858907","","","","","","","","","","","","","","74","J","1","","","127","main_expt",""
"","bandit","207","624626","0.0-169.0-0.0","70279171","wem/bandit_party_1","AKLV0WIZZ356X","either","2","746","","","","","","","0","0","1","","0.4825212971","0.8","0.2","0.6","0.4","0.2984422464","0.4825212971","0.2095517986","0.2850827173","","","","","","","","","","","","","","74","J","1","","","128","main_expt",""
"","bandit","208","626506","0.0-170.0-0.0","70279171","wem/bandit_party_1","AKLV0WIZZ356X","either","2","374","","","","","","","1","0","0","0.4877535013","","0.8","0.2","0.6","0.4","","","","","0.2027892291","0.4877535013","0.1986866195","0.2867242009","","","","","","","","","","74","J","1","","","129","main_expt",""
"","bandit","209","629460","0.0-171.0-0.0","70279171","wem/bandit_party_1","AKLV0WIZZ356X","either","2","1447","","","","","","","0","0","1","","0.4833646461","0.8","0.2","0.6","0.4","0.13768179","0.4833646461","0.172959111","0.2509552002","","","","","","","","","","","","","","74","J","1","","","130","main_expt",""
"","bandit","210","631405","0.0-172.0-0.0","70279171","wem/bandit_party_1","AKLV0WIZZ356X","either","2","440","","","","","","","0","0","1","","0.163172462","0.8","0.2","0.6","0.4","0.1352832961","0.4790990265","0.163172462","0.2172434631","","","","","","","","","","","","","","75","K","2","","","131","main_expt",""
"","bandit","211","633204","0.0-173.0-0.0","70279171","wem/bandit_party_1","AKLV0WIZZ356X","either","2","292","","","","","","","0","0","1","0.161148659","","0.8","0.2","0.6","0.4","","","","","0.08660982753","0.4882311922","0.161148659","0.158295755","","","","","","","","","","75","K","2","","","132","main_expt",""
"","bandit","212","634886","0.0-174.0-0.0","70279171","wem/bandit_party_1","AKLV0WIZZ356X","either","2","177","","","","","","","0","0","1","","0.1735641072","0.8","0.2","0.6","0.4","0.1020907376","0.4889625365","0.1735641072","0.185310911","","","","","","","","","","","","","","75","K","2","","","133","main_expt",""
"","bandit","213","636655","0.0-175.0-0.0","70279171","wem/bandit_party_1","AKLV0WIZZ356X","either","2","263","","","","","","","0","0","1","0.1966535246","","0.8","0.2","0.6","0.4","","","","","0.1231499397","0.4916783795","0.1597390633","0.1966535246","","","","","","","","","","76","L","3","","","134","main_expt",""
"","bandit","214","638414","0.0-176.0-0.0","70279171","wem/bandit_party_1","AKLV0WIZZ356X","either","2","255","","","","","","","0","0","1","","0.2290191974","0.8","0.2","0.6","0.4","0.1524236556","0.4904315354","0.1460070414","0.2290191974","","","","","","","","","","","","","","76","L","3","","","135","main_expt",""
"","bandit","215","639957","0.0-177.0-0.0","70279171","wem/bandit_party_1","AKLV0WIZZ356X","either","2","36","","","","","","","0","0","1","0.2929229053","","0.8","0.2","0.6","0.4","","","","","0.1954247664","0.491666595","0.105474526","0.2929229053","","","","","","","","","","76","L","3","","","136","main_expt",""
"","bandit","216","641790","0.0-178.0-0.0","70279171","wem/bandit_party_1","AKLV0WIZZ356X","either","2","327","","","","","","","0","0","1","0.1833989084","","0.8","0.2","0.6","0.4","","","","","0.1833989084","0.4917142499","0.08835118593","0.2780805385","","","","","","","","","","72","H","0","img/none_selected.jpg","","137","main_expt",""
"","bandit","217","643557","0.0-179.0-0.0","70279171","wem/bandit_party_1","AKLV0WIZZ356X","either","2","262","","","","","","","1","0","0","0.1490533902","","0.8","0.2","0.6","0.4","","","","","0.1490533902","0.4870170403","0.06418360449","0.217224157","","","","","","","","","","72","H","0","img/none_selected.jpg","","138","main_expt",""
"","bandit","218","645346","0.0-180.0-0.0","70279171","wem/bandit_party_1","AKLV0WIZZ356X","either","2","282","","","","","","","0","0","1","0.1318817547","","0.8","0.2","0.6","0.4","","","","","0.1318817547","0.4834992155","0.03554325754","0.2323391466","","","","","","","","","","72","H","0","img/none_selected.jpg","","139","main_expt",""
"","bandit","219","647101","0.0-181.0-0.0","70279171","wem/bandit_party_1","AKLV0WIZZ356X","either","2","250","","","","","","","0","0","1","0.1877412345","","0.8","0.2","0.6","0.4","","","","","0.1877412345","0.4927392517","0.04477370895","0.244475209","","","","","","","","","","72","H","0","img/none_selected.jpg","","140","main_expt",""
"","bandit","220","648669","0.0-182.0-0.0","70279171","wem/bandit_party_1","AKLV0WIZZ356X","either","2","62","","","","","","","0","0","1","0.2363671377","","0.8","0.2","0.6","0.4","","","","","0.2363671377","0.4872377518","0.03780119019","0.232604034","","","","","","","","","","72","H","0","img/none_selected.jpg","","141","main_expt",""
"","bandit","221","650495","0.0-183.0-0.0","70279171","wem/bandit_party_1","AKLV0WIZZ356X","either","2","321","","","","","","","0","0","1","","0.2546402356","0.8","0.2","0.6","0.4","0.2546402356","0.4846254936","0.03149913875","0.2447345556","","","","","","","","","","","","","","72","H","0","img/none_selected.jpg","","142","main_expt",""
"","bandit","222","652363","0.0-184.0-0.0","70279171","wem/bandit_party_1","AKLV0WIZZ356X","either","2","362","","","","","","","0","0","1","","0.4815328815","0.8","0.2","0.6","0.4","0.2825544685","0.4815328815","0.04191513266","0.26413271","","","","","","","","","","","","","","74","J","1","","","143","main_expt",""
"","bandit","223","653868","0.0-185.0-0.0","70279171","wem/bandit_party_1","AKLV0WIZZ356X","either","2","0","","","","","","","0","0","1","","0.4854048375","0.8","0.2","0.6","0.4","0.2731230023","0.4854048375","0.05613120157","0.1988203511","","","","","","","","","","","","","","74","J","1","","","144","main_expt",""
"","bandit","224","655775","0.0-186.0-0.0","70279171","wem/bandit_party_1","AKLV0WIZZ356X","either","2","401","","","","","","","0","1","0","","0.4813029389","0.8","0.2","0.6","0.4","0.2943814715","0.4813029389","0.03827589539","0.217822638","","","","","","","","","","","","","","74","J","1","","","145","main_expt",""
"","bandit","225","657606","0.0-187.0-0.0","70279171","wem/bandit_party_1","AKLV0WIZZ356X","either","2","325","","","","","","","0","0","1","","0.4884824202","0.8","0.2","0.6","0.4","0.328634005","0.4884824202","0.02861175853","0.2009042904","","","","","","","","","","","","","","74","J","1","","","146","main_expt",""
"","bandit","226","659613","0.0-188.0-0.0","70279171","wem/bandit_party_1","AKLV0WIZZ356X","either","2","501","","","","","","","0","1","0","","0.4835291327","0.8","0.2","0.6","0.4","0.3511209141","0.4835291327","0.02140640811","0.2080446297","","","","","","","","","","","","","","74","J","1","","","147","main_expt",""
"","bandit","227","661859","0.0-189.0-0.0","70279171","wem/bandit_party_1","AKLV0WIZZ356X","either","2","740","","","","","","","0","0","1","0.4716003481","","0.8","0.2","0.6","0.4","","","","","0.3874996206","0.4716003481","0.0202041473","0.1536700415","","","","","","","","","","74","J","1","","","148","main_expt",""
"","bandit","228","663642","0.0-190.0-0.0","70279171","wem/bandit_party_1","AKLV0WIZZ356X","either","2","277","","","","","","","0","1","0","","0.4341886607","0.8","0.2","0.6","0.4","0.3476646045","0.4341886607","0.01154190459","0.1593661633","","","","","","","","","","","","","","74","J","1","","","149","main_expt",""
"","bandit","229","665587","0.0-191.0-0.0","70279171","wem/bandit_party_1","AKLV0WIZZ356X","either","2","440","","","","","","","0","1","0","","0.4014438172","0.8","0.2","0.6","0.4","0.3323010919","0.4014438172","0.01291237021","0.144955896","","","","","","","","","","","","","","74","J","1","","","150","main_expt",""
"","bandit","230","667429","0.0-192.0-0.0","70279171","wem/bandit_party_1","AKLV0WIZZ356X","either","2","337","","","","","","","0","1","0","","0.3980713407","0.8","0.2","0.6","0.4","0.3954477196","0.3980713407","0.0137789916","0.2123564028","","","","","","","","","","","","","","74","J","1","","","151","main_expt",""
"","bandit","231","669529","0.0-193.0-0.0","70279171","wem/bandit_party_1","AKLV0WIZZ356X","either","2","592","","","","","","","1","0","0","0.4002357887","","0.8","0.2","0.6","0.4","","","","","0.4186327087","0.4002357887","0.01985271471","0.2301890466","","","","","","","","","","74","J","1","","","152","main_expt",""
"","bandit","232","671456","0.0-194.0-0.0","70279171","wem/bandit_party_1","AKLV0WIZZ356X","either","2","421","","","","","","","0","0","1","","0.388677987","0.8","0.2","0.6","0.4","0.4029566754","0.388677987","0.02951100453","0.2295153641","","","","","","","","","","","","","","74","J","1","","","153","main_expt",""
"","bandit","233","673480","0.0-195.0-0.0","70279171","wem/bandit_party_1","AKLV0WIZZ356X","either","2","517","","","","","","","0","0","1","","0.3817747688","0.8","0.2","0.6","0.4","0.4037751878","0.3817747688","0.02325572033","0.2163321136","","","","","","","","","","","","","","74","J","1","","","154","main_expt",""
"","bandit","234","675268","0.0-196.0-0.0","70279171","wem/bandit_party_1","AKLV0WIZZ356X","either","2","282","","","","","","","0","0","1","","0.327727533","0.8","0.2","0.6","0.4","0.4078727314","0.327727533","0.03925092562","0.2257858177","","","","","","","","","","","","","","74","J","1","","","155","main_expt",""
"","bandit","235","677288","0.0-197.0-0.0","70279171","wem/bandit_party_1","AKLV0WIZZ356X","either","2","513","","","","","","","0","0","1","","0.2821504166","0.8","0.2","0.6","0.4","0.3941681487","0.2821504166","0.05532081832","0.2077891775","","","","","","","","","","","","","","74","J","1","","","156","main_expt",""
"","bandit","236","679994","0.0-198.0-0.0","70279171","wem/bandit_party_1","AKLV0WIZZ356X","either","2","1200","","","","","","","0","1","0","","0.2784527126","0.8","0.2","0.6","0.4","0.3417147062","0.2784527126","0.05983660039","0.1742908387","","","","","","","","","","","","","","74","J","1","","","157","main_expt",""
"","bandit","237","682038","0.0-199.0-0.0","70279171","wem/bandit_party_1","AKLV0WIZZ356X","either","2","539","","","","","","","0","0","1","","0.2857058734","0.8","0.2","0.6","0.4","0.2963220618","0.2857058734","0.09347744845","0.162057643","","","","","","","","","","","","","","74","J","1","","","158","main_expt",""
"","bandit","238","683642","0.0-200.0-0.0","70279171","wem/bandit_party_1","AKLV0WIZZ356X","either","2","97","","","","","","","0","1","0","","0.2349295223","0.8","0.2","0.6","0.4","0.2961528309","0.2349295223","0.09649648717","0.1805514511","","","","","","","","","","","","","","74","J","1","","","159","main_expt",""
"","bandit","239","685785","0.0-201.0-0.0","70279171","wem/bandit_party_1","AKLV0WIZZ356X","either","2","638","","","","","","","0","0","1","","0.2275717407","0.8","0.2","0.6","0.4","0.2842772575","0.2275717407","0.08382429791","0.1724629995","","","","","","","","","","","","","","74","J","1","","","160","main_expt",""
"","bandit","240","688320","0.0-202.0-0.0","70279171","wem/bandit_party_1","AKLV0WIZZ356X","either","2","1028","","","","","","","0","0","1","0.2559884592","","0.8","0.2","0.6","0.4","","","","","0.2747674873","0.2559884592","0.1466352983","0.1660992999","","","","","","","","","","74","J","1","","","161","main_expt",""
"","bandit","241","691495","0.0-203.0-0.0","70279171","wem/bandit_party_1","AKLV0WIZZ356X","either","2","1668","","","","","","","0","1","0","","0.2670526618","0.8","0.2","0.6","0.4","0.2993190406","0.2670526618","0.1569467617","0.2281832109","","","","","","","","","","","","","","74","J","1","","","162","main_expt",""
"","bandit","242","693482","0.0-204.0-0.0","70279171","wem/bandit_party_1","AKLV0WIZZ356X","either","2","482","","","","","","","0","0","1","","0.2618894379","0.8","0.2","0.6","0.4","0.3102408377","0.2618894379","0.1437935099","0.2144285545","","","","","","","","","","","","","","74","J","1","","","163","main_expt",""
"","bandit","243","695288","0.0-205.0-0.0","70279171","wem/bandit_party_1","AKLV0WIZZ356X","either","2","300","","","","","","","0","0","1","0.2977476978","","0.8","0.2","0.6","0.4","","","","","0.2607878409","0.2977476978","0.1503677763","0.2131293933","","","","","","","","","","74","J","1","","","164","main_expt",""
"","bandit","244","696869","0.0-206.0-0.0","70279171","wem/bandit_party_1","AKLV0WIZZ356X","either","2","75","","","","","","","0","0","1","","0.3138636066","0.8","0.2","0.6","0.4","0.2470054868","0.3138636066","0.1574825995","0.251698227","","","","","","","","","","","","","","74","J","1","","","165","main_expt",""
"","bandit","245","698673","0.0-207.0-0.0","70279171","wem/bandit_party_1","AKLV0WIZZ356X","either","2","295","","","","","","","0","0","1","0.3204338644","","0.8","0.2","0.6","0.4","","","","","0.2629624785","0.3204338644","0.1500633275","0.2831539445","","","","","","","","","","74","J","1","","","166","main_expt",""
"","bandit","246","700295","0.0-208.0-0.0","70279171","wem/bandit_party_1","AKLV0WIZZ356X","either","2","115","","","","","","","0","0","1","","0.1137242654","0.8","0.2","0.6","0.4","0.2745713682","0.3600517585","0.1137242654","0.2496169508","","","","","","","","","","","","","","75","K","2","","","167","main_expt",""
"","bandit","247","702301","0.0-209.0-0.0","70279171","wem/bandit_party_1","AKLV0WIZZ356X","either","2","499","","","","","","","1","0","0","0.2557249153","","0.8","0.2","0.6","0.4","","","","","0.2557249153","0.3678373827","0.145192941","0.2315540067","","","","","","","","","","72","H","0","img/none_selected.jpg","","168","main_expt",""
"","bandit","248","704827","0.0-210.0-0.0","70279171","wem/bandit_party_1","AKLV0WIZZ356X","either","2","1021","","","","","","","0","0","1","0.2016321063","","0.8","0.2","0.6","0.4","","","","","0.2016321063","0.3421512568","0.1863479632","0.1825517174","","","","","","","","","","72","H","0","img/none_selected.jpg","","169","main_expt",""
"","bandit","249","706809","0.0-211.0-0.0","70279171","wem/bandit_party_1","AKLV0WIZZ356X","either","2","476","","","","","","","0","0","1","0.2210696627","","0.8","0.2","0.6","0.4","","","","","0.2210696627","0.3917895485","0.142304713","0.2535959064","","","","","","","","","","72","H","0","img/none_selected.jpg","","170","main_expt",""
"","bandit","250","708548","0.0-212.0-0.0","70279171","wem/bandit_party_1","AKLV0WIZZ356X","either","2","233","","","","","","","0","0","1","","0.1627904758","0.8","0.2","0.6","0.4","0.1627904758","0.3206692194","0.1739768979","0.3004284576","","","","","","","","","","","","","","72","H","0","img/none_selected.jpg","","171","main_expt",""
"","bandit","251","711474","0.0-213.0-0.0","70279171","wem/bandit_party_1","AKLV0WIZZ356X","either","2","1421","","","","","","","0","1","0","","0.2716191145","0.8","0.2","0.6","0.4","0.1421076649","0.3198600846","0.2172659048","0.2716191145","","","","","","","","","","","","","","76","L","3","","","172","main_expt",""
"","bandit","252","713167","0.0-214.0-0.0","70279171","wem/bandit_party_1","AKLV0WIZZ356X","either","2","184","","","","","","","0","0","1","","0.3253138029","0.8","0.2","0.6","0.4","0.165050165","0.2641483633","0.2419731025","0.3253138029","","","","","","","","","","","","","","76","L","3","","","173","main_expt",""
"","bandit","253","716259","0.0-215.0-0.0","70279171","wem/bandit_party_1","AKLV0WIZZ356X","either","2","1585","","","","","","","0","0","1","0.3419591401","","0.8","0.2","0.6","0.4","","","","","0.1406738207","0.2248062597","0.2239571331","0.3419591401","","","","","","","","","","76","L","3","","","174","main_expt",""
"","bandit","254","718102","0.0-216.0-0.0","70279171","wem/bandit_party_1","AKLV0WIZZ356X","either","2","337","","","","","","","0","0","1","0.3442692367","","0.8","0.2","0.6","0.4","","","","","0.138310495","0.2370379408","0.2311410243","0.3442692367","","","","","","","","","","76","L","3","","","175","main_expt",""
"","bandit","255","720082","0.0-217.0-0.0","70279171","wem/bandit_party_1","AKLV0WIZZ356X","either","2","475","","","","","","","0","0","1","0.3397266539","","0.8","0.2","0.6","0.4","","","","","0.1675243642","0.2157433706","0.2610077479","0.3397266539","","","","","","","","","","76","L","3","","","176","main_expt",""
"","bandit","256","721783","0.0-218.0-0.0","70279171","wem/bandit_party_1","AKLV0WIZZ356X","either","2","196","","","","","","","0","0","1","","0.2997078274","0.8","0.2","0.6","0.4","0.1919885971","0.2014791824","0.2780938204","0.2997078274","","","","","","","","","","","","","","76","L","3","","","177","main_expt",""
"","bandit","257","723683","0.0-219.0-0.0","70279171","wem/bandit_party_1","AKLV0WIZZ356X","either","2","394","","","","","","","0","0","1","","0.3064007527","0.8","0.2","0.6","0.4","0.2365392944","0.1913564418","0.3151752793","0.3064007527","","","","","","","","","","","","","","76","L","3","","","178","main_expt",""
"","bandit","258","725271","0.0-220.0-0.0","70279171","wem/bandit_party_1","AKLV0WIZZ356X","either","2","82","","","","","","","0","0","1","0.2799621139","","0.8","0.2","0.6","0.4","","","","","0.2509455726","0.1980728016","0.2799621139","0.3533432679","","","","","","","","","","75","K","2","","","179","main_expt",""
"","bandit","259","727210","0.0-221.0-0.0","70279171","wem/bandit_party_1","AKLV0WIZZ356X","either","2","431","","","","","","","0","0","1","0.3170936092","","0.8","0.2","0.6","0.4","","","","","0.2767223981","0.1833491223","0.3170936092","0.3652522579","","","","","","","","","","75","K","2","","","180","main_expt",""
"","bandit","260","730023","0.0-222.0-0.0","70279171","wem/bandit_party_1","AKLV0WIZZ356X","either","2","1306","","","","","","","0","0","1","","0.1342686697","0.8","0.2","0.6","0.4","0.314600373","0.1342686697","0.28101752","0.3383156657","","","","","","","","","","","","","","74","J","1","","","181","main_expt",""
"","bandit","261","731868","0.0-223.0-0.0","70279171","wem/bandit_party_1","AKLV0WIZZ356X","either","2","339","","","","","","","0","0","1","0.3943610609","","0.8","0.2","0.6","0.4","","","","","0.3943610609","0.1636660304","0.3043342224","0.2902116232","","","","","","","","","","72","H","0","img/none_selected.jpg","","182","main_expt",""
"","bandit","262","733661","0.0-224.0-0.0","70279171","wem/bandit_party_1","AKLV0WIZZ356X","either","2","286","","","","","","","0","0","1","","0.136761637","0.8","0.2","0.6","0.4","0.3586422101","0.136761637","0.3192524042","0.3026157476","","","","","","","","","","","","","","74","J","1","","","183","main_expt",""
"","bandit","263","735235","0.0-225.0-0.0","70279171","wem/bandit_party_1","AKLV0WIZZ356X","either","2","67","","","","","","","0","0","1","0.3332516821","","0.8","0.2","0.6","0.4","","","","","0.3879999062","0.1685989701","0.3332516821","0.3360229169","","","","","","","","","","75","K","2","","","184","main_expt",""
"","bandit","264","737697","0.0-226.0-0.0","70279171","wem/bandit_party_1","AKLV0WIZZ356X","either","2","956","","","","","","","0","0","1","0.3336456265","","0.8","0.2","0.6","0.4","","","","","0.3831340227","0.1663529744","0.3228184693","0.3336456265","","","","","","","","","","76","L","3","","","185","main_expt",""
"","bandit","265","739455","0.0-227.0-0.0","70279171","wem/bandit_party_1","AKLV0WIZZ356X","either","2","250","","","","","","","0","0","1","","0.3111703144","0.8","0.2","0.6","0.4","0.3999004662","0.1916836285","0.3111703144","0.3308881938","","","","","","","","","","","","","","75","K","2","","","186","main_expt",""
"","bandit","266","740980","0.0-228.0-0.0","70279171","wem/bandit_party_1","AKLV0WIZZ356X","either","2","18","","","","","","","0","0","1","0.1686829448","","0.8","0.2","0.6","0.4","","","","","0.3875363153","0.1686829448","0.3353611299","0.325530054","","","","","","","","","","74","J","1","","","187","main_expt",""
"","bandit","267","742707","0.0-229.0-0.0","70279171","wem/bandit_party_1","AKLV0WIZZ356X","either","2","218","","","","","","","0","1","0","","0.3875691392","0.8","0.2","0.6","0.4","0.3875691392","0.1461675531","0.3646937268","0.3055482451","","","","","","","","","","","","","","72","H","0","img/none_selected.jpg","","188","main_expt",""
"","bandit","268","744445","0.0-230.0-0.0","70279171","wem/bandit_party_1","AKLV0WIZZ356X","either","2","230","","","","","","","0","0","1","0.4166866882","","0.8","0.2","0.6","0.4","","","","","0.4166866882","0.1382971047","0.3891323825","0.3002345065","","","","","","","","","","72","H","0","img/none_selected.jpg","","189","main_expt",""
"","bandit","269","746343","0.0-231.0-0.0","70279171","wem/bandit_party_1","AKLV0WIZZ356X","either","2","391","","","","","","","0","0","1","","0.4124474499","0.8","0.2","0.6","0.4","0.4124474499","0.1898135375","0.3860741766","0.2693931213","","","","","","","","","","","","","","72","H","0","img/none_selected.jpg","","190","main_expt",""
"","bandit","270","748120","0.0-232.0-0.0","70279171","wem/bandit_party_1","AKLV0WIZZ356X","either","2","271","","","","","","","0","0","1","0.3638199534","","0.8","0.2","0.6","0.4","","","","","0.3638199534","0.1264917812","0.3864243721","0.3009284261","","","","","","","","","","72","H","0","img/none_selected.jpg","","191","main_expt",""
"","bandit","271","749699","0.0-233.0-0.0","70279171","wem/bandit_party_1","AKLV0WIZZ356X","either","2","72","","","","","","","0","0","1","","0.3711146034","0.8","0.2","0.6","0.4","0.3711146034","0.1185409567","0.400448014","0.3157917784","","","","","","","","","","","","","","72","H","0","img/none_selected.jpg","","192","main_expt",""
"","bandit","272","751672","0.0-234.0-0.0","70279171","wem/bandit_party_1","AKLV0WIZZ356X","either","2","463","","","","","","","0","1","0","","0.09837948322","0.8","0.2","0.6","0.4","0.3654165885","0.09837948322","0.3895367297","0.2999212614","","","","","","","","","","","","","","74","J","1","","","193","main_expt",""
"","bandit","273","753426","0.0-235.0-0.0","70279171","wem/bandit_party_1","AKLV0WIZZ356X","either","2","248","","","","","","","0","0","1","","0.137690802","0.8","0.2","0.6","0.4","0.3537818584","0.137690802","0.4032313792","0.3287494418","","","","","","","","","","","","","","74","J","1","","","194","main_expt",""
"","bandit","274","755288","0.0-236.0-0.0","70279171","wem/bandit_party_1","AKLV0WIZZ356X","either","2","356","","","","","","","0","0","1","","0.1683354775","0.8","0.2","0.6","0.4","0.3597494918","0.1683354775","0.337234763","0.3031978913","","","","","","","","","","","","","","74","J","1","","","195","main_expt",""
"","bandit","275","756952","0.0-237.0-0.0","70279171","wem/bandit_party_1","AKLV0WIZZ356X","either","2","157","","","","","","","0","0","1","","0.1561951964","0.8","0.2","0.6","0.4","0.3479121901","0.1561951964","0.3950764453","0.2901303692","","","","","","","","","","","","","","74","J","1","","","196","main_expt",""
"","bandit","276","758564","0.0-238.0-0.0","70279171","wem/bandit_party_1","AKLV0WIZZ356X","either","2","103","","","","","","","0","0","1","0.1329868482","","0.8","0.2","0.6","0.4","","","","","0.3596292454","0.1329868482","0.4193743727","0.2444781728","","","","","","","","","","74","J","1","","","197","main_expt",""
"","bandit","277","760268","0.0-239.0-0.0","70279171","wem/bandit_party_1","AKLV0WIZZ356X","either","2","198","","","","","","","0","0","1","0.1730826789","","0.8","0.2","0.6","0.4","","","","","0.3555371828","0.1730826789","0.4375347816","0.2140047665","","","","","","","","","","74","J","1","","","198","main_expt",""
"","bandit","278","762036","0.0-240.0-0.0","70279171","wem/bandit_party_1","AKLV0WIZZ356X","either","2","262","","","","","","","0","0","1","","0.1385649096","0.8","0.2","0.6","0.4","0.4016486285","0.1385649096","0.4315030007","0.2077842613","","","","","","","","","","","","","","74","J","1","","","199","main_expt",""
"","bandit","279","763813","0.0-241.0-0.0","70279171","wem/bandit_party_1","AKLV0WIZZ356X","either","2","270","","","","","","","0","0","1","","0.1941139053","0.8","0.2","0.6","0.4","0.3871107612","0.1941139053","0.4340108373","0.180488049","","","","","","","","","","","","","","74","J","1","","","200","main_expt",""
"","bandit","280","765616","0.0-242.0-0.0","70279171","wem/bandit_party_1","AKLV0WIZZ356X","either","2","296","","","","","","","0","0","1","0.3856539452","","0.8","0.2","0.6","0.4","","","","","0.3856539452","0.1825013029","0.441078118","0.2084987087","","","","","","","","","","72","H","0","img/none_selected.jpg","","201","main_expt",""
"","bandit","281","767349","0.0-243.0-0.0","70279171","wem/bandit_party_1","AKLV0WIZZ356X","either","2","225","","","","","","","0","0","1","","0.358588673","0.8","0.2","0.6","0.4","0.358588673","0.162440572","0.4143682719","0.1869669721","","","","","","","","","","","","","","72","H","0","img/none_selected.jpg","","202","main_expt",""
"","bandit","282","769053","0.0-244.0-0.0","70279171","wem/bandit_party_1","AKLV0WIZZ356X","either","2","196","","","","","","","0","0","1","0.3460881607","","0.8","0.2","0.6","0.4","","","","","0.3460881607","0.1914238456","0.4280720422","0.1383076553","","","","","","","","","","72","H","0","img/none_selected.jpg","","203","main_expt",""
"","bandit","283","770959","0.0-245.0-0.0","70279171","wem/bandit_party_1","AKLV0WIZZ356X","either","2","400","","","","","","","0","0","1","","0.3091432968","0.8","0.2","0.6","0.4","0.3091432968","0.1849793247","0.4113524858","0.1656187697","","","","","","","","","","","","","","72","H","0","img/none_selected.jpg","","204","main_expt",""
"","bandit","284","772692","0.0-246.0-0.0","70279171","wem/bandit_party_1","AKLV0WIZZ356X","either","2","225","","","","","","","0","0","1","0.3016396897","","0.8","0.2","0.6","0.4","","","","","0.3016396897","0.1722293799","0.4151465815","0.1699285253","","","","","","","","","","72","H","0","img/none_selected.jpg","","205","main_expt",""
"","bandit","285","775080","0.0-247.0-0.0","70279171","wem/bandit_party_1","AKLV0WIZZ356X","either","2","882","","","","","","","0","1","0","","0.4002359997","0.8","0.2","0.6","0.4","0.3300702997","0.1625694713","0.4002359997","0.161732949","","","","","","","","","","","","","","75","K","2","","","206","main_expt",""
"","bandit","286","777199","0.0-248.0-0.0","70279171","wem/bandit_party_1","AKLV0WIZZ356X","either","2","613","","","","","","","0","0","1","0.3692387261","","0.8","0.2","0.6","0.4","","","","","0.2648848683","0.1079769143","0.3692387261","0.1699017951","","","","","","","","","","75","K","2","","","207","main_expt",""
"","bandit","287","778830","0.0-249.0-0.0","70279171","wem/bandit_party_1","AKLV0WIZZ356X","either","2","124","","","","","","","1","0","0","0.3283471685","","0.8","0.2","0.6","0.4","","","","","0.2502792914","0.1380178959","0.3283471685","0.1592107695","","","","","","","","","","75","K","2","","","208","main_expt",""
"","bandit","288","781934","0.0-250.0-0.0","70279171","wem/bandit_party_1","AKLV0WIZZ356X","either","2","1597","","","","","","","0","0","1","0.2924758898","","0.8","0.2","0.6","0.4","","","","","0.2770073026","0.1538506734","0.2924758898","0.1659907122","","","","","","","","","","75","K","2","","","209","main_expt",""
"","bandit","289","783771","0.0-251.0-0.0","70279171","wem/bandit_party_1","AKLV0WIZZ356X","either","2","331","","","","","","","0","0","1","","0.2279470939","0.8","0.2","0.6","0.4","0.3451435735","0.1406222791","0.2279470939","0.229525517","","","","","","","","","","","","","","75","K","2","","","210","main_expt",""
"","bandit","290","785609","0.0-252.0-0.0","70279171","wem/bandit_party_1","AKLV0WIZZ356X","either","2","331","","","","","","","0","0","1","0.2131844406","","0.8","0.2","0.6","0.4","","","","","0.3514478275","0.08987887408","0.2131844406","0.2434605193","","","","","","","","","","75","K","2","","","211","main_expt",""
"","bandit","291","787390","0.0-253.0-0.0","70279171","wem/bandit_party_1","AKLV0WIZZ356X","either","2","272","","","","","","","0","0","1","","0.1601793481","0.8","0.2","0.6","0.4","0.3579324364","0.1277875359","0.1601793481","0.1633214123","","","","","","","","","","","","","","75","K","2","","","212","main_expt",""
"","bandit","292","789239","0.0-254.0-0.0","70279171","wem/bandit_party_1","AKLV0WIZZ356X","either","2","341","","","","","","","0","0","1","","0.1354109392","0.8","0.2","0.6","0.4","0.3231243524","0.134271297","0.1354109392","0.1014835246","","","","","","","","","","","","","","75","K","2","","","213","main_expt",""
"","bandit","293","790933","0.0-255.0-0.0","70279171","wem/bandit_party_1","AKLV0WIZZ356X","either","2","188","","","","","","","0","0","1","","0.09587264096","0.8","0.2","0.6","0.4","0.2798540136","0.1385204111","0.1142105534","0.09587264096","","","","","","","","","","","","","","76","L","3","","","214","main_expt",""
"","bandit","294","792769","0.0-256.0-0.0","70279171","wem/bandit_party_1","AKLV0WIZZ356X","either","2","326","","","","","","","0","0","1","0.08342689115","","0.8","0.2","0.6","0.4","","","","","0.2469391402","0.1089132689","0.1031311673","0.08342689115","","","","","","","","","","76","L","3","","","215","main_expt",""
"","bandit","295","794682","0.0-257.0-0.0","70279171","wem/bandit_party_1","AKLV0WIZZ356X","either","2","407","","","","","","","0","0","1","","0.05361264496","0.8","0.2","0.6","0.4","0.3211823944","0.1299508563","0.1031732366","0.05361264496","","","","","","","","","","","","","","76","L","3","","","216","main_expt",""
"","bandit","296","796485","0.0-258.0-0.0","70279171","wem/bandit_party_1","AKLV0WIZZ356X","either","2","294","","","","","","","0","0","1","","0.09912420903","0.8","0.2","0.6","0.4","0.3545519007","0.131109262","0.1188097379","0.09912420903","","","","","","","","","","","","","","76","L","3","","","217","main_expt",""
"","bandit","297","798176","0.0-259.0-0.0","70279171","wem/bandit_party_1","AKLV0WIZZ356X","either","2","185","","","","","","","0","0","1","0.1096623481","","0.8","0.2","0.6","0.4","","","","","0.3781539282","0.1039495344","0.1096623481","0.1021137889","","","","","","","","","","75","K","2","","","218","main_expt",""
"","bandit","298","800182","0.0-260.0-0.0","70279171","wem/bandit_party_1","AKLV0WIZZ356X","either","2","499","","","","","","","0","0","1","0.08679630722","","0.8","0.2","0.6","0.4","","","","","0.3674409598","0.09488552944","0.08679630722","0.1025207236","","","","","","","","","","75","K","2","","","219","main_expt",""
"","bandit","299","801996","0.0-261.0-0.0","70279171","wem/bandit_party_1","AKLV0WIZZ356X","either","2","307","","","","","","","0","0","1","","0.1482089448","0.8","0.2","0.6","0.4","0.315237632","0.1311925698","0.1482089448","0.1049734862","","","","","","","","","","","","","","75","K","2","","","220","main_expt",""
"","bandit","300","803644","0.0-262.0-0.0","70279171","wem/bandit_party_1","AKLV0WIZZ356X","either","2","141","","","","","","","0","0","1","","0.08224132258","0.8","0.2","0.6","0.4","0.3572442142","0.08224132258","0.217172314","0.08244295151","","","","","","","","","","","","","","74","J","1","","","221","main_expt",""
"","bandit","301","805464","0.0-263.0-0.0","70279171","wem/bandit_party_1","AKLV0WIZZ356X","either","2","312","","","","","","","0","1","0","","0.06870998364","0.8","0.2","0.6","0.4","0.2796125419","0.06870998364","0.2227738938","0.09815111748","","","","","","","","","","","","","","74","J","1","","","222","main_expt",""
"","bandit","302","807251","0.0-264.0-0.0","70279171","wem/bandit_party_1","AKLV0WIZZ356X","either","2","281","","","","","","","0","0","1","","0.111762886","0.8","0.2","0.6","0.4","0.2265565182","0.111762886","0.2768694491","0.09925351505","","","","","","","","","","","","","","74","J","1","","","223","main_expt",""
"","bandit","303","809075","0.0-265.0-0.0","70279171","wem/bandit_party_1","AKLV0WIZZ356X","either","2","317","","","","","","","0","0","1","","0.09652303785","0.8","0.2","0.6","0.4","0.1727872262","0.09652303785","0.2895694018","0.07842644678","","","","","","","","","","","","","","74","J","1","","","224","main_expt",""
"","bandit","304","810795","0.0-266.0-0.0","70279171","wem/bandit_party_1","AKLV0WIZZ356X","either","2","210","","","","","","","0","0","1","0.09424892582","","0.8","0.2","0.6","0.4","","","","","0.1580797834","0.09424892582","0.3515154126","0.05284632075","","","","","","","","","","74","J","1","","","225","main_expt",""
"","bandit","305","812873","0.0-267.0-0.0","70279171","wem/bandit_party_1","AKLV0WIZZ356X","either","2","570","","","","","","","0","0","1","","0.1094697254","0.8","0.2","0.6","0.4","0.1206031336","0.1094697254","0.3960872924","0.06788221328","","","","","","","","","","","","","","74","J","1","","","226","main_expt",""
"","bandit","306","814700","0.0-268.0-0.0","70279171","wem/bandit_party_1","AKLV0WIZZ356X","either","2","318","","","","","","","0","0","1","","0.1055794081","0.8","0.2","0.6","0.4","0.1218099769","0.1055794081","0.3301105445","0.04226868229","","","","","","","","","","","","","","74","J","1","","","227","main_expt",""
"","bandit","307","816563","0.0-269.0-0.0","70279171","wem/bandit_party_1","AKLV0WIZZ356X","either","2","356","","","","","","","0","0","1","0.1210232629","","0.8","0.2","0.6","0.4","","","","","0.08458740206","0.1210232629","0.3679650562","0.06174471126","","","","","","","","","","74","J","1","","","228","main_expt",""
"","bandit","308","818651","0.0-270.0-0.0","70279171","wem/bandit_party_1","AKLV0WIZZ356X","either","2","581","","","","","","","0","0","1","","0.1249199002","0.8","0.2","0.6","0.4","0.06311990622","0.1249199002","0.3413725311","0.06122033102","","","","","","","","","","","","","","74","J","1","","","229","main_expt",""
"","bandit","309","820620","0.0-271.0-0.0","70279171","wem/bandit_party_1","AKLV0WIZZ356X","either","2","460","","","","","","","0","0","1","0.04674316758","","0.8","0.2","0.6","0.4","","","","","0.04674316758","0.1423167866","0.3652503211","0.09369367087","","","","","","","","","","72","H","0","img/none_selected.jpg","","230","main_expt",""
"","bandit","310","823438","0.0-272.0-0.0","70279171","wem/bandit_party_1","AKLV0WIZZ356X","either","2","1310","","","","","","","0","0","1","0.06697327866","","0.8","0.2","0.6","0.4","","","","","0.06697327866","0.1441411413","0.3774172636","0.1378364932","","","","","","","","","","72","H","0","img/none_selected.jpg","","231","main_expt",""
"","bandit","311","825009","0.0-273.0-0.0","70279171","wem/bandit_party_1","AKLV0WIZZ356X","either","2","63","","","","","","","0","0","1","0.08617656909","","0.8","0.2","0.6","0.4","","","","","0.08617656909","0.1132866493","0.3507397895","0.1138343256","","","","","","","","","","72","H","0","img/none_selected.jpg","","232","main_expt",""
"","bandit","312","826888","0.0-274.0-0.0","70279171","wem/bandit_party_1","AKLV0WIZZ356X","either","2","372","","","","","","","0","0","1","0.08388286328","","0.8","0.2","0.6","0.4","","","","","0.08388286328","0.07587191469","0.3228668676","0.1602674987","","","","","","","","","","72","H","0","img/none_selected.jpg","","233","main_expt",""
"","bandit","313","828631","0.0-275.0-0.0","70279171","wem/bandit_party_1","AKLV0WIZZ356X","either","2","235","","","","","","","0","0","1","","0.08330376307","0.8","0.2","0.6","0.4","0.08303297831","0.08330376307","0.3219168209","0.1399599793","","","","","","","","","","","","","","74","J","1","","","234","main_expt",""
"","bandit","314","830854","0.0-276.0-0.0","70279171","wem/bandit_party_1","AKLV0WIZZ356X","either","2","716","","","","","","","0","0","1","","0.07960395758","0.8","0.2","0.6","0.4","0.08228619446","0.07960395758","0.2907257894","0.1577883936","","","","","","","","","","","","","","74","J","1","","","235","main_expt",""
"","bandit","315","832682","0.0-277.0-0.0","70279171","wem/bandit_party_1","AKLV0WIZZ356X","either","2","320","","","","","","","0","0","1","","0.06703487678","0.8","0.2","0.6","0.4","0.07856112713","0.06703487678","0.2879125653","0.1206463377","","","","","","","","","","","","","","74","J","1","","","236","main_expt",""
