"consent","trial_type","trial_index","time_elapsed","internal_node_id","subjID","study","MID","cond","drift","rt","responses","button_pressed","key_press","like","value","connected","gems","bombs","no_reward","GemPrChosen","BombPrChosen","GainOverPainPr_0","GainOverPainPr_1","GainOverPainPr_2","GainOverPainPr_3","LosePr_0","LosePr_1","LosePr_2","LosePr_3","WinPr_0","WinPr_1","WinPr_2","WinPr_3","Q0","Q1","Q2","gender","age","ethnicity","label","expt_phase","target","respCharCode","respKey","respChoiceNum","respChoice","practice","trial_counter","trial_label","Q0_index","view_history"
"GDM/GDM_behavioral_consent_30min_online.html","consent","0","7513","0.0-0.0","72126468","wem/bandit_party_1","A2R2HMURPYBWWC","either","5","","","","","","","","","","","","","","","","","","","","","","","","","","","","","","","","","","","","","","","","","",""
"","survey-text","1","14956","0.0-1.0","72126468","wem/bandit_party_1","A2R2HMURPYBWWC","either","5","6426","{""Q0"":""A2R2HMURPYBWWC""}","","","","","","","","","","","","","","","","","","","","","","","","","","","","","","","","","","","","","","","",""
"","button-response","2","18238","0.0-2.0","72126468","wem/bandit_party_1","A2R2HMURPYBWWC","either","5","2249","","0","","","","","","","","","","","","","","","","","","","","","","","","","","","","","","","","","","","","","","",""
"","text-replacement","3","25392","0.0-3.0","72126468","wem/bandit_party_1","A2R2HMURPYBWWC","either","5","6137","","","32","","","","","","","","","","","","","","","","","","","","","","","","","","","","","","","","","","","","","",""
"","text-replacement","4","28621","0.0-4.0","72126468","wem/bandit_party_1","A2R2HMURPYBWWC","either","5","3220","","","32","","","","","","","","","","","","","","","","","","","","","","","","","","","","","","","","","","","","","",""
"","identification","5","36070","0.0-6.0-0.0","72126468","wem/bandit_party_1","A2R2HMURPYBWWC","either","5","7413","","","","5","5","5","","","","","","","","","","","","","","","","","","","","","","","","pre","identification_pre","the Republican party","","","","","","","","",""
"","identification","6","41932","0.0-6.0-1.0","72126468","wem/bandit_party_1","A2R2HMURPYBWWC","either","5","4785","","","","1","1","0","","","","","","","","","","","","","","","","","","","","","","","","pre","identification_pre","the Democratic Party","","","","","","","","",""
"","text-replacement","7","48346","0.0-7.0","72126468","wem/bandit_party_1","A2R2HMURPYBWWC","either","5","5406","","","32","","","","","","","","","","","","","","","","","","","","","","","","","","","","","","","","","","","","","",""
"","text-replacement","8","52278","0.0-8.0","72126468","wem/bandit_party_1","A2R2HMURPYBWWC","either","5","3928","","","32","","","","","","","","","","","","","","","","","","","","","","","","","","","","","","","","","","","","","",""
"","text-replacement","9","53887","0.0-9.0","72126468","wem/bandit_party_1","A2R2HMURPYBWWC","either","5","1596","","","32","","","","","","","","","","","","","","","","","","","","","","","","","","","","","","","","","","","","","",""
"","text-replacement","10","56172","0.0-10.0","72126468","wem/bandit_party_1","A2R2HMURPYBWWC","either","5","2275","","","32","","","","","","","","","","","","","","","","","","","","","","","","","","","","","","","","","","","","","",""
"","text-replacement","11","58187","0.0-11.0","72126468","wem/bandit_party_1","A2R2HMURPYBWWC","either","5","2007","","","32","","","","","","","","","","","","","","","","","","","","","","","","","","","","","","","","","","","","","",""
"","bandit","12","63391","0.0-12.0-0.0","72126468","wem/bandit_party_1","A2R2HMURPYBWWC","either","5","3657","","","","","","","0","0","1","0","0","","","","","0","","","","0","","","","","","","","","","","","","74","J","0","img/none_selected_demo.jpg","true","0","","",""
"","bandit","13","65623","0.0-13.0-0.0","72126468","wem/bandit_party_1","A2R2HMURPYBWWC","either","5","698","","","","","","","0","0","1","0","0","","","","","0","","","","0","","","","","","","","","","","","","75","K","0","img/none_selected_demo.jpg","true","0","","",""
"","text-replacement","14","68157","0.0-14.0","72126468","wem/bandit_party_1","A2R2HMURPYBWWC","either","5","2529","","","32","","","","","","","","","","","","","","","","","","","","","","","","","","","","","","","","","","","","","",""
"","text-replacement","15","70526","0.0-15.0","72126468","wem/bandit_party_1","A2R2HMURPYBWWC","either","5","2359","","","32","","","","","","","","","","","","","","","","","","","","","","","","","","","","","","","","","","","","","",""
"","text-replacement","16","72666","0.0-16.0","72126468","wem/bandit_party_1","A2R2HMURPYBWWC","either","5","2132","","","32","","","","","","","","","","","","","","","","","","","","","","","","","","","","","","","","","","","","","",""
"","text-replacement","17","75422","0.0-17.0","72126468","wem/bandit_party_1","A2R2HMURPYBWWC","either","5","2750","","","32","","","","","","","","","","","","","","","","","","","","","","","","","","","","","","","","","","","","","",""
"","bandit","18","77900","0.0-18.0-0.0","72126468","wem/bandit_party_1","A2R2HMURPYBWWC","either","5","936","","","","","","","0","1","0","","0.2","0.5","0.5","","","0.8","0.2","","","","","","","","","","","","","","","","75","K","1","","true","0","80_20_practice","",""
"","bandit","19","79993","0.0-18.0-1.0","72126468","wem/bandit_party_1","A2R2HMURPYBWWC","either","5","558","","","","","","","1","0","0","0.8","","0.5","0.5","","","","","","","0.8","0.2","","","","","","","","","","","","74","J","0","img/none_selected_demo.jpg","true","0","80_20_practice","",""
"","bandit","20","82698","0.0-18.0-2.0","72126468","wem/bandit_party_1","A2R2HMURPYBWWC","either","5","1184","","","","","","","0","1","0","","0.8","0.5","0.5","","","0.8","0.2","","","","","","","","","","","","","","","","74","J","0","img/none_selected_demo.jpg","true","0","80_20_practice","",""
"","bandit","21","85735","0.0-18.0-3.0","72126468","wem/bandit_party_1","A2R2HMURPYBWWC","either","5","1509","","","","","","","0","0","1","","0.2","0.5","0.5","","","0.8","0.2","","","","","","","","","","","","","","","","75","K","1","","true","0","80_20_practice","",""
"","bandit","22","89658","0.0-18.0-4.0","72126468","wem/bandit_party_1","A2R2HMURPYBWWC","either","5","2388","","","","","","","0","0","1","","0.2","0.5","0.5","","","0.8","0.2","","","","","","","","","","","","","","","","75","K","1","","true","0","80_20_practice","",""
"","bandit","23","92269","0.0-18.0-5.0","72126468","wem/bandit_party_1","A2R2HMURPYBWWC","either","5","1091","","","","","","","0","0","1","","0.8","0.5","0.5","","","0.8","0.2","","","","","","","","","","","","","","","","74","J","0","img/none_selected_demo.jpg","true","0","80_20_practice","",""
"","bandit","24","94324","0.0-18.0-6.0","72126468","wem/bandit_party_1","A2R2HMURPYBWWC","either","5","518","","","","","","","0","1","0","","0.2","0.5","0.5","","","0.8","0.2","","","","","","","","","","","","","","","","75","K","1","","true","0","80_20_practice","",""
"","bandit","25","96502","0.0-18.0-7.0","72126468","wem/bandit_party_1","A2R2HMURPYBWWC","either","5","648","","","","","","","1","0","0","0.8","","0.5","0.5","","","","","","","0.8","0.2","","","","","","","","","","","","74","J","0","img/none_selected_demo.jpg","true","0","80_20_practice","",""
"","bandit","26","98383","0.0-18.0-8.0","72126468","wem/bandit_party_1","A2R2HMURPYBWWC","either","5","350","","","","","","","0","1","0","","0.8","0.5","0.5","","","0.8","0.2","","","","","","","","","","","","","","","","74","J","0","img/none_selected_demo.jpg","true","0","80_20_practice","",""
"","bandit","27","100288","0.0-18.0-9.0","72126468","wem/bandit_party_1","A2R2HMURPYBWWC","either","5","369","","","","","","","1","0","0","0.8","","0.5","0.5","","","","","","","0.8","0.2","","","","","","","","","","","","74","J","0","img/none_selected_demo.jpg","true","0","80_20_practice","",""
"","bandit","28","102169","0.0-18.0-10.0","72126468","wem/bandit_party_1","A2R2HMURPYBWWC","either","5","366","","","","","","","0","0","1","0.2","","0.5","0.5","","","","","","","0.8","0.2","","","","","","","","","","","","75","K","1","","true","0","80_20_practice","",""
"","bandit","29","104088","0.0-18.0-11.0","72126468","wem/bandit_party_1","A2R2HMURPYBWWC","either","5","400","","","","","","","0","1","0","","0.8","0.5","0.5","","","0.8","0.2","","","","","","","","","","","","","","","","74","J","0","img/none_selected_demo.jpg","true","0","80_20_practice","",""
"","bandit","30","105983","0.0-18.0-12.0","72126468","wem/bandit_party_1","A2R2HMURPYBWWC","either","5","349","","","","","","","0","0","1","0.2","","0.5","0.5","","","","","","","0.8","0.2","","","","","","","","","","","","75","K","1","","true","0","80_20_practice","",""
"","bandit","31","108035","0.0-18.0-13.0","72126468","wem/bandit_party_1","A2R2HMURPYBWWC","either","5","515","","","","","","","0","0","1","0.8","","0.5","0.5","","","","","","","0.8","0.2","","","","","","","","","","","","74","J","0","img/none_selected_demo.jpg","true","0","80_20_practice","",""
"","bandit","32","109983","0.0-18.0-14.0","72126468","wem/bandit_party_1","A2R2HMURPYBWWC","either","5","418","","","","","","","0","1","0","","0.8","0.5","0.5","","","0.8","0.2","","","","","","","","","","","","","","","","74","J","0","img/none_selected_demo.jpg","true","0","80_20_practice","",""
"","bandit","33","112713","0.0-18.0-15.0","72126468","wem/bandit_party_1","A2R2HMURPYBWWC","either","5","1201","","","","","","","0","1","0","","0.8","0.5","0.5","","","0.8","0.2","","","","","","","","","","","","","","","","74","J","0","img/none_selected_demo.jpg","true","0","80_20_practice","",""
"","bandit","34","116867","0.0-18.0-16.0","72126468","wem/bandit_party_1","A2R2HMURPYBWWC","either","5","2634","","","","","","","0","1","0","","0.8","0.5","0.5","","","0.8","0.2","","","","","","","","","","","","","","","","74","J","0","img/none_selected_demo.jpg","true","0","80_20_practice","",""
"","bandit","35","120401","0.0-18.0-17.0","72126468","wem/bandit_party_1","A2R2HMURPYBWWC","either","5","2007","","","","","","","0","1","0","","0.8","0.5","0.5","","","0.8","0.2","","","","","","","","","","","","","","","","74","J","0","img/none_selected_demo.jpg","true","0","80_20_practice","",""
"","bandit","36","122705","0.0-18.0-18.0","72126468","wem/bandit_party_1","A2R2HMURPYBWWC","either","5","761","","","","","","","0","0","1","0.2","","0.5","0.5","","","","","","","0.8","0.2","","","","","","","","","","","","75","K","1","","true","0","80_20_practice","",""
"","bandit","37","126310","0.0-18.0-19.0","72126468","wem/bandit_party_1","A2R2HMURPYBWWC","either","5","2074","","","","","","","0","0","1","","0.2","0.5","0.5","","","0.8","0.2","","","","","","","","","","","","","","","","75","K","1","","true","0","80_20_practice","",""
"","text-replacement","38","129310","0.0-19.0","72126468","wem/bandit_party_1","A2R2HMURPYBWWC","either","5","2989","","","32","","","","","","","","","","","","","","","","","","","","","","","","","","","","","","","","","","","","","",""
"","bandit","39","132570","0.0-20.0-0.0","72126468","wem/bandit_party_1","A2R2HMURPYBWWC","either","5","1732","","","","","","","0","1","0","0","1","","","","","0","1","","","1","0","","","","","","","","","","","","75","K","1","","true","0","","",""
"","text-replacement","40","132936","0.0-21.0","72126468","wem/bandit_party_1","A2R2HMURPYBWWC","either","5","351","","","74","","","","","","","","","","","","","","","","","","","","","","","","","","","","","","","","","","","","","",""
"","text-replacement","41","136180","0.0-22.0","72126468","wem/bandit_party_1","A2R2HMURPYBWWC","either","5","3233","","","32","","","","","","","","","","","","","","","","","","","","","","","","","","","","","","","","","","","","","",""
"","text-replacement","42","137538","0.0-23.0","72126468","wem/bandit_party_1","A2R2HMURPYBWWC","either","5","1350","","","32","","","","","","","","","","","","","","","","","","","","","","","","","","","","","","","","","","","","","",""
"","text-replacement","43","138645","0.0-24.0","72126468","wem/bandit_party_1","A2R2HMURPYBWWC","either","5","1088","","","32","","","","","","","","","","","","","","","","","","","","","","","","","","","","","","","","","","","","","",""
"","text-replacement","44","139896","0.0-25.0","72126468","wem/bandit_party_1","A2R2HMURPYBWWC","either","5","1236","","","32","","","","","","","","","","","","","","","","","","","","","","","","","","","","","","","","","","","","","",""
"","text-replacement","45","141595","0.0-26.0","72126468","wem/bandit_party_1","A2R2HMURPYBWWC","either","5","1688","","","32","","","","","","","","","","","","","","","","","","","","","","","","","","","","","","","","","","","","","",""
"","text-replacement","46","142892","0.0-27.0","72126468","wem/bandit_party_1","A2R2HMURPYBWWC","either","5","1281","","","32","","","","","","","","","","","","","","","","","","","","","","","","","","","","","","","","","","","","","",""
"","text-replacement","47","144626","0.0-28.0","72126468","wem/bandit_party_1","A2R2HMURPYBWWC","either","5","1721","","","32","","","","","","","","","","","","","","","","","","","","","","","","","","","","","","","","","","","","","",""
"","text-replacement","48","146148","0.0-29.0","72126468","wem/bandit_party_1","A2R2HMURPYBWWC","either","5","1515","","","32","","","","","","","","","","","","","","","","","","","","","","","","","","","","","","","","","","","","","",""
"","text-replacement","49","148610","0.0-30.0","72126468","wem/bandit_party_1","A2R2HMURPYBWWC","either","5","2454","","","32","","","","","","","","","","","","","","","","","","","","","","","","","","","","","","","","","","","","","",""
"","text-replacement","50","156148","0.0-31.0","72126468","wem/bandit_party_1","A2R2HMURPYBWWC","either","5","7520","","","32","","","","","","","","","","","","","","","","","","","","","","","","","","","","","","","","","","","","","",""
"","bandit","51","162695","0.0-32.0-0.0","72126468","wem/bandit_party_1","A2R2HMURPYBWWC","either","5","5020","","","","","","","0","0","1","0.2","","0.5","0.5","0.5","0.5","","","","","0.8","0.2","0.6","0.2","","","","","","","","","","76","L","3","","true","0","full_practice","",""
"","bandit","52","164921","0.0-32.0-1.0","72126468","wem/bandit_party_1","A2R2HMURPYBWWC","either","5","689","","","","","","","1","0","0","0.6","","0.5","0.5","0.5","0.5","","","","","0.8","0.2","0.6","0.2","","","","","","","","","","75","K","2","","true","0","full_practice","",""
"","bandit","53","167199","0.0-32.0-2.0","72126468","wem/bandit_party_1","A2R2HMURPYBWWC","either","5","742","","","","","","","0","0","1","","0.6","0.5","0.5","0.5","0.5","0.8","0.2","0.6","0.2","","","","","","","","","","","","","","75","K","2","","true","0","full_practice","",""
"","bandit","54","168868","0.0-32.0-3.0","72126468","wem/bandit_party_1","A2R2HMURPYBWWC","either","5","125","","","","","","","0","1","0","","0.8","0.5","0.5","0.5","0.5","0.8","0.2","0.6","0.2","","","","","","","","","","","","","","72","H","0","img/none_selected.jpg","true","0","full_practice","",""
"","bandit","55","171057","0.0-32.0-4.0","72126468","wem/bandit_party_1","A2R2HMURPYBWWC","either","5","641","","","","","","","0","0","1","","0.2","0.5","0.5","0.5","0.5","0.8","0.2","0.6","0.2","","","","","","","","","","","","","","74","J","1","","true","0","full_practice","",""
"","bandit","56","172834","0.0-32.0-5.0","72126468","wem/bandit_party_1","A2R2HMURPYBWWC","either","5","237","","","","","","","0","0","1","","0.2","0.5","0.5","0.5","0.5","0.8","0.2","0.6","0.2","","","","","","","","","","","","","","76","L","3","","true","0","full_practice","",""
"","bandit","57","174737","0.0-32.0-6.0","72126468","wem/bandit_party_1","A2R2HMURPYBWWC","either","5","351","","","","","","","0","1","0","","0.8","0.5","0.5","0.5","0.5","0.8","0.2","0.6","0.2","","","","","","","","","","","","","","72","H","0","img/none_selected.jpg","true","0","full_practice","",""
"","bandit","58","177501","0.0-32.0-7.0","72126468","wem/bandit_party_1","A2R2HMURPYBWWC","either","5","1229","","","","","","","0","0","1","","0.2","0.5","0.5","0.5","0.5","0.8","0.2","0.6","0.2","","","","","","","","","","","","","","74","J","1","","true","0","full_practice","",""
"","bandit","59","179281","0.0-32.0-8.0","72126468","wem/bandit_party_1","A2R2HMURPYBWWC","either","5","246","","","","","","","0","0","1","","0.8","0.5","0.5","0.5","0.5","0.8","0.2","0.6","0.2","","","","","","","","","","","","","","72","H","0","img/none_selected.jpg","true","0","full_practice","",""
"","bandit","60","181023","0.0-32.0-9.0","72126468","wem/bandit_party_1","A2R2HMURPYBWWC","either","5","189","","","","","","","0","0","1","","0.2","0.5","0.5","0.5","0.5","0.8","0.2","0.6","0.2","","","","","","","","","","","","","","76","L","3","","true","0","full_practice","",""
"","bandit","61","182871","0.0-32.0-10.0","72126468","wem/bandit_party_1","A2R2HMURPYBWWC","either","5","323","","","","","","","0","0","1","0.8","","0.5","0.5","0.5","0.5","","","","","0.8","0.2","0.6","0.2","","","","","","","","","","72","H","0","img/none_selected.jpg","true","0","full_practice","",""
"","bandit","62","184567","0.0-32.0-11.0","72126468","wem/bandit_party_1","A2R2HMURPYBWWC","either","5","158","","","","","","","0","1","0","","0.6","0.5","0.5","0.5","0.5","0.8","0.2","0.6","0.2","","","","","","","","","","","","","","75","K","2","","true","0","full_practice","",""
"","bandit","63","186181","0.0-32.0-12.0","72126468","wem/bandit_party_1","A2R2HMURPYBWWC","either","5","71","","","","","","","0","0","1","","0.2","0.5","0.5","0.5","0.5","0.8","0.2","0.6","0.2","","","","","","","","","","","","","","74","J","1","","true","0","full_practice","",""
"","bandit","64","187731","0.0-32.0-13.0","72126468","wem/bandit_party_1","A2R2HMURPYBWWC","either","5","4","","","","","","","1","0","0","0.8","","0.5","0.5","0.5","0.5","","","","","0.8","0.2","0.6","0.2","","","","","","","","","","72","H","0","img/none_selected.jpg","true","0","full_practice","",""
"","bandit","65","189510","0.0-32.0-14.0","72126468","wem/bandit_party_1","A2R2HMURPYBWWC","either","5","247","","","","","","","0","0","1","","0.2","0.5","0.5","0.5","0.5","0.8","0.2","0.6","0.2","","","","","","","","","","","","","","76","L","3","","true","0","full_practice","",""
"","bandit","66","192386","0.0-32.0-15.0","72126468","wem/bandit_party_1","A2R2HMURPYBWWC","either","5","1317","","","","","","","0","0","1","0.2","","0.5","0.5","0.5","0.5","","","","","0.8","0.2","0.6","0.2","","","","","","","","","","76","L","3","","true","0","full_practice","",""
"","bandit","67","194399","0.0-32.0-16.0","72126468","wem/bandit_party_1","A2R2HMURPYBWWC","either","5","498","","","","","","","0","0","1","0.2","","0.5","0.5","0.5","0.5","","","","","0.8","0.2","0.6","0.2","","","","","","","","","","74","J","1","","true","0","full_practice","",""
"","bandit","68","198645","0.0-32.0-17.0","72126468","wem/bandit_party_1","A2R2HMURPYBWWC","either","5","2703","","","","","","","1","0","0","0.8","","0.5","0.5","0.5","0.5","","","","","0.8","0.2","0.6","0.2","","","","","","","","","","72","H","0","img/none_selected.jpg","true","0","full_practice","",""
"","bandit","69","200764","0.0-32.0-18.0","72126468","wem/bandit_party_1","A2R2HMURPYBWWC","either","5","596","","","","","","","0","1","0","","0.8","0.5","0.5","0.5","0.5","0.8","0.2","0.6","0.2","","","","","","","","","","","","","","72","H","0","img/none_selected.jpg","true","0","full_practice","",""
"","bandit","70","204173","0.0-32.0-19.0","72126468","wem/bandit_party_1","A2R2HMURPYBWWC","either","5","1863","","","","","","","1","0","0","0.6","","0.5","0.5","0.5","0.5","","","","","0.8","0.2","0.6","0.2","","","","","","","","","","75","K","2","","true","0","full_practice","",""
"","text","71","211314","0.0-33.0","72126468","wem/bandit_party_1","A2R2HMURPYBWWC","either","5","7112","","","32","","","","","","","","","","","","","","","","","","","","","","","","","","","","","","","","","","","","","",""
"","text-replacement","72","216939","0.0-34.0","72126468","wem/bandit_party_1","A2R2HMURPYBWWC","either","5","4614","","","32","","","","","","","","","","","","","","","","","","","","","","","","","","","","","","","","","","","","","",""
"","text-replacement","73","219842","0.0-35.0","72126468","wem/bandit_party_1","A2R2HMURPYBWWC","either","5","2888","","","32","","","","","","","","","","","","","","","","","","","","","","","","","","","","","","","","","","","","","",""
"","text-replacement","74","222897","0.0-36.0","72126468","wem/bandit_party_1","A2R2HMURPYBWWC","either","5","3038","","","32","","","","","","","","","","","","","","","","","","","","","","","","","","","","","","","","","","","","","",""
"","text-replacement","75","224754","0.0-37.0","72126468","wem/bandit_party_1","A2R2HMURPYBWWC","either","5","1841","","","32","","","","","","","","","","","","","","","","","","","","","","","","","","","","","","","","","","","","","",""
"","text-replacement","76","227557","0.0-38.0","72126468","wem/bandit_party_1","A2R2HMURPYBWWC","either","5","2786","","","32","","","","","","","","","","","","","","","","","","","","","","","","","","","","","","","","","","","","","",""
"","survey-multi-choice-replacement","77","233367","0.0-39.0-0.0","72126468","wem/bandit_party_1","A2R2HMURPYBWWC","either","5","5771","","","","","","","","","","","","","","","","","","","","","","","","Money will be added to the pool for <span style='color:red;'>REPUBLICANS</span>","","","","","","","attn_check","","","","","","","","","0",""
"","survey-multi-choice-replacement","78","241445","0.0-40.0-0.0","72126468","wem/bandit_party_1","A2R2HMURPYBWWC","either","5","7028","","","","","","","","","","","","","","","","","","","","","","","","No money will be added to either pool","","","","","","","attn_check","","","","","","","","","3",""
"","instructions","79","244352","0.0-40.0-1.0-0.0","72126468","wem/bandit_party_1","A2R2HMURPYBWWC","either","5","1875","","","","","","","","","","","","","","","","","","","","","","","","","","","","","","","","","","","","","","","","","[{""page_index"":0,""viewing_time"":1873}]"
"","survey-multi-choice-replacement","80","250258","0.0-40.1-0.1","72126468","wem/bandit_party_1","A2R2HMURPYBWWC","either","5","4863","","","","","","","","","","","","","","","","","","","","","","","","Equal amounts of money will be added to the pool for <span style='color:red;'>REPUBLICANS</span> and subtracted from the pool for <span style='color:blue;'>DEMOCRATS</span>","","","","","","","attn_check","","","","","","","","","2",""
"","survey-multi-choice-replacement","81","256313","0.0-41.0-0.0","72126468","wem/bandit_party_1","A2R2HMURPYBWWC","either","5","5007","","","","","","","","","","","","","","","","","","","","","","","","No money will be added to either pool","","","","","","","attn_check","","","","","","","","","3",""
"","bandit","82","261137","0.0-42.0-0.0","72126468","wem/bandit_party_1","A2R2HMURPYBWWC","either","5","2278","","","","","","","0","1","0","","0.1165465043","0.6","0.2","0.8","0.4","0.4265570961","0.1165465043","0.3897275569","0.3340388524","","","","","","","","","","","","","","74","J","1","","","1","main_expt","",""
"","bandit","83","263591","0.0-43.0-0.0","72126468","wem/bandit_party_1","A2R2HMURPYBWWC","either","5","901","","","","","","","0","0","1","0.3911966266","","0.6","0.2","0.8","0.4","","","","","0.4177099958","0.08371899021","0.3911966266","0.3223834482","","","","","","","","","","75","K","2","","","2","main_expt","",""
"","bandit","84","265359","0.0-44.0-0.0","72126468","wem/bandit_party_1","A2R2HMURPYBWWC","either","5","243","","","","","","","0","0","1","0.4074861021","","0.6","0.2","0.8","0.4","","","","","0.4192185534","0.04339790364","0.4074861021","0.3585509001","","","","","","","","","","75","K","2","","","3","main_expt","",""
"","bandit","85","268635","0.0-45.0-0.0","72126468","wem/bandit_party_1","A2R2HMURPYBWWC","either","5","1742","","","","","","","0","0","1","0.4241610434","","0.6","0.2","0.8","0.4","","","","","0.4241610434","0.04073472785","0.3965638453","0.3416436242","","","","","","","","","","72","H","0","img/none_selected.jpg","","4","main_expt","",""
"","bandit","86","270974","0.0-46.0-0.0","72126468","wem/bandit_party_1","A2R2HMURPYBWWC","either","5","804","","","","","","","0","1","0","","0.04731773769","0.6","0.2","0.8","0.4","0.4284837315","0.04731773769","0.3688269119","0.3444758892","","","","","","","","","","","","","","74","J","1","","","5","main_expt","",""
"","bandit","87","273299","0.0-47.0-0.0","72126468","wem/bandit_party_1","A2R2HMURPYBWWC","either","5","784","","","","","","","1","0","0","0.3865867917","","0.6","0.2","0.8","0.4","","","","","0.4328708062","0.05617088868","0.3865867917","0.3574177426","","","","","","","","","","75","K","2","","","6","main_expt","",""
"","bandit","88","277045","0.0-48.0-0.0","72126468","wem/bandit_party_1","A2R2HMURPYBWWC","either","5","2204","","","","","","","0","0","1","0.4294719924","","0.6","0.2","0.8","0.4","","","","","0.4176545671","0.05606577856","0.4294719924","0.3634052143","","","","","","","","","","75","K","2","","","7","main_expt","",""
"","bandit","89","279660","0.0-49.0-0.0","72126468","wem/bandit_party_1","A2R2HMURPYBWWC","either","5","1086","","","","","","","0","0","1","","0.09244853328","0.6","0.2","0.8","0.4","0.4022395488","0.09244853328","0.4210378118","0.3675420607","","","","","","","","","","","","","","74","J","1","","","8","main_expt","",""
"","bandit","90","281354","0.0-50.0-0.0","72126468","wem/bandit_party_1","A2R2HMURPYBWWC","either","5","176","","","","","","","1","0","0","0.3929004949","","0.6","0.2","0.8","0.4","","","","","0.3929004949","0.1271341085","0.4502112583","0.3921196104","","","","","","","","","","72","H","0","img/none_selected.jpg","","9","main_expt","",""
"","bandit","91","283767","0.0-51.0-0.0","72126468","wem/bandit_party_1","A2R2HMURPYBWWC","either","5","880","","","","","","","1","0","0","0.4452653155","","0.6","0.2","0.8","0.4","","","","","0.3863711448","0.1370717255","0.4452653155","0.4026182126","","","","","","","","","","75","K","2","","","10","main_expt","",""
"","bandit","92","289351","0.0-52.0-0.0","72126468","wem/bandit_party_1","A2R2HMURPYBWWC","either","5","4067","","","","","","","0","1","0","","0.3543069494","0.6","0.2","0.8","0.4","0.4205849279","0.1275050207","0.4352349267","0.3543069494","","","","","","","","","","","","","","76","L","3","","","11","main_expt","",""
"","bandit","93","294215","0.0-53.0-0.0","72126468","wem/bandit_party_1","A2R2HMURPYBWWC","either","5","3335","","","","","","","0","0","1","0.4029030639","","0.6","0.2","0.8","0.4","","","","","0.4525069231","0.122317004","0.4029030639","0.3504097904","","","","","","","","","","75","K","2","","","12","main_expt","",""
"","bandit","94","296411","0.0-54.0-0.0","72126468","wem/bandit_party_1","A2R2HMURPYBWWC","either","5","652","","","","","","","0","1","0","","0.4485799753","0.6","0.2","0.8","0.4","0.4485799753","0.1251711411","0.4198147105","0.2787441393","","","","","","","","","","","","","","72","H","0","img/none_selected.jpg","","13","main_expt","",""
"","bandit","95","298366","0.0-55.0-0.0","72126468","wem/bandit_party_1","A2R2HMURPYBWWC","either","5","432","","","","","","","0","1","0","","0.3761312174","0.6","0.2","0.8","0.4","0.4504049656","0.1380641988","0.3761312174","0.2723245106","","","","","","","","","","","","","","75","K","2","","","14","main_expt","",""
"","bandit","96","300423","0.0-56.0-0.0","72126468","wem/bandit_party_1","A2R2HMURPYBWWC","either","5","543","","","","","","","1","0","0","0.2010812313","","0.6","0.2","0.8","0.4","","","","","0.4281165459","0.2010812313","0.4017507227","0.3687644442","","","","","","","","","","74","J","1","","","15","main_expt","",""
"","bandit","97","302648","0.0-57.0-0.0","72126468","wem/bandit_party_1","A2R2HMURPYBWWC","either","5","660","","","","","","","0","0","1","","0.3992289848","0.6","0.2","0.8","0.4","0.4035101098","0.1747275657","0.3859888637","0.3992289848","","","","","","","","","","","","","","76","L","3","","","16","main_expt","",""
"","bandit","98","304619","0.0-58.0-0.0","72126468","wem/bandit_party_1","A2R2HMURPYBWWC","either","5","417","","","","","","","0","0","1","0.4063691663","","0.6","0.2","0.8","0.4","","","","","0.4063691663","0.1816524112","0.3706978481","0.4067061876","","","","","","","","","","72","H","0","img/none_selected.jpg","","17","main_expt","",""
"","bandit","99","307250","0.0-59.0-0.0","72126468","wem/bandit_party_1","A2R2HMURPYBWWC","either","5","1103","","","","","","","0","1","0","","0.3969002131","0.6","0.2","0.8","0.4","0.4201618032","0.1700798448","0.3323991027","0.3969002131","","","","","","","","","","","","","","76","L","3","","","18","main_expt","",""
"","bandit","100","309226","0.0-60.0-0.0","72126468","wem/bandit_party_1","A2R2HMURPYBWWC","either","5","442","","","","","","","0","0","1","0.3301718366","","0.6","0.2","0.8","0.4","","","","","0.3868389751","0.1998500639","0.3301718366","0.3930099592","","","","","","","","","","75","K","2","","","19","main_expt","",""
"","bandit","101","311283","0.0-61.0-0.0","72126468","wem/bandit_party_1","A2R2HMURPYBWWC","either","5","490","","","","","","","0","0","1","","0.3791602553","0.6","0.2","0.8","0.4","0.3868875991","0.2418808817","0.3714618997","0.3791602553","","","","","","","","","","","","","","76","L","3","","","20","main_expt","",""
"","bandit","102","314211","0.0-62.0-0.0","72126468","wem/bandit_party_1","A2R2HMURPYBWWC","either","5","1402","","","","","","","0","0","1","","0.2293341009","0.6","0.2","0.8","0.4","0.4253770554","0.2293341009","0.3621694591","0.4127515201","","","","","","","","","","","","","","74","J","1","","","21","main_expt","",""
"","bandit","103","317989","0.0-63.0-0.0","72126468","wem/bandit_party_1","A2R2HMURPYBWWC","either","5","2250","","","","","","","0","0","1","","0.4285762007","0.6","0.2","0.8","0.4","0.4285762007","0.2074184163","0.3648829928","0.4164833055","","","","","","","","","","","","","","72","H","0","img/none_selected.jpg","","22","main_expt","",""
"","bandit","104","320084","0.0-64.0-0.0","72126468","wem/bandit_party_1","A2R2HMURPYBWWC","either","5","549","","","","","","","0","0","1","","0.4143027846","0.6","0.2","0.8","0.4","0.4082522222","0.1832507358","0.2856994719","0.4143027846","","","","","","","","","","","","","","76","L","3","","","23","main_expt","",""
"","bandit","105","322099","0.0-65.0-0.0","72126468","wem/bandit_party_1","A2R2HMURPYBWWC","either","5","485","","","","","","","1","0","0","0.3152516524","","0.6","0.2","0.8","0.4","","","","","0.4027270218","0.1469425149","0.3152516524","0.3649270698","","","","","","","","","","75","K","2","","","24","main_expt","",""
"","bandit","106","324367","0.0-66.0-0.0","72126468","wem/bandit_party_1","A2R2HMURPYBWWC","either","5","715","","","","","","","0","0","1","0.2778145345","","0.6","0.2","0.8","0.4","","","","","0.4100212433","0.102794739","0.2778145345","0.392676409","","","","","","","","","","75","K","2","","","25","main_expt","",""
"","bandit","107","326436","0.0-67.0-0.0","72126468","wem/bandit_party_1","A2R2HMURPYBWWC","either","5","548","","","","","","","0","0","1","0.1173732637","","0.6","0.2","0.8","0.4","","","","","0.4190791169","0.1173732637","0.3170506137","0.4031565401","","","","","","","","","","74","J","1","","","26","main_expt","",""
"","bandit","108","329526","0.0-68.0-0.0","72126468","wem/bandit_party_1","A2R2HMURPYBWWC","either","5","1545","","","","","","","0","1","0","","0.4527212376","0.6","0.2","0.8","0.4","0.4527212376","0.08835016803","0.3223143746","0.4245959001","","","","","","","","","","","","","","72","H","0","img/none_selected.jpg","","27","main_expt","",""
"","bandit","109","332135","0.0-69.0-0.0","72126468","wem/bandit_party_1","A2R2HMURPYBWWC","either","5","1060","","","","","","","1","0","0","0.4232885055","","0.6","0.2","0.8","0.4","","","","","0.4480998813","0.1134440288","0.3234472479","0.4232885055","","","","","","","","","","76","L","3","","","28","main_expt","",""
"","bandit","110","334904","0.0-70.0-0.0","72126468","wem/bandit_party_1","A2R2HMURPYBWWC","either","5","1223","","","","","","","0","1","0","","0.2881425904","0.6","0.2","0.8","0.4","0.4628669208","0.1982905849","0.2881425904","0.4495512981","","","","","","","","","","","","","","75","K","2","","","29","main_expt","",""
"","bandit","111","337035","0.0-71.0-0.0","72126468","wem/bandit_party_1","A2R2HMURPYBWWC","either","5","608","","","","","","","0","1","0","","0.4485299892","0.6","0.2","0.8","0.4","0.4565655028","0.2366655967","0.2326555855","0.4485299892","","","","","","","","","","","","","","76","L","3","","","30","main_expt","",""
"","bandit","112","338917","0.0-72.0-0.0","72126468","wem/bandit_party_1","A2R2HMURPYBWWC","either","5","342","","","","","","","0","0","1","0.2364604256","","0.6","0.2","0.8","0.4","","","","","0.4686031056","0.1622470467","0.2364604256","0.4599237238","","","","","","","","","","75","K","2","","","31","main_expt","",""
"","bandit","113","340770","0.0-73.0-0.0","72126468","wem/bandit_party_1","A2R2HMURPYBWWC","either","5","324","","","","","","","0","1","0","","0.4659582456","0.6","0.2","0.8","0.4","0.4659582456","0.1771911602","0.2451982598","0.4508116693","","","","","","","","","","","","","","72","H","0","img/none_selected.jpg","","32","main_expt","",""
"","bandit","114","342713","0.0-74.0-0.0","72126468","wem/bandit_party_1","A2R2HMURPYBWWC","either","5","412","","","","","","","0","0","1","0.1622836308","","0.6","0.2","0.8","0.4","","","","","0.4810757035","0.1622836308","0.2360369815","0.45101727","","","","","","","","","","74","J","1","","","33","main_expt","",""
"","bandit","115","344607","0.0-75.0-0.0","72126468","wem/bandit_party_1","A2R2HMURPYBWWC","either","5","356","","","","","","","0","0","1","","0.1655985557","0.6","0.2","0.8","0.4","0.4842727378","0.1655985557","0.2317763892","0.4340174653","","","","","","","","","","","","","","74","J","1","","","34","main_expt","",""
"","bandit","116","346565","0.0-76.0-0.0","72126468","wem/bandit_party_1","A2R2HMURPYBWWC","either","5","418","","","","","","","0","0","1","","0.1492797185","0.6","0.2","0.8","0.4","0.4745470136","0.1492797185","0.2527891731","0.4040147441","","","","","","","","","","","","","","74","J","1","","","35","main_expt","",""
"","bandit","117","348609","0.0-77.0-0.0","72126468","wem/bandit_party_1","A2R2HMURPYBWWC","either","5","478","","","","","","","0","1","0","","0.4268829696","0.6","0.2","0.8","0.4","0.4440965139","0.1504543003","0.2641283143","0.4268829696","","","","","","","","","","","","","","76","L","3","","","36","main_expt","",""
"","bandit","118","351230","0.0-78.0-0.0","72126468","wem/bandit_party_1","A2R2HMURPYBWWC","either","5","1076","","","","","","","0","0","1","0.2309310423","","0.6","0.2","0.8","0.4","","","","","0.4544425755","0.1064249526","0.2309310423","0.4562327564","","","","","","","","","","75","K","2","","","37","main_expt","",""
"","bandit","119","353259","0.0-79.0-0.0","72126468","wem/bandit_party_1","A2R2HMURPYBWWC","either","5","499","","","","","","","1","0","0","0.2093170459","","0.6","0.2","0.8","0.4","","","","","0.4700138218","0.1346530267","0.2093170459","0.4481627861","","","","","","","","","","75","K","2","","","38","main_expt","",""
"","bandit","120","355831","0.0-80.0-0.0","72126468","wem/bandit_party_1","A2R2HMURPYBWWC","either","5","1025","","","","","","","0","1","0","","0.4475890948","0.6","0.2","0.8","0.4","0.466948448","0.1303494481","0.1398625959","0.4475890948","","","","","","","","","","","","","","76","L","3","","","39","main_expt","",""
"","bandit","121","357799","0.0-81.0-0.0","72126468","wem/bandit_party_1","A2R2HMURPYBWWC","either","5","431","","","","","","","0","1","0","","0.4679256248","0.6","0.2","0.8","0.4","0.4679256248","0.1492074344","0.09690087606","0.4501575696","","","","","","","","","","","","","","72","H","0","img/none_selected.jpg","","40","main_expt","",""
"","bandit","122","359873","0.0-82.0-0.0","72126468","wem/bandit_party_1","A2R2HMURPYBWWC","either","5","526","","","","","","","0","0","1","0.1129569356","","0.6","0.2","0.8","0.4","","","","","0.445537573","0.1370672299","0.1129569356","0.4121884666","","","","","","","","","","75","K","2","","","41","main_expt","",""
"","bandit","123","361910","0.0-83.0-0.0","72126468","wem/bandit_party_1","A2R2HMURPYBWWC","either","5","479","","","","","","","0","1","0","","0.4379939247","0.6","0.2","0.8","0.4","0.4521531226","0.08144147181","0.1227033228","0.4379939247","","","","","","","","","","","","","","76","L","3","","","42","main_expt","",""
"","bandit","124","364268","0.0-84.0-0.0","72126468","wem/bandit_party_1","A2R2HMURPYBWWC","either","5","822","","","","","","","0","0","1","","0.06793865388","0.6","0.2","0.8","0.4","0.4695072217","0.06793865388","0.08393287497","0.4271747655","","","","","","","","","","","","","","74","J","1","","","43","main_expt","",""
"","bandit","125","367260","0.0-85.0-0.0","72126468","wem/bandit_party_1","A2R2HMURPYBWWC","either","5","1469","","","","","","","0","1","0","","0.4807409838","0.6","0.2","0.8","0.4","0.4807409838","0.05295344446","0.06260074275","0.4480494518","","","","","","","","","","","","","","72","H","0","img/none_selected.jpg","","44","main_expt","",""
"","bandit","126","369589","0.0-86.0-0.0","72126468","wem/bandit_party_1","A2R2HMURPYBWWC","either","5","765","","","","","","","0","0","1","0.4269729589","","0.6","0.2","0.8","0.4","","","","","0.4507048108","0.02744239742","0.08062123592","0.4269729589","","","","","","","","","","76","L","3","","","45","main_expt","",""
"","bandit","127","371722","0.0-87.0-0.0","72126468","wem/bandit_party_1","A2R2HMURPYBWWC","either","5","562","","","","","","","0","1","0","","0.4475746277","0.6","0.2","0.8","0.4","0.4382321206","0.02347437243","0.1110847749","0.4475746277","","","","","","","","","","","","","","76","L","3","","","46","main_expt","",""
"","bandit","128","373658","0.0-88.0-0.0","72126468","wem/bandit_party_1","A2R2HMURPYBWWC","either","5","405","","","","","","","0","0","1","0.05346849493","","0.6","0.2","0.8","0.4","","","","","0.4393937913","0.02418160198","0.05346849493","0.4295618238","","","","","","","","","","75","K","2","","","47","main_expt","",""
"","bandit","129","375654","0.0-89.0-0.0","72126468","wem/bandit_party_1","A2R2HMURPYBWWC","either","5","450","","","","","","","0","0","1","","0.4431907244","0.6","0.2","0.8","0.4","0.440318131","0.01182676654","0.04499733497","0.4431907244","","","","","","","","","","","","","","76","L","3","","","48","main_expt","",""
"","bandit","130","377691","0.0-90.0-0.0","72126468","wem/bandit_party_1","A2R2HMURPYBWWC","either","5","487","","","","","","","0","1","0","","0.4362102412","0.6","0.2","0.8","0.4","0.4362102412","0.0186287842","0.07378534534","0.4187732916","","","","","","","","","","","","","","72","H","0","img/none_selected.jpg","","49","main_expt","",""
"","bandit","131","379777","0.0-91.0-0.0","72126468","wem/bandit_party_1","A2R2HMURPYBWWC","either","5","562","","","","","","","0","0","1","","0.02550629551","0.6","0.2","0.8","0.4","0.44488671","0.02550629551","0.06168845619","0.356579213","","","","","","","","","","","","","","74","J","1","","","50","main_expt","",""
"","bandit","132","382628","0.0-92.0-0.0","72126468","wem/bandit_party_1","A2R2HMURPYBWWC","either","5","1299","","","","","","","0","0","1","0.1062028567","","0.6","0.2","0.8","0.4","","","","","0.4633405548","0.04366809707","0.1062028567","0.2629404955","","","","","","","","","","75","K","2","","","51","main_expt","",""
"","bandit","133","385103","0.0-93.0-0.0","72126468","wem/bandit_party_1","A2R2HMURPYBWWC","either","5","905","","","","","","","0","0","1","0.2919747068","","0.6","0.2","0.8","0.4","","","","","0.4528043762","0.04357168116","0.1379608546","0.2919747068","","","","","","","","","","76","L","3","","","52","main_expt","",""
"","bandit","134","387600","0.0-94.0-0.0","72126468","wem/bandit_party_1","A2R2HMURPYBWWC","either","5","957","","","","","","","0","0","1","0.1356826849","","0.6","0.2","0.8","0.4","","","","","0.4390431751","0.03899227154","0.1356826849","0.3809901122","","","","","","","","","","75","K","2","","","53","main_expt","",""
"","bandit","135","389680","0.0-95.0-0.0","72126468","wem/bandit_party_1","A2R2HMURPYBWWC","either","5","528","","","","","","","0","1","0","","0.3452518694","0.6","0.2","0.8","0.4","0.4549270822","0.04009146386","0.1038772241","0.3452518694","","","","","","","","","","","","","","76","L","3","","","54","main_expt","",""
"","bandit","136","391749","0.0-96.0-0.0","72126468","wem/bandit_party_1","A2R2HMURPYBWWC","either","5","531","","","","","","","0","1","0","","0.4710341864","0.6","0.2","0.8","0.4","0.4710341864","0.0155768565","0.1689791829","0.3263112327","","","","","","","","","","","","","","72","H","0","img/none_selected.jpg","","55","main_expt","",""
"","bandit","137","393853","0.0-97.0-0.0","72126468","wem/bandit_party_1","A2R2HMURPYBWWC","either","5","548","","","","","","","0","0","1","","0.02112461672","0.6","0.2","0.8","0.4","0.4745834276","0.02112461672","0.1108888145","0.3308963945","","","","","","","","","","","","","","74","J","1","","","56","main_expt","",""
"","bandit","138","396062","0.0-98.0-0.0","72126468","wem/bandit_party_1","A2R2HMURPYBWWC","either","5","650","","","","","","","0","0","1","","0.489318572","0.6","0.2","0.8","0.4","0.489318572","0.0126553198","0.1206542402","0.3150326571","","","","","","","","","","","","","","72","H","0","img/none_selected.jpg","","57","main_expt","",""
"","bandit","139","398028","0.0-99.0-0.0","72126468","wem/bandit_party_1","A2R2HMURPYBWWC","either","5","417","","","","","","","0","0","1","0.09707343937","","0.6","0.2","0.8","0.4","","","","","0.480037986","0.01131359515","0.09707343937","0.3049116772","","","","","","","","","","75","K","2","","","58","main_expt","",""
"","bandit","140","400154","0.0-100.0-0.0","72126468","wem/bandit_party_1","A2R2HMURPYBWWC","either","5","587","","","","","","","0","0","1","0.3050987947","","0.6","0.2","0.8","0.4","","","","","0.4593461039","0.01030075821","0.1044384952","0.3050987947","","","","","","","","","","76","L","3","","","59","main_expt","",""
"","bandit","141","402089","0.0-101.0-0.0","72126468","wem/bandit_party_1","A2R2HMURPYBWWC","either","5","393","","","","","","","1","0","0","0.3274009355","","0.6","0.2","0.8","0.4","","","","","0.446051488","0.005868957973","0.08890369623","0.3274009355","","","","","","","","","","76","L","3","","","60","main_expt","",""
"","bandit","142","404423","0.0-102.0-0.0","72126468","wem/bandit_party_1","A2R2HMURPYBWWC","either","5","798","","","","","","","0","0","1","0.3428943983","","0.6","0.2","0.8","0.4","","","","","0.4391285327","0.004361943215","0.08921221942","0.3428943983","","","","","","","","","","76","L","3","","","61","main_expt","",""
"","bandit","143","406519","0.0-103.0-0.0","72126468","wem/bandit_party_1","A2R2HMURPYBWWC","either","5","557","","","","","","","0","0","1","0.09812025034","","0.6","0.2","0.8","0.4","","","","","0.4063883723","0.005208412743","0.09812025034","0.3549763931","","","","","","","","","","75","K","2","","","62","main_expt","",""
"","bandit","144","408436","0.0-104.0-0.0","72126468","wem/bandit_party_1","A2R2HMURPYBWWC","either","5","377","","","","","","","0","0","1","0.4330387396","","0.6","0.2","0.8","0.4","","","","","0.4330387396","0.006461011255","0.09006279409","0.3496678451","","","","","","","","","","72","H","0","img/none_selected.jpg","","63","main_expt","",""
"","bandit","145","410904","0.0-105.0-0.0","72126468","wem/bandit_party_1","A2R2HMURPYBWWC","either","5","946","","","","","","","0","0","1","0.01267926231","","0.6","0.2","0.8","0.4","","","","","0.4207902426","0.01267926231","0.1118976224","0.3188537263","","","","","","","","","","74","J","1","","","64","main_expt","",""
"","bandit","146","412918","0.0-106.0-0.0","72126468","wem/bandit_party_1","A2R2HMURPYBWWC","either","5","492","","","","","","","0","1","0","","0.1053817613","0.6","0.2","0.8","0.4","0.3719582347","0.009732787917","0.1053817613","0.3191795336","","","","","","","","","","","","","","75","K","2","","","65","main_expt","",""
"","bandit","147","415725","0.0-107.0-0.0","72126468","wem/bandit_party_1","A2R2HMURPYBWWC","either","5","1276","","","","","","","1","0","0","0.3748569955","","0.6","0.2","0.8","0.4","","","","","0.3748569955","0.01092542651","0.1307356695","0.268616347","","","","","","","","","","72","H","0","img/none_selected.jpg","","66","main_expt","",""
"","bandit","148","418266","0.0-108.0-0.0","72126468","wem/bandit_party_1","A2R2HMURPYBWWC","either","5","1009","","","","","","","1","0","0","0.335252031","","0.6","0.2","0.8","0.4","","","","","0.335252031","0.02125534741","0.1418436428","0.259194563","","","","","","","","","","72","H","0","img/none_selected.jpg","","67","main_expt","",""
"","bandit","149","420575","0.0-109.0-0.0","72126468","wem/bandit_party_1","A2R2HMURPYBWWC","either","5","751","","","","","","","0","0","1","","0.3199157278","0.6","0.2","0.8","0.4","0.3199157278","0.02360283027","0.1459089566","0.2281204868","","","","","","","","","","","","","","72","H","0","img/none_selected.jpg","","68","main_expt","",""
"","bandit","150","422578","0.0-110.0-0.0","72126468","wem/bandit_party_1","A2R2HMURPYBWWC","either","5","443","","","","","","","0","0","1","0.1809721424","","0.6","0.2","0.8","0.4","","","","","0.3068525281","0.02539305756","0.1809721424","0.2195844169","","","","","","","","","","75","K","2","","","69","main_expt","",""
"","bandit","151","425121","0.0-111.0-0.0","72126468","wem/bandit_party_1","A2R2HMURPYBWWC","either","5","989","","","","","","","0","0","1","0.1883338509","","0.6","0.2","0.8","0.4","","","","","0.3181076016","0.05014388586","0.1784068974","0.1883338509","","","","","","","","","","76","L","3","","","70","main_expt","",""
"","bandit","152","427279","0.0-112.0-0.0","72126468","wem/bandit_party_1","A2R2HMURPYBWWC","either","5","632","","","","","","","0","0","1","0.1639708178","","0.6","0.2","0.8","0.4","","","","","0.2926426422","0.04209054697","0.1973023396","0.1639708178","","","","","","","","","","76","L","3","","","71","main_expt","",""
"","bandit","153","429439","0.0-113.0-0.0","72126468","wem/bandit_party_1","A2R2HMURPYBWWC","either","5","603","","","","","","","0","0","1","","0.2380263643","0.6","0.2","0.8","0.4","0.2380263643","0.05611199342","0.2436342847","0.1312842785","","","","","","","","","","","","","","72","H","0","img/none_selected.jpg","","72","main_expt","",""
"","bandit","154","431411","0.0-114.0-0.0","72126468","wem/bandit_party_1","A2R2HMURPYBWWC","either","5","439","","","","","","","0","0","1","","0.05293238473","0.6","0.2","0.8","0.4","0.2407197948","0.05293238473","0.1992173182","0.1805041857","","","","","","","","","","","","","","74","J","1","","","73","main_expt","",""
"","bandit","155","434010","0.0-115.0-0.0","72126468","wem/bandit_party_1","A2R2HMURPYBWWC","either","5","1057","","","","","","","1","0","0","0.1739557812","","0.6","0.2","0.8","0.4","","","","","0.2317468449","0.0318456884","0.2347098304","0.1739557812","","","","","","","","","","76","L","3","","","74","main_expt","",""
"","bandit","156","436145","0.0-116.0-0.0","72126468","wem/bandit_party_1","A2R2HMURPYBWWC","either","5","566","","","","","","","0","0","1","0.2641442137","","0.6","0.2","0.8","0.4","","","","","0.2545997551","0.03873230677","0.2641442137","0.2434916027","","","","","","","","","","75","K","2","","","75","main_expt","",""
"","bandit","157","438150","0.0-117.0-0.0","72126468","wem/bandit_party_1","A2R2HMURPYBWWC","either","5","456","","","","","","","0","0","1","0.2890845388","","0.6","0.2","0.8","0.4","","","","","0.2890845388","0.03304947682","0.3192644053","0.2438468568","","","","","","","","","","72","H","0","img/none_selected.jpg","","76","main_expt","",""
"","bandit","158","440226","0.0-118.0-0.0","72126468","wem/bandit_party_1","A2R2HMURPYBWWC","either","5","524","","","","","","","0","0","1","","0.02607887458","0.6","0.2","0.8","0.4","0.2386362654","0.02607887458","0.3351132613","0.2425324642","","","","","","","","","","","","","","74","J","1","","","77","main_expt","",""
"","bandit","159","443357","0.0-119.0-0.0","72126468","wem/bandit_party_1","A2R2HMURPYBWWC","either","5","1589","","","","","","","0","0","1","0.02492981692","","0.6","0.2","0.8","0.4","","","","","0.2673679704","0.02492981692","0.3086784207","0.205588479","","","","","","","","","","74","J","1","","","78","main_expt","",""
"","bandit","160","445398","0.0-120.0-0.0","72126468","wem/bandit_party_1","A2R2HMURPYBWWC","either","5","488","","","","","","","0","0","1","0.3076482073","","0.6","0.2","0.8","0.4","","","","","0.2813811921","0.01824110002","0.3076482073","0.213062191","","","","","","","","","","75","K","2","","","79","main_expt","",""
"","bandit","161","447102","0.0-121.0-0.0","72126468","wem/bandit_party_1","A2R2HMURPYBWWC","either","5","185","","","","","","","0","0","1","","0.1852926048","0.6","0.2","0.8","0.4","0.2419447949","0.0202176162","0.3605025214","0.1852926048","","","","","","","","","","","","","","76","L","3","","","80","main_expt","",""
"","bandit","162","448933","0.0-122.0-0.0","72126468","wem/bandit_party_1","A2R2HMURPYBWWC","either","5","296","","","","","","","0","0","1","0.323481111","","0.6","0.2","0.8","0.4","","","","","0.323481111","0.0252752587","0.3286166321","0.2332942271","","","","","","","","","","72","H","0","img/none_selected.jpg","","81","main_expt","",""
"","bandit","163","450907","0.0-123.0-0.0","72126468","wem/bandit_party_1","A2R2HMURPYBWWC","either","5","445","","","","","","","0","0","1","","0.3097244961","0.6","0.2","0.8","0.4","0.3097244961","0.05668457717","0.3459677762","0.2087797338","","","","","","","","","","","","","","72","H","0","img/none_selected.jpg","","82","main_expt","",""
"","bandit","164","452926","0.0-124.0-0.0","72126468","wem/bandit_party_1","A2R2HMURPYBWWC","either","5","467","","","","","","","0","0","1","0.3092751195","","0.6","0.2","0.8","0.4","","","","","0.2787498647","0.07760530004","0.3092751195","0.2049979043","","","","","","","","","","75","K","2","","","83","main_expt","",""
"","bandit","165","454943","0.0-125.0-0.0","72126468","wem/bandit_party_1","A2R2HMURPYBWWC","either","5","472","","","","","","","0","0","1","","0.2151780091","0.6","0.2","0.8","0.4","0.2589524449","0.03696005566","0.3044630387","0.2151780091","","","","","","","","","","","","","","76","L","3","","","84","main_expt","",""
"","bandit","166","457355","0.0-126.0-0.0","72126468","wem/bandit_party_1","A2R2HMURPYBWWC","either","5","888","","","","","","","0","0","1","0.2812480587","","0.6","0.2","0.8","0.4","","","","","0.2769318636","0.04177257934","0.2812480587","0.1497615914","","","","","","","","","","75","K","2","","","85","main_expt","",""
"","bandit","167","459248","0.0-127.0-0.0","72126468","wem/bandit_party_1","A2R2HMURPYBWWC","either","5","357","","","","","","","0","0","1","","0.1223687677","0.6","0.2","0.8","0.4","0.2849222391","0.0385770192","0.2506532223","0.1223687677","","","","","","","","","","","","","","76","L","3","","","86","main_expt","",""
"","bandit","168","461276","0.0-128.0-0.0","72126468","wem/bandit_party_1","A2R2HMURPYBWWC","either","5","492","","","","","","","0","0","1","0.3131087309","","0.6","0.2","0.8","0.4","","","","","0.3131087309","0.03720252147","0.2269900387","0.1472857413","","","","","","","","","","72","H","0","img/none_selected.jpg","","87","main_expt","",""
"","bandit","169","463262","0.0-129.0-0.0","72126468","wem/bandit_party_1","A2R2HMURPYBWWC","either","5","457","","","","","","","0","1","0","","0.3038587512","0.6","0.2","0.8","0.4","0.3038587512","0.06746059371","0.1504729919","0.1252586248","","","","","","","","","","","","","","72","H","0","img/none_selected.jpg","","88","main_expt","",""
"","bandit","170","465448","0.0-130.0-0.0","72126468","wem/bandit_party_1","A2R2HMURPYBWWC","either","5","643","","","","","","","0","0","1","0.1382070302","","0.6","0.2","0.8","0.4","","","","","0.3308022157","0.04069757945","0.1382070302","0.1194927994","","","","","","","","","","75","K","2","","","89","main_expt","",""
"","bandit","171","467752","0.0-131.0-0.0","72126468","wem/bandit_party_1","A2R2HMURPYBWWC","either","5","766","","","","","","","0","0","1","","0.1589750007","0.6","0.2","0.8","0.4","0.3574922351","0.07325379503","0.1364765349","0.1589750007","","","","","","","","","","","","","","76","L","3","","","90","main_expt","",""
"","bandit","172","469667","0.0-132.0-0.0","72126468","wem/bandit_party_1","A2R2HMURPYBWWC","either","5","368","","","","","","","0","0","1","","0.1859960426","0.6","0.2","0.8","0.4","0.3729517688","0.06877471811","0.09318196272","0.1859960426","","","","","","","","","","","","","","76","L","3","","","91","main_expt","",""
"","bandit","173","471601","0.0-133.0-0.0","72126468","wem/bandit_party_1","A2R2HMURPYBWWC","either","5","412","","","","","","","1","0","0","0.06946097624","","0.6","0.2","0.8","0.4","","","","","0.398352994","0.04115987362","0.06946097624","0.192419488","","","","","","","","","","75","K","2","","","92","main_expt","",""
"","bandit","174","473580","0.0-134.0-0.0","72126468","wem/bandit_party_1","A2R2HMURPYBWWC","either","5","440","","","","","","","0","0","1","0.08102832817","","0.6","0.2","0.8","0.4","","","","","0.4135860398","0.07078892783","0.08102832817","0.1716033463","","","","","","","","","","75","K","2","","","93","main_expt","",""
"","bandit","175","475455","0.0-135.0-0.0","72126468","wem/bandit_party_1","A2R2HMURPYBWWC","either","5","327","","","","","","","0","0","1","0.05572868433","","0.6","0.2","0.8","0.4","","","","","0.3786880174","0.05572868433","0.1271360848","0.1935897604","","","","","","","","","","74","J","1","","","94","main_expt","",""
"","bandit","176","477348","0.0-136.0-0.0","72126468","wem/bandit_party_1","A2R2HMURPYBWWC","either","5","347","","","","","","","0","0","1","","0.05056929995","0.6","0.2","0.8","0.4","0.3823424718","0.05056929995","0.1097592989","0.2193228015","","","","","","","","","","","","","","74","J","1","","","95","main_expt","",""
"","bandit","177","479503","0.0-137.0-0.0","72126468","wem/bandit_party_1","A2R2HMURPYBWWC","either","5","604","","","","","","","0","0","1","0.3642725552","","0.6","0.2","0.8","0.4","","","","","0.3642725552","0.04159874267","0.1085490834","0.3262643469","","","","","","","","","","72","H","0","img/none_selected.jpg","","96","main_expt","",""
"","bandit","178","481576","0.0-138.0-0.0","72126468","wem/bandit_party_1","A2R2HMURPYBWWC","either","5","525","","","","","","","0","0","1","","0.1049812554","0.6","0.2","0.8","0.4","0.3197717944","0.03654451862","0.1049812554","0.3207405496","","","","","","","","","","","","","","75","K","2","","","97","main_expt","",""
"","bandit","179","483833","0.0-139.0-0.0","72126468","wem/bandit_party_1","A2R2HMURPYBWWC","either","5","728","","","","","","","0","0","1","","0.3712856991","0.6","0.2","0.8","0.4","0.2514424369","0.04190300095","0.08177978443","0.3712856991","","","","","","","","","","","","","","76","L","3","","","98","main_expt","",""
"","bandit","180","486341","0.0-140.0-0.0","72126468","wem/bandit_party_1","A2R2HMURPYBWWC","either","5","977","","","","","","","1","0","0","0.2926772137","","0.6","0.2","0.8","0.4","","","","","0.2926772137","0.08742990617","0.07574087804","0.3740145378","","","","","","","","","","72","H","0","img/none_selected.jpg","","99","main_expt","",""
"","bandit","181","489732","0.0-141.0-0.0","72126468","wem/bandit_party_1","A2R2HMURPYBWWC","either","5","1842","","","","","","","0","0","1","","0.07829319678","0.6","0.2","0.8","0.4","0.234485335","0.08966523481","0.07829319678","0.3776295542","","","","","","","","","","","","","","75","K","2","","","100","main_expt","",""
"","bandit","182","493315","0.0-142.0-0.0","72126468","wem/bandit_party_1","A2R2HMURPYBWWC","either","5","2030","","","","","","","0","0","1","0.07919243683","","0.6","0.2","0.8","0.4","","","","","0.250352175","0.07849065771","0.07919243683","0.3592666398","","","","","","","","","","75","K","2","","","101","main_expt","",""
"","bandit","183","495413","0.0-143.0-0.0","72126468","wem/bandit_party_1","A2R2HMURPYBWWC","either","5","545","","","","","","","0","0","1","","0.3412191773","0.6","0.2","0.8","0.4","0.2139972863","0.1054267613","0.1052753188","0.3412191773","","","","","","","","","","","","","","76","L","3","","","102","main_expt","",""
"","bandit","184","497350","0.0-144.0-0.0","72126468","wem/bandit_party_1","A2R2HMURPYBWWC","either","5","360","","","","","","","0","0","1","","0.1120981937","0.6","0.2","0.8","0.4","0.20092706","0.1120981937","0.1248526142","0.3133100433","","","","","","","","","","","","","","74","J","1","","","103","main_expt","",""
"","bandit","185","499767","0.0-145.0-0.0","72126468","wem/bandit_party_1","A2R2HMURPYBWWC","either","5","870","","","","","","","0","1","0","","0.1034740879","0.6","0.2","0.8","0.4","0.2305366804","0.1034740879","0.142969925","0.3219148419","","","","","","","","","","","","","","74","J","1","","","104","main_expt","",""
"","bandit","186","501743","0.0-146.0-0.0","72126468","wem/bandit_party_1","A2R2HMURPYBWWC","either","5","394","","","","","","","0","0","1","0.13947254","","0.6","0.2","0.8","0.4","","","","","0.2102135581","0.07597240327","0.13947254","0.3300892518","","","","","","","","","","75","K","2","","","105","main_expt","",""
"","bandit","187","503737","0.0-147.0-0.0","72126468","wem/bandit_party_1","A2R2HMURPYBWWC","either","5","437","","","","","","","0","0","1","","0.2219457329","0.6","0.2","0.8","0.4","0.2219457329","0.1124257427","0.1329526997","0.3401839058","","","","","","","","","","","","","","72","H","0","img/none_selected.jpg","","106","main_expt","",""
"","bandit","188","507071","0.0-148.0-0.0","72126468","wem/bandit_party_1","A2R2HMURPYBWWC","either","5","1801","","","","","","","0","0","1","0.1727290233","","0.6","0.2","0.8","0.4","","","","","0.3048423019","0.1133168519","0.1727290233","0.3784706915","","","","","","","","","","75","K","2","","","107","main_expt","",""
"","bandit","189","510401","0.0-149.0-0.0","72126468","wem/bandit_party_1","A2R2HMURPYBWWC","either","5","1776","","","","","","","0","1","0","","0.1864487031","0.6","0.2","0.8","0.4","0.258150515","0.1752395656","0.1864487031","0.3945753887","","","","","","","","","","","","","","75","K","2","","","108","main_expt","",""
"","bandit","190","512378","0.0-150.0-0.0","72126468","wem/bandit_party_1","A2R2HMURPYBWWC","either","5","424","","","","","","","0","1","0","","0.356827327","0.6","0.2","0.8","0.4","0.1859129148","0.1862973424","0.2463216238","0.356827327","","","","","","","","","","","","","","76","L","3","","","109","main_expt","",""
"","bandit","191","515062","0.0-151.0-0.0","72126468","wem/bandit_party_1","A2R2HMURPYBWWC","either","5","1162","","","","","","","0","1","0","","0.2344179837","0.6","0.2","0.8","0.4","0.1371624404","0.2015845776","0.2431522628","0.2344179837","","","","","","","","","","","","","","76","L","3","","","110","main_expt","",""
"","bandit","192","516964","0.0-152.0-0.0","72126468","wem/bandit_party_1","A2R2HMURPYBWWC","either","5","355","","","","","","","1","0","0","0.1757476643","","0.6","0.2","0.8","0.4","","","","","0.1258232978","0.2003651753","0.1757476643","0.2644823096","","","","","","","","","","75","K","2","","","111","main_expt","",""
"","bandit","193","519098","0.0-153.0-0.0","72126468","wem/bandit_party_1","A2R2HMURPYBWWC","either","5","606","","","","","","","0","0","1","","0.1529967373","0.6","0.2","0.8","0.4","0.1529967373","0.21392293","0.2451518953","0.28311182","","","","","","","","","","","","","","72","H","0","img/none_selected.jpg","","112","main_expt","",""
"","bandit","194","520987","0.0-154.0-0.0","72126468","wem/bandit_party_1","A2R2HMURPYBWWC","either","5","338","","","","","","","0","0","1","","0.1606798039","0.6","0.2","0.8","0.4","0.148248117","0.1606798039","0.2407836715","0.2413269532","","","","","","","","","","","","","","74","J","1","","","113","main_expt","",""
"","bandit","195","523850","0.0-155.0-0.0","72126468","wem/bandit_party_1","A2R2HMURPYBWWC","either","5","1316","","","","","","","0","0","1","0.3099317417","","0.6","0.2","0.8","0.4","","","","","0.1562208239","0.2095980235","0.3099317417","0.3100969134","","","","","","","","","","75","K","2","","","114","main_expt","",""
"","bandit","196","526583","0.0-156.0-0.0","72126468","wem/bandit_party_1","A2R2HMURPYBWWC","either","5","1168","","","","","","","0","0","1","0.3180754701","","0.6","0.2","0.8","0.4","","","","","0.2138032898","0.2550279667","0.3180754701","0.329842252","","","","","","","","","","75","K","2","","","115","main_expt","",""
"","bandit","197","528470","0.0-157.0-0.0","72126468","wem/bandit_party_1","A2R2HMURPYBWWC","either","5","334","","","","","","","1","0","0","0.3223706096","","0.6","0.2","0.8","0.4","","","","","0.2331260325","0.2471764387","0.2919742107","0.3223706096","","","","","","","","","","76","L","3","","","116","main_expt","",""
"","bandit","198","530752","0.0-158.0-0.0","72126468","wem/bandit_party_1","A2R2HMURPYBWWC","either","5","720","","","","","","","0","0","1","","0.1826309729","0.6","0.2","0.8","0.4","0.1826309729","0.2730878341","0.2799774295","0.3098408215","","","","","","","","","","","","","","72","H","0","img/none_selected.jpg","","117","main_expt","",""
"","bandit","199","535652","0.0-159.0-0.0","72126468","wem/bandit_party_1","A2R2HMURPYBWWC","either","5","3358","","","","","","","1","0","0","0.2646714695","","0.6","0.2","0.8","0.4","","","","","0.1511269107","0.2071462199","0.2646714695","0.2974554567","","","","","","","","","","75","K","2","","","118","main_expt","",""
"","bandit","200","537942","0.0-160.0-0.0","72126468","wem/bandit_party_1","A2R2HMURPYBWWC","either","5","745","","","","","","","0","0","1","","0.3598468986","0.6","0.2","0.8","0.4","0.1559979654","0.2275232499","0.3179839519","0.3598468986","","","","","","","","","","","","","","76","L","3","","","119","main_expt","",""
"","bandit","201","540609","0.0-161.0-0.0","72126468","wem/bandit_party_1","A2R2HMURPYBWWC","either","5","1118","","","","","","","0","0","1","0.3302262658","","0.6","0.2","0.8","0.4","","","","","0.1463004055","0.2767559596","0.3302262658","0.2984373086","","","","","","","","","","75","K","2","","","120","main_expt","",""
"","bandit","202","543677","0.0-162.0-0.0","72126468","wem/bandit_party_1","A2R2HMURPYBWWC","either","5","1544","","","","","","","0","0","1","0.1418195479","","0.6","0.2","0.8","0.4","","","","","0.1418195479","0.3448590315","0.3500549905","0.2973090059","","","","","","","","","","72","H","0","img/none_selected.jpg","","121","main_expt","",""
"","bandit","203","545868","0.0-163.0-0.0","72126468","wem/bandit_party_1","A2R2HMURPYBWWC","either","5","646","","","","","","","1","0","0","0.2686616284","","0.6","0.2","0.8","0.4","","","","","0.1270782113","0.3593301016","0.2686616284","0.3382791822","","","","","","","","","","75","K","2","","","122","main_expt","",""
"","bandit","204","550018","0.0-164.0-0.0","72126468","wem/bandit_party_1","A2R2HMURPYBWWC","either","5","2585","","","","","","","0","0","1","0.3154347028","","0.6","0.2","0.8","0.4","","","","","0.1207154071","0.3680529171","0.2277230314","0.3154347028","","","","","","","","","","76","L","3","","","123","main_expt","",""
"","bandit","205","552246","0.0-165.0-0.0","72126468","wem/bandit_party_1","A2R2HMURPYBWWC","either","5","667","","","","","","","0","0","1","0.1229329119","","0.6","0.2","0.8","0.4","","","","","0.1229329119","0.3476523483","0.3287090939","0.2966737815","","","","","","","","","","72","H","0","img/none_selected.jpg","","124","main_expt","",""
"","bandit","206","554183","0.0-166.0-0.0","72126468","wem/bandit_party_1","A2R2HMURPYBWWC","either","5","392","","","","","","","0","0","1","0.3564603465","","0.6","0.2","0.8","0.4","","","","","0.09241122996","0.3564603465","0.3687339586","0.3094831126","","","","","","","","","","74","J","1","","","125","main_expt","",""
"","bandit","207","557152","0.0-167.0-0.0","72126468","wem/bandit_party_1","A2R2HMURPYBWWC","either","5","1408","","","","","","","0","0","1","0.3836195774","","0.6","0.2","0.8","0.4","","","","","0.08418962236","0.3550684458","0.3836195774","0.2488993205","","","","","","","","","","75","K","2","","","126","main_expt","",""
"","bandit","208","559420","0.0-168.0-0.0","72126468","wem/bandit_party_1","A2R2HMURPYBWWC","either","5","720","","","","","","","0","0","1","0.1953487027","","0.6","0.2","0.8","0.4","","","","","0.154715772","0.3235559827","0.3617365958","0.1953487027","","","","","","","","","","76","L","3","","","127","main_expt","",""
"","bandit","209","561995","0.0-169.0-0.0","72126468","wem/bandit_party_1","A2R2HMURPYBWWC","either","5","1013","","","","","","","1","0","0","0.3235283493","","0.6","0.2","0.8","0.4","","","","","0.1556709078","0.312087491","0.3235283493","0.2171889907","","","","","","","","","","75","K","2","","","128","main_expt","",""
"","bandit","210","563967","0.0-170.0-0.0","72126468","wem/bandit_party_1","A2R2HMURPYBWWC","either","5","429","","","","","","","0","0","1","0.2467699801","","0.6","0.2","0.8","0.4","","","","","0.1214200615","0.2843272188","0.3453830546","0.2467699801","","","","","","","","","","76","L","3","","","129","main_expt","",""
"","bandit","211","565995","0.0-171.0-0.0","72126468","wem/bandit_party_1","A2R2HMURPYBWWC","either","5","465","","","","","","","0","0","1","0.1377283829","","0.6","0.2","0.8","0.4","","","","","0.1377283829","0.2128416856","0.3242747857","0.2814443482","","","","","","","","","","72","H","0","img/none_selected.jpg","","130","main_expt","",""
"","bandit","212","569134","0.0-172.0-0.0","72126468","wem/bandit_party_1","A2R2HMURPYBWWC","either","5","1588","","","","","","","0","0","1","","0.3417201858","0.6","0.2","0.8","0.4","0.1397421628","0.2403879813","0.3417201858","0.2834176508","","","","","","","","","","","","","","75","K","2","","","131","main_expt","",""
"","bandit","213","571630","0.0-173.0-0.0","72126468","wem/bandit_party_1","A2R2HMURPYBWWC","either","5","941","","","","","","","0","0","1","","0.2811421594","0.6","0.2","0.8","0.4","0.1061875113","0.2811421594","0.3498614837","0.2429908031","","","","","","","","","","","","","","74","J","1","","","132","main_expt","",""
"","bandit","214","574389","0.0-174.0-0.0","72126468","wem/bandit_party_1","A2R2HMURPYBWWC","either","5","1229","","","","","","","0","1","0","","0.07774811701","0.6","0.2","0.8","0.4","0.07774811701","0.3002858371","0.3134828643","0.3053559495","","","","","","","","","","","","","","72","H","0","img/none_selected.jpg","","133","main_expt","",""
"","bandit","215","576896","0.0-175.0-0.0","72126468","wem/bandit_party_1","A2R2HMURPYBWWC","either","5","948","","","","","","","1","0","0","0.3554593188","","0.6","0.2","0.8","0.4","","","","","0.08211281178","0.277406375","0.3554593188","0.2693478067","","","","","","","","","","75","K","2","","","134","main_expt","",""
"","bandit","216","582268","0.0-176.0-0.0","72126468","wem/bandit_party_1","A2R2HMURPYBWWC","either","5","3809","","","","","","","1","0","0","0.3150900126","","0.6","0.2","0.8","0.4","","","","","0.1123817552","0.2897147582","0.3150900126","0.3369166079","","","","","","","","","","75","K","2","","","135","main_expt","",""
"","bandit","217","584192","0.0-177.0-0.0","72126468","wem/bandit_party_1","A2R2HMURPYBWWC","either","5","368","","","","","","","0","1","0","","0.1478339482","0.6","0.2","0.8","0.4","0.1478339482","0.3590576628","0.3199395785","0.268603144","","","","","","","","","","","","","","72","H","0","img/none_selected.jpg","","136","main_expt","",""
"","bandit","218","586133","0.0-178.0-0.0","72126468","wem/bandit_party_1","A2R2HMURPYBWWC","either","5","379","","","","","","","0","0","1","0.3822427384","","0.6","0.2","0.8","0.4","","","","","0.1374936615","0.3822427384","0.33362357","0.2373427956","","","","","","","","","","74","J","1","","","137","main_expt","",""
"","bandit","219","588085","0.0-179.0-0.0","72126468","wem/bandit_party_1","A2R2HMURPYBWWC","either","5","409","","","","","","","0","0","1","0.3611324022","","0.6","0.2","0.8","0.4","","","","","0.159761955","0.3410071165","0.3611324022","0.2206869265","","","","","","","","","","75","K","2","","","138","main_expt","",""
"","bandit","220","590214","0.0-180.0-0.0","72126468","wem/bandit_party_1","A2R2HMURPYBWWC","either","5","572","","","","","","","0","0","1","","0.3504145086","0.6","0.2","0.8","0.4","0.1363721132","0.3738014659","0.3504145086","0.2177966349","","","","","","","","","","","","","","75","K","2","","","139","main_expt","",""
"","bandit","221","592533","0.0-181.0-0.0","72126468","wem/bandit_party_1","A2R2HMURPYBWWC","either","5","767","","","","","","","0","0","1","0.1031445192","","0.6","0.2","0.8","0.4","","","","","0.1031445192","0.422575493","0.309774603","0.2387685432","","","","","","","","","","72","H","0","img/none_selected.jpg","","140","main_expt","",""
"","bandit","222","594422","0.0-182.0-0.0","72126468","wem/bandit_party_1","A2R2HMURPYBWWC","either","5","336","","","","","","","0","0","1","0.09805286369","","0.6","0.2","0.8","0.4","","","","","0.09805286369","0.4439129864","0.3506531288","0.2575087366","","","","","","","","","","72","H","0","img/none_selected.jpg","","141","main_expt","",""
"","bandit","223","596381","0.0-183.0-0.0","72126468","wem/bandit_party_1","A2R2HMURPYBWWC","either","5","400","","","","","","","1","0","0","0.2392038972","","0.6","0.2","0.8","0.4","","","","","0.1149002948","0.4323802182","0.2965027242","0.2392038972","","","","","","","","","","76","L","3","","","142","main_expt","",""
"","bandit","224","598913","0.0-184.0-0.0","72126468","wem/bandit_party_1","A2R2HMURPYBWWC","either","5","977","","","","","","","0","0","1","","0.2216470548","0.6","0.2","0.8","0.4","0.1209542099","0.4358412593","0.2087517366","0.2216470548","","","","","","","","","","","","","","76","L","3","","","143","main_expt","",""
"","bandit","225","601192","0.0-185.0-0.0","72126468","wem/bandit_party_1","A2R2HMURPYBWWC","either","5","718","","","","","","","0","0","1","0.2313605626","","0.6","0.2","0.8","0.4","","","","","0.1202521083","0.4407373256","0.2313605626","0.2224896139","","","","","","","","","","75","K","2","","","144","main_expt","",""
"","bandit","226","603098","0.0-186.0-0.0","72126468","wem/bandit_party_1","A2R2HMURPYBWWC","either","5","376","","","","","","","0","0","1","0.1785565547","","0.6","0.2","0.8","0.4","","","","","0.1619743669","0.4661091035","0.1785565547","0.1925605464","","","","","","","","","","75","K","2","","","145","main_expt","",""
"","bandit","227","605210","0.0-187.0-0.0","72126468","wem/bandit_party_1","A2R2HMURPYBWWC","either","5","583","","","","","","","0","0","1","","0.4637097668","0.6","0.2","0.8","0.4","0.1664631043","0.4637097668","0.1770660648","0.2069800611","","","","","","","","","","","","","","74","J","1","","","146","main_expt","",""
"","bandit","228","607625","0.0-188.0-0.0","72126468","wem/bandit_party_1","A2R2HMURPYBWWC","either","5","883","","","","","","","1","0","0","0.1669241763","","0.6","0.2","0.8","0.4","","","","","0.1669241763","0.4700491642","0.1063371611","0.2489662189","","","","","","","","","","72","H","0","img/none_selected.jpg","","147","main_expt","",""
"","bandit","229","609973","0.0-189.0-0.0","72126468","wem/bandit_party_1","A2R2HMURPYBWWC","either","5","792","","","","","","","0","0","1","0.1581456949","","0.6","0.2","0.8","0.4","","","","","0.1581456949","0.4648109734","0.1216370817","0.1946464158","","","","","","","","","","72","H","0","img/none_selected.jpg","","148","main_expt","",""
"","bandit","230","612288","0.0-190.0-0.0","72126468","wem/bandit_party_1","A2R2HMURPYBWWC","either","5","791","","","","","","","0","0","1","0.1826562491","","0.6","0.2","0.8","0.4","","","","","0.1698392466","0.4635511513","0.1024256959","0.1826562491","","","","","","","","","","76","L","3","","","149","main_expt","",""
"","bandit","231","614450","0.0-191.0-0.0","72126468","wem/bandit_party_1","A2R2HMURPYBWWC","either","5","627","","","","","","","0","0","1","0.1371094633","","0.6","0.2","0.8","0.4","","","","","0.2140114634","0.4445017148","0.1371094633","0.1750473563","","","","","","","","","","75","K","2","","","150","main_expt","",""
"","bandit","232","616330","0.0-192.0-0.0","72126468","wem/bandit_party_1","A2R2HMURPYBWWC","either","5","351","","","","","","","0","1","0","","0.4434799742","0.6","0.2","0.8","0.4","0.2392960001","0.4434799742","0.1702433702","0.1109536645","","","","","","","","","","","","","","74","J","1","","","151","main_expt","",""
"","bandit","233","617997","0.0-193.0-0.0","72126468","wem/bandit_party_1","A2R2HMURPYBWWC","either","5","116","","","","","","","0","0","1","","0.1860489046","0.6","0.2","0.8","0.4","0.2095863317","0.4451665291","0.1860489046","0.1143086707","","","","","","","","","","","","","","75","K","2","","","152","main_expt","",""
"","bandit","234","619727","0.0-194.0-0.0","72126468","wem/bandit_party_1","A2R2HMURPYBWWC","either","5","177","","","","","","","1","0","0","0.1236290712","","0.6","0.2","0.8","0.4","","","","","0.2543258611","0.4401532833","0.2117094388","0.1236290712","","","","","","","","","","76","L","3","","","153","main_expt","",""
"","bandit","235","621806","0.0-195.0-0.0","72126468","wem/bandit_party_1","A2R2HMURPYBWWC","either","5","520","","","","","","","0","0","1","","0.2602259906","0.6","0.2","0.8","0.4","0.2602259906","0.4516855879","0.2072389033","0.1600695342","","","","","","","","","","","","","","72","H","0","img/none_selected.jpg","","154","main_expt","",""
"","bandit","236","624223","0.0-196.0-0.0","72126468","wem/bandit_party_1","A2R2HMURPYBWWC","either","5","843","","","","","","","1","0","0","0.1770288166","","0.6","0.2","0.8","0.4","","","","","0.2750581274","0.4480264808","0.1986333914","0.1770288166","","","","","","","","","","76","L","3","","","155","main_expt","",""
"","bandit","237","626537","0.0-197.0-0.0","72126468","wem/bandit_party_1","A2R2HMURPYBWWC","either","5","768","","","","","","","0","0","1","0.2054640346","","0.6","0.2","0.8","0.4","","","","","0.2438045727","0.4260414265","0.2054640346","0.1761817894","","","","","","","","","","75","K","2","","","156","main_expt","",""
"","bandit","238","628876","0.0-198.0-0.0","72126468","wem/bandit_party_1","A2R2HMURPYBWWC","either","5","779","","","","","","","0","0","1","0.2857025143","","0.6","0.2","0.8","0.4","","","","","0.2857025143","0.4365201507","0.1810715383","0.1998830888","","","","","","","","","","72","H","0","img/none_selected.jpg","","157","main_expt","",""
"","bandit","239","630735","0.0-199.0-0.0","72126468","wem/bandit_party_1","A2R2HMURPYBWWC","either","5","308","","","","","","","0","1","0","","0.4076244479","0.6","0.2","0.8","0.4","0.2887719476","0.4076244479","0.2118906364","0.2150354531","","","","","","","","","","","","","","74","J","1","","","158","main_expt","",""
"","bandit","240","633145","0.0-200.0-0.0","72126468","wem/bandit_party_1","A2R2HMURPYBWWC","either","5","879","","","","","","","0","0","1","0.403953851","","0.6","0.2","0.8","0.4","","","","","0.2859462397","0.403953851","0.2293976715","0.2221069796","","","","","","","","","","74","J","1","","","159","main_expt","",""
"","bandit","241","634821","0.0-201.0-0.0","72126468","wem/bandit_party_1","A2R2HMURPYBWWC","either","5","117","","","","","","","0","0","1","0.207432816","","0.6","0.2","0.8","0.4","","","","","0.207432816","0.4282135537","0.2186051381","0.2627335039","","","","","","","","","","72","H","0","img/none_selected.jpg","","160","main_expt","",""
"","bandit","242","636672","0.0-202.0-0.0","72126468","wem/bandit_party_1","A2R2HMURPYBWWC","either","5","300","","","","","","","0","1","0","","0.2922457848","0.6","0.2","0.8","0.4","0.1611694724","0.4479073124","0.2175927206","0.2922457848","","","","","","","","","","","","","","76","L","3","","","161","main_expt","",""
"","bandit","243","638981","0.0-203.0-0.0","72126468","wem/bandit_party_1","A2R2HMURPYBWWC","either","5","777","","","","","","","0","0","1","0.2370404117","","0.6","0.2","0.8","0.4","","","","","0.14378348","0.4456201243","0.2370404117","0.3040212123","","","","","","","","","","75","K","2","","","162","main_expt","",""
"","bandit","244","640903","0.0-204.0-0.0","72126468","wem/bandit_party_1","A2R2HMURPYBWWC","either","5","376","","","","","","","1","0","0","0.1707099899","","0.6","0.2","0.8","0.4","","","","","0.1707099899","0.4384930657","0.2778780432","0.2933359027","","","","","","","","","","72","H","0","img/none_selected.jpg","","163","main_expt","",""
"","bandit","245","643182","0.0-205.0-0.0","72126468","wem/bandit_party_1","A2R2HMURPYBWWC","either","5","714","","","","","","","0","1","0","","0.2388203062","0.6","0.2","0.8","0.4","0.1933693166","0.4231568034","0.2643388611","0.2388203062","","","","","","","","","","","","","","76","L","3","","","164","main_expt","",""
"","bandit","246","645203","0.0-206.0-0.0","72126468","wem/bandit_party_1","A2R2HMURPYBWWC","either","5","427","","","","","","","0","0","1","0.2406324952","","0.6","0.2","0.8","0.4","","","","","0.2406324952","0.4412535734","0.1967204453","0.2646204916","","","","","","","","","","72","H","0","img/none_selected.jpg","","165","main_expt","",""
"","bandit","247","647092","0.0-207.0-0.0","72126468","wem/bandit_party_1","A2R2HMURPYBWWC","either","5","332","","","","","","","0","0","1","0.1567937345","","0.6","0.2","0.8","0.4","","","","","0.2650462377","0.438364003","0.1567937345","0.2591758032","","","","","","","","","","75","K","2","","","166","main_expt","",""
"","bandit","248","649304","0.0-208.0-0.0","72126468","wem/bandit_party_1","A2R2HMURPYBWWC","either","5","645","","","","","","","1","0","0","0.4290991351","","0.6","0.2","0.8","0.4","","","","","0.245875583","0.4290991351","0.1201482918","0.1955934818","","","","","","","","","","74","J","1","","","167","main_expt","",""
"","bandit","249","651199","0.0-209.0-0.0","72126468","wem/bandit_party_1","A2R2HMURPYBWWC","either","5","341","","","","","","","0","0","1","","0.4510860662","0.6","0.2","0.8","0.4","0.257303599","0.4510860662","0.0936051119","0.2090603634","","","","","","","","","","","","","","74","J","1","","","168","main_expt","",""
"","bandit","250","653882","0.0-210.0-0.0","72126468","wem/bandit_party_1","A2R2HMURPYBWWC","either","5","1123","","","","","","","0","0","1","0.2678479696","","0.6","0.2","0.8","0.4","","","","","0.2993732043","0.4491424364","0.08775096918","0.2678479696","","","","","","","","","","76","L","3","","","169","main_expt","",""
"","bandit","251","656021","0.0-211.0-0.0","72126468","wem/bandit_party_1","A2R2HMURPYBWWC","either","5","578","","","","","","","0","0","1","0.06743429675","","0.6","0.2","0.8","0.4","","","","","0.3388977639","0.4332244901","0.06743429675","0.2532125956","","","","","","","","","","75","K","2","","","170","main_expt","",""
"","bandit","252","657909","0.0-212.0-0.0","72126468","wem/bandit_party_1","A2R2HMURPYBWWC","either","5","354","","","","","","","0","0","1","","0.2568627054","0.6","0.2","0.8","0.4","0.2947926635","0.4405036994","0.05979118822","0.2568627054","","","","","","","","","","","","","","76","L","3","","","171","main_expt","",""
"","bandit","253","659832","0.0-213.0-0.0","72126468","wem/bandit_party_1","A2R2HMURPYBWWC","either","5","373","","","","","","","0","0","1","0.2892529657","","0.6","0.2","0.8","0.4","","","","","0.2892529657","0.4358521759","0.03200499914","0.2451563353","","","","","","","","","","72","H","0","img/none_selected.jpg","","172","main_expt","",""
"","bandit","254","661705","0.0-214.0-0.0","72126468","wem/bandit_party_1","A2R2HMURPYBWWC","either","5","325","","","","","","","0","1","0","","0.4471617722","0.6","0.2","0.8","0.4","0.2571917514","0.4471617722","0.04613358223","0.3003395367","","","","","","","","","","","","","","74","J","1","","","173","main_expt","",""
"","bandit","255","663873","0.0-215.0-0.0","72126468","wem/bandit_party_1","A2R2HMURPYBWWC","either","5","590","","","","","","","0","0","1","0.2545998681","","0.6","0.2","0.8","0.4","","","","","0.244173221","0.4560251174","0.05969677181","0.2545998681","","","","","","","","","","76","L","3","","","174","main_expt","",""
"","bandit","256","665557","0.0-216.0-0.0","72126468","wem/bandit_party_1","A2R2HMURPYBWWC","either","5","123","","","","","","","0","0","1","0.2038098688","","0.6","0.2","0.8","0.4","","","","","0.2038098688","0.4379349024","0.05930066603","0.3383135611","","","","","","","","","","72","H","0","img/none_selected.jpg","","175","main_expt","",""
"","bandit","257","667576","0.0-217.0-0.0","72126468","wem/bandit_party_1","A2R2HMURPYBWWC","either","5","472","","","","","","","0","0","1","","0.08110879181","0.6","0.2","0.8","0.4","0.2053823003","0.4328841116","0.08110879181","0.3880627729","","","","","","","","","","","","","","75","K","2","","","176","main_expt","",""
"","bandit","258","669621","0.0-218.0-0.0","72126468","wem/bandit_party_1","A2R2HMURPYBWWC","either","5","485","","","","","","","0","0","1","0.3920994557","","0.6","0.2","0.8","0.4","","","","","0.2193083282","0.3965365967","0.07611568943","0.3920994557","","","","","","","","","","76","L","3","","","177","main_expt","",""
"","bandit","259","671656","0.0-219.0-0.0","72126468","wem/bandit_party_1","A2R2HMURPYBWWC","either","5","469","","","","","","","0","0","1","","0.1904263594","0.6","0.2","0.8","0.4","0.1904263594","0.3899234309","0.1220467165","0.3882277994","","","","","","","","","","","","","","72","H","0","img/none_selected.jpg","","178","main_expt","",""
"","bandit","260","673700","0.0-220.0-0.0","72126468","wem/bandit_party_1","A2R2HMURPYBWWC","either","5","502","","","","","","","0","0","1","0.4238443777","","0.6","0.2","0.8","0.4","","","","","0.2212788648","0.4238443777","0.1698853315","0.3939691408","","","","","","","","","","74","J","1","","","179","main_expt","",""
"","bandit","261","675456","0.0-221.0-0.0","72126468","wem/bandit_party_1","A2R2HMURPYBWWC","either","5","225","","","","","","","0","0","1","0.4074656662","","0.6","0.2","0.8","0.4","","","","","0.2640717145","0.4487400994","0.1374762061","0.4074656662","","","","","","","","","","76","L","3","","","180","main_expt","",""
"","bandit","262","677307","0.0-222.0-0.0","72126468","wem/bandit_party_1","A2R2HMURPYBWWC","either","5","318","","","","","","","1","0","0","0.09961924189","","0.6","0.2","0.8","0.4","","","","","0.2426483564","0.4314573438","0.09961924189","0.3724421945","","","","","","","","","","75","K","2","","","181","main_expt","",""
"","bandit","263","679225","0.0-223.0-0.0","72126468","wem/bandit_party_1","A2R2HMURPYBWWC","either","5","394","","","","","","","0","1","0","","0.4458059303","0.6","0.2","0.8","0.4","0.2001563476","0.4458059303","0.1391043194","0.2998177931","","","","","","","","","","","","","","74","J","1","","","182","main_expt","",""
"","bandit","264","681098","0.0-224.0-0.0","72126468","wem/bandit_party_1","A2R2HMURPYBWWC","either","5","309","","","","","","","0","0","1","0.2167094124","","0.6","0.2","0.8","0.4","","","","","0.2167094124","0.4485460149","0.1336424596","0.3629728763","","","","","","","","","","72","H","0","img/none_selected.jpg","","183","main_expt","",""
"","bandit","265","682970","0.0-225.0-0.0","72126468","wem/bandit_party_1","A2R2HMURPYBWWC","either","5","339","","","","","","","0","0","1","","0.115911235","0.6","0.2","0.8","0.4","0.2402813617","0.4078350507","0.115911235","0.3763603645","","","","","","","","","","","","","","75","K","2","","","184","main_expt","",""
"","bandit","266","684746","0.0-226.0-0.0","72126468","wem/bandit_party_1","A2R2HMURPYBWWC","either","5","244","","","","","","","0","0","1","0.3472982705","","0.6","0.2","0.8","0.4","","","","","0.2745112141","0.3805788675","0.1394203739","0.3472982705","","","","","","","","","","76","L","3","","","185","main_expt","",""
"","bandit","267","686372","0.0-227.0-0.0","72126468","wem/bandit_party_1","A2R2HMURPYBWWC","either","5","54","","","","","","","1","0","0","0.2774566956","","0.6","0.2","0.8","0.4","","","","","0.2774566956","0.4236809331","0.1557479742","0.3095995051","","","","","","","","","","72","H","0","img/none_selected.jpg","","186","main_expt","",""
"","bandit","268","688440","0.0-228.0-0.0","72126468","wem/bandit_party_1","A2R2HMURPYBWWC","either","5","528","","","","","","","0","0","1","0.1823611596","","0.6","0.2","0.8","0.4","","","","","0.2876011691","0.4058627081","0.1823611596","0.2567332284","","","","","","","","","","75","K","2","","","187","main_expt","",""
"","bandit","269","690555","0.0-229.0-0.0","72126468","wem/bandit_party_1","A2R2HMURPYBWWC","either","5","545","","","","","","","0","0","1","0.3913346521","","0.6","0.2","0.8","0.4","","","","","0.2947112378","0.3913346521","0.1854179297","0.2555256861","","","","","","","","","","74","J","1","","","188","main_expt","",""
"","bandit","270","692364","0.0-230.0-0.0","72126468","wem/bandit_party_1","A2R2HMURPYBWWC","either","5","242","","","","","","","0","0","1","","0.3760164219","0.6","0.2","0.8","0.4","0.2581494","0.3760164219","0.1875645599","0.2009875262","","","","","","","","","","","","","","74","J","1","","","189","main_expt","",""
"","bandit","271","695140","0.0-231.0-0.0","72126468","wem/bandit_party_1","A2R2HMURPYBWWC","either","5","1241","","","","","","","0","0","1","","0.2055488595","0.6","0.2","0.8","0.4","0.1756323468","0.3327352817","0.2018323604","0.2055488595","","","","","","","","","","","","","","76","L","3","","","190","main_expt","",""
"","bandit","272","697444","0.0-232.0-0.0","72126468","wem/bandit_party_1","A2R2HMURPYBWWC","either","5","749","","","","","","","0","0","1","0.221094727","","0.6","0.2","0.8","0.4","","","","","0.2521570866","0.3015177445","0.221094727","0.1506387864","","","","","","","","","","75","K","2","","","191","main_expt","",""
"","bandit","273","699450","0.0-233.0-0.0","72126468","wem/bandit_party_1","A2R2HMURPYBWWC","either","5","468","","","","","","","0","0","1","0.2964739449","","0.6","0.2","0.8","0.4","","","","","0.2964739449","0.2773298268","0.2320570195","0.2027442266","","","","","","","","","","72","H","0","img/none_selected.jpg","","192","main_expt","",""
"","bandit","274","701667","0.0-234.0-0.0","72126468","wem/bandit_party_1","A2R2HMURPYBWWC","either","5","641","","","","","","","0","0","1","","0.2836613797","0.6","0.2","0.8","0.4","0.2612966838","0.2836613797","0.2948950962","0.1969137872","","","","","","","","","","","","","","74","J","1","","","193","main_expt","",""
"","bandit","275","704243","0.0-235.0-0.0","72126468","wem/bandit_party_1","A2R2HMURPYBWWC","either","5","1020","","","","","","","0","0","1","0.2602906927","","0.6","0.2","0.8","0.4","","","","","0.3292914436","0.2799350415","0.2602906927","0.2114994946","","","","","","","","","","75","K","2","","","194","main_expt","",""
"","bandit","276","706964","0.0-236.0-0.0","72126468","wem/bandit_party_1","A2R2HMURPYBWWC","either","5","1158","","","","","","","0","0","1","","0.2467939011","0.6","0.2","0.8","0.4","0.4070308407","0.2068597772","0.1771499101","0.2467939011","","","","","","","","","","","","","","76","L","3","","","195","main_expt","",""
"","bandit","277","709127","0.0-237.0-0.0","72126468","wem/bandit_party_1","A2R2HMURPYBWWC","either","5","611","","","","","","","0","0","1","0.3494820729","","0.6","0.2","0.8","0.4","","","","","0.3494820729","0.2679469531","0.1746274925","0.2731811988","","","","","","","","","","72","H","0","img/none_selected.jpg","","196","main_expt","",""
"","bandit","278","711690","0.0-238.0-0.0","72126468","wem/bandit_party_1","A2R2HMURPYBWWC","either","5","1030","","","","","","","0","0","1","","0.193224684","0.6","0.2","0.8","0.4","0.3571939809","0.2448078588","0.193224684","0.2512114903","","","","","","","","","","","","","","75","K","2","","","197","main_expt","",""
"","bandit","279","713658","0.0-239.0-0.0","72126468","wem/bandit_party_1","A2R2HMURPYBWWC","either","5","425","","","","","","","0","1","0","","0.2433987968","0.6","0.2","0.8","0.4","0.382430028","0.2433987968","0.1771509929","0.190651112","","","","","","","","","","","","","","74","J","1","","","198","main_expt","",""
"","bandit","280","715831","0.0-240.0-0.0","72126468","wem/bandit_party_1","A2R2HMURPYBWWC","either","5","638","","","","","","","0","1","0","","0.1701189695","0.6","0.2","0.8","0.4","0.3353474301","0.2653624242","0.2466668772","0.1701189695","","","","","","","","","","","","","","76","L","3","","","199","main_expt","",""
"","bandit","281","718351","0.0-241.0-0.0","72126468","wem/bandit_party_1","A2R2HMURPYBWWC","either","5","960","","","","","","","0","0","1","","0.1656975488","0.6","0.2","0.8","0.4","0.3321976498","0.2551376492","0.2477816141","0.1656975488","","","","","","","","","","","","","","76","L","3","","","200","main_expt","",""
"","bandit","282","720802","0.0-242.0-0.0","72126468","wem/bandit_party_1","A2R2HMURPYBWWC","either","5","896","","","","","","","0","1","0","","0.3218117355","0.6","0.2","0.8","0.4","0.3218117355","0.2660639347","0.2744817861","0.1647298582","","","","","","","","","","","","","","72","H","0","img/none_selected.jpg","","201","main_expt","",""
"","bandit","283","723086","0.0-243.0-0.0","72126468","wem/bandit_party_1","A2R2HMURPYBWWC","either","5","721","","","","","","","0","0","1","0.3043062986","","0.6","0.2","0.8","0.4","","","","","0.2949214693","0.2220900594","0.3043062986","0.1242041815","","","","","","","","","","75","K","2","","","202","main_expt","",""
"","bandit","284","726570","0.0-244.0-0.0","72126468","wem/bandit_party_1","A2R2HMURPYBWWC","either","5","1914","","","","","","","0","0","1","","0.1684487429","0.6","0.2","0.8","0.4","0.300077299","0.1543353204","0.272185569","0.1684487429","","","","","","","","","","","","","","76","L","3","","","203","main_expt","",""
"","bandit","285","728128","0.0-245.0-0.0","72126468","wem/bandit_party_1","A2R2HMURPYBWWC","either","5","1","","","","","","","0","0","1","0.2866085977","","0.6","0.2","0.8","0.4","","","","","0.2866085977","0.1605482003","0.2610767704","0.1666409686","","","","","","","","","","72","H","0","img/none_selected.jpg","","204","main_expt","",""
"","bandit","286","729711","0.0-246.0-0.0","72126468","wem/bandit_party_1","A2R2HMURPYBWWC","either","5","22","","","","","","","0","0","1","0.2832615928","","0.6","0.2","0.8","0.4","","","","","0.2695546272","0.1406914754","0.2832615928","0.2197286508","","","","","","","","","","75","K","2","","","205","main_expt","",""
"","bandit","287","733993","0.0-247.0-0.0","72126468","wem/bandit_party_1","A2R2HMURPYBWWC","either","5","2720","","","","","","","0","1","0","","0.1138947463","0.6","0.2","0.8","0.4","0.2622178416","0.1138947463","0.300913322","0.2754509052","","","","","","","","","","","","","","74","J","1","","","206","main_expt","",""
"","bandit","288","736541","0.0-248.0-0.0","72126468","wem/bandit_party_1","A2R2HMURPYBWWC","either","5","974","","","","","","","0","0","1","0.3260258847","","0.6","0.2","0.8","0.4","","","","","0.2498186578","0.1096702189","0.3260258847","0.2664869377","","","","","","","","","","75","K","2","","","207","main_expt","",""
"","bandit","289","738391","0.0-249.0-0.0","72126468","wem/bandit_party_1","A2R2HMURPYBWWC","either","5","304","","","","","","","1","0","0","0.3173829003","","0.6","0.2","0.8","0.4","","","","","0.2335358635","0.09922356593","0.3173829003","0.2686565688","","","","","","","","","","75","K","2","","","208","main_expt","",""
"","bandit","290","741045","0.0-250.0-0.0","72126468","wem/bandit_party_1","A2R2HMURPYBWWC","either","5","1127","","","","","","","0","0","1","0.2380255957","","0.6","0.2","0.8","0.4","","","","","0.2638942681","0.101567507","0.3153846937","0.2380255957","","","","","","","","","","76","L","3","","","209","main_expt","",""
"","bandit","291","743676","0.0-251.0-0.0","72126468","wem/bandit_party_1","A2R2HMURPYBWWC","either","5","1074","","","","","","","0","0","1","0.3010876552","","0.6","0.2","0.8","0.4","","","","","0.2526926237","0.08675379402","0.3010876552","0.2507768727","","","","","","","","","","75","K","2","","","210","main_expt","",""
"","bandit","292","746053","0.0-252.0-0.0","72126468","wem/bandit_party_1","A2R2HMURPYBWWC","either","5","828","","","","","","","0","0","1","0.2685142319","","0.6","0.2","0.8","0.4","","","","","0.2740367769","0.07512021269","0.2864900033","0.2685142319","","","","","","","","","","76","L","3","","","211","main_expt","",""
"","bandit","293","750730","0.0-253.0-0.0","72126468","wem/bandit_party_1","A2R2HMURPYBWWC","either","5","3126","","","","","","","0","0","1","","0.260511483","0.6","0.2","0.8","0.4","0.2440836191","0.08144254236","0.3163372434","0.260511483","","","","","","","","","","","","","","76","L","3","","","212","main_expt","",""
"","bandit","294","754032","0.0-254.0-0.0","72126468","wem/bandit_party_1","A2R2HMURPYBWWC","either","5","1737","","","","","","","0","0","1","","0.2579605047","0.6","0.2","0.8","0.4","0.2341903104","0.06585574052","0.2701305136","0.2579605047","","","","","","","","","","","","","","76","L","3","","","213","main_expt","",""
"","bandit","295","759161","0.0-255.0-0.0","72126468","wem/bandit_party_1","A2R2HMURPYBWWC","either","5","3593","","","","","","","1","0","0","0.2097526345","","0.6","0.2","0.8","0.4","","","","","0.2097526345","0.08686614453","0.302599165","0.2470456849","","","","","","","","","","72","H","0","img/none_selected.jpg","","214","main_expt","",""
"","bandit","296","762599","0.0-256.0-0.0","72126468","wem/bandit_party_1","A2R2HMURPYBWWC","either","5","1885","","","","","","","0","0","1","","0.2968005471","0.6","0.2","0.8","0.4","0.1796882487","0.1068548489","0.2968005471","0.3285383036","","","","","","","","","","","","","","75","K","2","","","215","main_expt","",""
"","bandit","297","764835","0.0-257.0-0.0","72126468","wem/bandit_party_1","A2R2HMURPYBWWC","either","5","670","","","","","","","0","0","1","0.2237900511","","0.6","0.2","0.8","0.4","","","","","0.2237900511","0.1211736082","0.2835536598","0.3780044773","","","","","","","","","","72","H","0","img/none_selected.jpg","","216","main_expt","",""
"","bandit","298","766998","0.0-258.0-0.0","72126468","wem/bandit_party_1","A2R2HMURPYBWWC","either","5","625","","","","","","","0","1","0","","0.2520762718","0.6","0.2","0.8","0.4","0.2265358539","0.09343701815","0.2520762718","0.3939228946","","","","","","","","","","","","","","75","K","2","","","217","main_expt","",""
"","bandit","299","771617","0.0-259.0-0.0","72126468","wem/bandit_party_1","A2R2HMURPYBWWC","either","5","3060","","","","","","","1","0","0","0.2562699476","","0.6","0.2","0.8","0.4","","","","","0.2364013437","0.1001055386","0.2562699476","0.3198270803","","","","","","","","","","75","K","2","","","218","main_expt","",""
"","bandit","300","776032","0.0-260.0-0.0","72126468","wem/bandit_party_1","A2R2HMURPYBWWC","either","5","2854","","","","","","","0","0","1","0.3002431464","","0.6","0.2","0.8","0.4","","","","","0.2810560361","0.09524874014","0.3002431464","0.3502502288","","","","","","","","","","75","K","2","","","219","main_expt","",""
"","bandit","301","781780","0.0-261.0-0.0","72126468","wem/bandit_party_1","A2R2HMURPYBWWC","either","5","4180","","","","","","","0","0","1","","0.3027429446","0.6","0.2","0.8","0.4","0.3027429446","0.1304899995","0.3365413303","0.3402456168","","","","","","","","","","","","","","72","H","0","img/none_selected.jpg","","220","main_expt","",""
"","bandit","302","786068","0.0-262.0-0.0","72126468","wem/bandit_party_1","A2R2HMURPYBWWC","either","5","2742","","","","","","","1","0","0","0.2946103072","","0.6","0.2","0.8","0.4","","","","","0.3132134988","0.1272814923","0.2946103072","0.3770059732","","","","","","","","","","75","K","2","","","221","main_expt","",""
"","bandit","303","790487","0.0-263.0-0.0","72126468","wem/bandit_party_1","A2R2HMURPYBWWC","either","5","2884","","","","","","","0","1","0","","0.3864421123","0.6","0.2","0.8","0.4","0.2424821827","0.1654407056","0.3267284332","0.3864421123","","","","","","","","","","","","","","76","L","3","","","222","main_expt","",""
"","bandit","304","795105","0.0-264.0-0.0","72126468","wem/bandit_party_1","A2R2HMURPYBWWC","either","5","3076","","","","","","","0","0","1","","0.1788325852","0.6","0.2","0.8","0.4","0.2595367495","0.1788325852","0.3175152631","0.4205211408","","","","","","","","","","","","","","74","J","1","","","223","main_expt","",""
"","bandit","305","798323","0.0-265.0-0.0","72126468","wem/bandit_party_1","A2R2HMURPYBWWC","either","5","1666","","","","","","","0","0","1","","0.1736623033","0.6","0.2","0.8","0.4","0.328819141","0.1736623033","0.3192400935","0.4131889957","","","","","","","","","","","","","","74","J","1","","","224","main_expt","",""
"","bandit","306","807034","0.0-266.0-0.0","72126468","wem/bandit_party_1","A2R2HMURPYBWWC","either","5","7146","","","","","","","1","0","0","0.3096750449","","0.6","0.2","0.8","0.4","","","","","0.356121412","0.1721911447","0.3096750449","0.4001513574","","","","","","","","","","75","K","2","","","225","main_expt","",""
"","bandit","307","814324","0.0-267.0-0.0","72126468","wem/bandit_party_1","A2R2HMURPYBWWC","either","5","5738","","","","","","","1","0","0","0.3142833063","","0.6","0.2","0.8","0.4","","","","","0.3394019192","0.2133818582","0.3142833063","0.3963688582","","","","","","","","","","75","K","2","","","226","main_expt","",""
"","bandit","308","817123","0.0-268.0-0.0","72126468","wem/bandit_party_1","A2R2HMURPYBWWC","either","5","1249","","","","","","","0","1","0","","0.2860553004","0.6","0.2","0.8","0.4","0.2860553004","0.2620007467","0.3096885674","0.3979714495","","","","","","","","","","","","","","72","H","0","img/none_selected.jpg","","227","main_expt","",""
"","bandit","309","820492","0.0-269.0-0.0","72126468","wem/bandit_party_1","A2R2HMURPYBWWC","either","5","1831","","","","","","","0","0","1","0.3048295172","","0.6","0.2","0.8","0.4","","","","","0.2967856672","0.2961930455","0.3048295172","0.3811043637","","","","","","","","","","75","K","2","","","228","main_expt","",""
"","bandit","310","823309","0.0-270.0-0.0","72126468","wem/bandit_party_1","A2R2HMURPYBWWC","either","5","1262","","","","","","","0","0","1","","0.3081123415","0.6","0.2","0.8","0.4","0.2857745529","0.3081123415","0.2553920021","0.3488149186","","","","","","","","","","","","","","74","J","1","","","229","main_expt","",""
"","bandit","311","826590","0.0-271.0-0.0","72126468","wem/bandit_party_1","A2R2HMURPYBWWC","either","5","1730","","","","","","","0","0","1","0.2883621188","","0.6","0.2","0.8","0.4","","","","","0.2589404948","0.3027177586","0.2783794412","0.2883621188","","","","","","","","","","76","L","3","","","230","main_expt","",""
"","bandit","312","831724","0.0-272.0-0.0","72126468","wem/bandit_party_1","A2R2HMURPYBWWC","either","5","3568","","","","","","","0","0","1","0.2444465504","","0.6","0.2","0.8","0.4","","","","","0.2628441024","0.2495346478","0.2735536708","0.2444465504","","","","","","","","","","76","L","3","","","231","main_expt","",""
"","bandit","313","833752","0.0-273.0-0.0","72126468","wem/bandit_party_1","A2R2HMURPYBWWC","either","5","463","","","","","","","0","0","1","","0.2185872191","0.6","0.2","0.8","0.4","0.276537748","0.2185872191","0.2262440502","0.2996930955","","","","","","","","","","","","","","74","J","1","","","232","main_expt","",""
