"consent","trial_type","trial_index","time_elapsed","internal_node_id","subjID","study","MID","cond","drift","rt","responses","button_pressed","key_press","like","value","connected","gems","bombs","no_reward","GemPrChosen","BombPrChosen","GainOverPainPr_0","GainOverPainPr_1","GainOverPainPr_2","GainOverPainPr_3","LosePr_0","LosePr_1","LosePr_2","LosePr_3","WinPr_0","WinPr_1","WinPr_2","WinPr_3","Q0","Q1","Q2","gender","age","ethnicity","label","expt_phase","target","respCharCode","respKey","respChoiceNum","respChoice","practice","trial_counter","trial_label","Q0_index","view_history"
"GDM/GDM_behavioral_consent_30min_online.html","consent","0","9276","0.0-0.0","72209747","wem/bandit_party_1","A2COAUZ1TISD2Q","either","6","","","","","","","","","","","","","","","","","","","","","","","","","","","","","","","","","","","","","","","","","",""
"","survey-text","1","19027","0.0-1.0","72209747","wem/bandit_party_1","A2COAUZ1TISD2Q","either","6","8749","{""Q0"":""A2COAUZ1TISD2Q""}","","","","","","","","","","","","","","","","","","","","","","","","","","","","","","","","","","","","","","","",""
"","button-response","2","22734","0.0-2.0","72209747","wem/bandit_party_1","A2COAUZ1TISD2Q","either","6","2705","","1","","","","","","","","","","","","","","","","","","","","","","","","","","","","","","","","","","","","","","",""
"","text-replacement","3","41318","0.0-3.0","72209747","wem/bandit_party_1","A2COAUZ1TISD2Q","either","6","17582","","","32","","","","","","","","","","","","","","","","","","","","","","","","","","","","","","","","","","","","","",""
"","text-replacement","4","51854","0.0-4.0","72209747","wem/bandit_party_1","A2COAUZ1TISD2Q","either","6","10534","","","32","","","","","","","","","","","","","","","","","","","","","","","","","","","","","","","","","","","","","",""
"","identification","5","63165","0.0-6.0-0.0","72209747","wem/bandit_party_1","A2COAUZ1TISD2Q","either","6","11298","","","","6","6","6","","","","","","","","","","","","","","","","","","","","","","","","pre","identification_pre","the Democratic Party","","","","","","","","",""
"","identification","6","69679","0.0-6.0-1.0","72209747","wem/bandit_party_1","A2COAUZ1TISD2Q","either","6","5505","","","","0","0","0","","","","","","","","","","","","","","","","","","","","","","","","pre","identification_pre","the Republican party","","","","","","","","",""
"","text-replacement","7","80247","0.0-7.0","72209747","wem/bandit_party_1","A2COAUZ1TISD2Q","either","6","9567","","","32","","","","","","","","","","","","","","","","","","","","","","","","","","","","","","","","","","","","","",""
"","text-replacement","8","87464","0.0-8.0","72209747","wem/bandit_party_1","A2COAUZ1TISD2Q","either","6","7215","","","32","","","","","","","","","","","","","","","","","","","","","","","","","","","","","","","","","","","","","",""
"","text-replacement","9","94131","0.0-9.0","72209747","wem/bandit_party_1","A2COAUZ1TISD2Q","either","6","6665","","","32","","","","","","","","","","","","","","","","","","","","","","","","","","","","","","","","","","","","","",""
"","text-replacement","10","99625","0.0-10.0","72209747","wem/bandit_party_1","A2COAUZ1TISD2Q","either","6","5492","","","32","","","","","","","","","","","","","","","","","","","","","","","","","","","","","","","","","","","","","",""
"","text-replacement","11","109561","0.0-11.0","72209747","wem/bandit_party_1","A2COAUZ1TISD2Q","either","6","9936","","","32","","","","","","","","","","","","","","","","","","","","","","","","","","","","","","","","","","","","","",""
"","bandit","12","113662","0.0-12.0-0.0","72209747","wem/bandit_party_1","A2COAUZ1TISD2Q","either","6","2597","","","","","","","0","0","1","0","0","","","","","0","","","","0","","","","","","","","","","","","","74","J","0","img/none_selected_demo.jpg","true","0","","",""
"","bandit","13","116398","0.0-13.0-0.0","72209747","wem/bandit_party_1","A2COAUZ1TISD2Q","either","6","1233","","","","","","","0","0","1","0","0","","","","","0","","","","0","","","","","","","","","","","","","75","K","0","img/none_selected_demo.jpg","true","0","","",""
"","text-replacement","14","123090","0.0-14.0","72209747","wem/bandit_party_1","A2COAUZ1TISD2Q","either","6","6691","","","32","","","","","","","","","","","","","","","","","","","","","","","","","","","","","","","","","","","","","",""
"","text-replacement","15","127416","0.0-15.0","72209747","wem/bandit_party_1","A2COAUZ1TISD2Q","either","6","4324","","","32","","","","","","","","","","","","","","","","","","","","","","","","","","","","","","","","","","","","","",""
"","text-replacement","16","140173","0.0-16.0","72209747","wem/bandit_party_1","A2COAUZ1TISD2Q","either","6","12756","","","32","","","","","","","","","","","","","","","","","","","","","","","","","","","","","","","","","","","","","",""
"","text-replacement","17","144228","0.0-17.0","72209747","wem/bandit_party_1","A2COAUZ1TISD2Q","either","6","4053","","","32","","","","","","","","","","","","","","","","","","","","","","","","","","","","","","","","","","","","","",""
"","bandit","18","146847","0.0-18.0-0.0","72209747","wem/bandit_party_1","A2COAUZ1TISD2Q","either","6","1119","","","","","","","0","1","0","","0.8","0.5","0.5","","","0.8","0.2","","","","","","","","","","","","","","","","74","J","0","img/none_selected_demo.jpg","true","0","80_20_practice","",""
"","bandit","19","149335","0.0-18.0-1.0","72209747","wem/bandit_party_1","A2COAUZ1TISD2Q","either","6","986","","","","","","","0","0","1","0.2","","0.5","0.5","","","","","","","0.8","0.2","","","","","","","","","","","","75","K","1","","true","0","80_20_practice","",""
"","bandit","20","152497","0.0-18.0-2.0","72209747","wem/bandit_party_1","A2COAUZ1TISD2Q","either","6","1660","","","","","","","0","0","1","0.2","","0.5","0.5","","","","","","","0.8","0.2","","","","","","","","","","","","75","K","1","","true","0","80_20_practice","",""
"","bandit","21","154647","0.0-18.0-3.0","72209747","wem/bandit_party_1","A2COAUZ1TISD2Q","either","6","648","","","","","","","0","0","1","0.8","","0.5","0.5","","","","","","","0.8","0.2","","","","","","","","","","","","74","J","0","img/none_selected_demo.jpg","true","0","80_20_practice","",""
"","bandit","22","156663","0.0-18.0-4.0","72209747","wem/bandit_party_1","A2COAUZ1TISD2Q","either","6","514","","","","","","","0","1","0","","0.8","0.5","0.5","","","0.8","0.2","","","","","","","","","","","","","","","","74","J","0","img/none_selected_demo.jpg","true","0","80_20_practice","",""
"","bandit","23","158583","0.0-18.0-5.0","72209747","wem/bandit_party_1","A2COAUZ1TISD2Q","either","6","418","","","","","","","0","0","1","0.2","","0.5","0.5","","","","","","","0.8","0.2","","","","","","","","","","","","75","K","1","","true","0","80_20_practice","",""
"","bandit","24","160343","0.0-18.0-6.0","72209747","wem/bandit_party_1","A2COAUZ1TISD2Q","either","6","258","","","","","","","0","0","1","0.2","","0.5","0.5","","","","","","","0.8","0.2","","","","","","","","","","","","75","K","1","","true","0","80_20_practice","",""
"","bandit","25","162175","0.0-18.0-7.0","72209747","wem/bandit_party_1","A2COAUZ1TISD2Q","either","6","330","","","","","","","1","0","0","0.8","","0.5","0.5","","","","","","","0.8","0.2","","","","","","","","","","","","74","J","0","img/none_selected_demo.jpg","true","0","80_20_practice","",""
"","bandit","26","164082","0.0-18.0-8.0","72209747","wem/bandit_party_1","A2COAUZ1TISD2Q","either","6","405","","","","","","","1","0","0","0.8","","0.5","0.5","","","","","","","0.8","0.2","","","","","","","","","","","","74","J","0","img/none_selected_demo.jpg","true","0","80_20_practice","",""
"","bandit","27","165936","0.0-18.0-9.0","72209747","wem/bandit_party_1","A2COAUZ1TISD2Q","either","6","352","","","","","","","0","0","1","","0.8","0.5","0.5","","","0.8","0.2","","","","","","","","","","","","","","","","74","J","0","img/none_selected_demo.jpg","true","0","80_20_practice","",""
"","bandit","28","168048","0.0-18.0-10.0","72209747","wem/bandit_party_1","A2COAUZ1TISD2Q","either","6","610","","","","","","","1","0","0","0.8","","0.5","0.5","","","","","","","0.8","0.2","","","","","","","","","","","","74","J","0","img/none_selected_demo.jpg","true","0","80_20_practice","",""
"","bandit","29","169632","0.0-18.0-11.0","72209747","wem/bandit_party_1","A2COAUZ1TISD2Q","either","6","82","","","","","","","0","1","0","","0.8","0.5","0.5","","","0.8","0.2","","","","","","","","","","","","","","","","74","J","0","img/none_selected_demo.jpg","true","0","80_20_practice","",""
"","bandit","30","171168","0.0-18.0-12.0","72209747","wem/bandit_party_1","A2COAUZ1TISD2Q","either","6","34","","","","","","","1","0","0","0.8","","0.5","0.5","","","","","","","0.8","0.2","","","","","","","","","","","","74","J","0","img/none_selected_demo.jpg","true","0","80_20_practice","",""
"","bandit","31","172680","0.0-18.0-13.0","72209747","wem/bandit_party_1","A2COAUZ1TISD2Q","either","6","10","","","","","","","0","0","1","0.8","","0.5","0.5","","","","","","","0.8","0.2","","","","","","","","","","","","74","J","0","img/none_selected_demo.jpg","true","0","80_20_practice","",""
"","bandit","32","174513","0.0-18.0-14.0","72209747","wem/bandit_party_1","A2COAUZ1TISD2Q","either","6","329","","","","","","","0","0","1","","0.8","0.5","0.5","","","0.8","0.2","","","","","","","","","","","","","","","","74","J","0","img/none_selected_demo.jpg","true","0","80_20_practice","",""
"","bandit","33","176088","0.0-18.0-15.0","72209747","wem/bandit_party_1","A2COAUZ1TISD2Q","either","6","73","","","","","","","0","0","1","","0.8","0.5","0.5","","","0.8","0.2","","","","","","","","","","","","","","","","74","J","0","img/none_selected_demo.jpg","true","0","80_20_practice","",""
"","bandit","34","178161","0.0-18.0-16.0","72209747","wem/bandit_party_1","A2COAUZ1TISD2Q","either","6","570","","","","","","","1","0","0","0.8","","0.5","0.5","","","","","","","0.8","0.2","","","","","","","","","","","","74","J","0","img/none_selected_demo.jpg","true","0","80_20_practice","",""
"","bandit","35","180153","0.0-18.0-17.0","72209747","wem/bandit_party_1","A2COAUZ1TISD2Q","either","6","489","","","","","","","1","0","0","0.8","","0.5","0.5","","","","","","","0.8","0.2","","","","","","","","","","","","74","J","0","img/none_selected_demo.jpg","true","0","80_20_practice","",""
"","bandit","36","182042","0.0-18.0-18.0","72209747","wem/bandit_party_1","A2COAUZ1TISD2Q","either","6","386","","","","","","","1","0","0","0.8","","0.5","0.5","","","","","","","0.8","0.2","","","","","","","","","","","","74","J","0","img/none_selected_demo.jpg","true","0","80_20_practice","",""
"","bandit","37","183826","0.0-18.0-19.0","72209747","wem/bandit_party_1","A2COAUZ1TISD2Q","either","6","281","","","","","","","0","0","1","","0.8","0.5","0.5","","","0.8","0.2","","","","","","","","","","","","","","","","74","J","0","img/none_selected_demo.jpg","true","0","80_20_practice","",""
"","text-replacement","38","188414","0.0-19.0","72209747","wem/bandit_party_1","A2COAUZ1TISD2Q","either","6","4585","","","32","","","","","","","","","","","","","","","","","","","","","","","","","","","","","","","","","","","","","",""
"","bandit","39","191922","0.0-20.0-0.0","72209747","wem/bandit_party_1","A2COAUZ1TISD2Q","either","6","2005","","","","","","","1","0","0","1","0","","","","","0","1","","","1","0","","","","","","","","","","","","74","J","0","img/none_selected_demo.jpg","true","0","","",""
"","text-replacement","40","197385","0.0-21.0","72209747","wem/bandit_party_1","A2COAUZ1TISD2Q","either","6","5461","","","32","","","","","","","","","","","","","","","","","","","","","","","","","","","","","","","","","","","","","",""
"","text-replacement","41","205471","0.0-22.0","72209747","wem/bandit_party_1","A2COAUZ1TISD2Q","either","6","8085","","","32","","","","","","","","","","","","","","","","","","","","","","","","","","","","","","","","","","","","","",""
"","text-replacement","42","209777","0.0-23.0","72209747","wem/bandit_party_1","A2COAUZ1TISD2Q","either","6","4304","","","32","","","","","","","","","","","","","","","","","","","","","","","","","","","","","","","","","","","","","",""
"","text-replacement","43","214200","0.0-24.0","72209747","wem/bandit_party_1","A2COAUZ1TISD2Q","either","6","4421","","","32","","","","","","","","","","","","","","","","","","","","","","","","","","","","","","","","","","","","","",""
"","text-replacement","44","228819","0.0-25.0","72209747","wem/bandit_party_1","A2COAUZ1TISD2Q","either","6","14617","","","32","","","","","","","","","","","","","","","","","","","","","","","","","","","","","","","","","","","","","",""
"","text-replacement","45","236267","0.0-26.0","72209747","wem/bandit_party_1","A2COAUZ1TISD2Q","either","6","7446","","","32","","","","","","","","","","","","","","","","","","","","","","","","","","","","","","","","","","","","","",""
"","text-replacement","46","239876","0.0-27.0","72209747","wem/bandit_party_1","A2COAUZ1TISD2Q","either","6","3607","","","32","","","","","","","","","","","","","","","","","","","","","","","","","","","","","","","","","","","","","",""
"","text-replacement","47","243987","0.0-28.0","72209747","wem/bandit_party_1","A2COAUZ1TISD2Q","either","6","4109","","","32","","","","","","","","","","","","","","","","","","","","","","","","","","","","","","","","","","","","","",""
"","text-replacement","48","246763","0.0-29.0","72209747","wem/bandit_party_1","A2COAUZ1TISD2Q","either","6","2774","","","32","","","","","","","","","","","","","","","","","","","","","","","","","","","","","","","","","","","","","",""
"","text-replacement","49","248875","0.0-30.0","72209747","wem/bandit_party_1","A2COAUZ1TISD2Q","either","6","2110","","","32","","","","","","","","","","","","","","","","","","","","","","","","","","","","","","","","","","","","","",""
"","text-replacement","50","253500","0.0-31.0","72209747","wem/bandit_party_1","A2COAUZ1TISD2Q","either","6","4623","","","32","","","","","","","","","","","","","","","","","","","","","","","","","","","","","","","","","","","","","",""
"","bandit","51","255544","0.0-32.0-0.0","72209747","wem/bandit_party_1","A2COAUZ1TISD2Q","either","6","541","","","","","","","1","0","0","0.8","","0.5","0.5","0.5","0.5","","","","","0.8","0.2","0.6","0.2","","","","","","","","","","72","H","0","img/none_selected.jpg","true","0","full_practice","",""
"","bandit","52","257888","0.0-32.0-1.0","72209747","wem/bandit_party_1","A2COAUZ1TISD2Q","either","6","841","","","","","","","0","0","1","0.2","","0.5","0.5","0.5","0.5","","","","","0.8","0.2","0.6","0.2","","","","","","","","","","74","J","1","","true","0","full_practice","",""
"","bandit","53","259696","0.0-32.0-2.0","72209747","wem/bandit_party_1","A2COAUZ1TISD2Q","either","6","304","","","","","","","0","0","1","","0.6","0.5","0.5","0.5","0.5","0.8","0.2","0.6","0.2","","","","","","","","","","","","","","75","K","2","","true","0","full_practice","",""
"","bandit","54","262176","0.0-32.0-3.0","72209747","wem/bandit_party_1","A2COAUZ1TISD2Q","either","6","977","","","","","","","0","0","1","0.2","","0.5","0.5","0.5","0.5","","","","","0.8","0.2","0.6","0.2","","","","","","","","","","76","L","3","","true","0","full_practice","",""
"","bandit","55","263993","0.0-32.0-4.0","72209747","wem/bandit_party_1","A2COAUZ1TISD2Q","either","6","315","","","","","","","0","1","0","","0.8","0.5","0.5","0.5","0.5","0.8","0.2","0.6","0.2","","","","","","","","","","","","","","72","H","0","img/none_selected.jpg","true","0","full_practice","",""
"","bandit","56","265953","0.0-32.0-5.0","72209747","wem/bandit_party_1","A2COAUZ1TISD2Q","either","6","456","","","","","","","0","1","0","","0.2","0.5","0.5","0.5","0.5","0.8","0.2","0.6","0.2","","","","","","","","","","","","","","74","J","1","","true","0","full_practice","",""
"","bandit","57","267936","0.0-32.0-6.0","72209747","wem/bandit_party_1","A2COAUZ1TISD2Q","either","6","480","","","","","","","1","0","0","0.6","","0.5","0.5","0.5","0.5","","","","","0.8","0.2","0.6","0.2","","","","","","","","","","75","K","2","","true","0","full_practice","",""
"","bandit","58","271057","0.0-32.0-7.0","72209747","wem/bandit_party_1","A2COAUZ1TISD2Q","either","6","1618","","","","","","","0","1","0","","0.2","0.5","0.5","0.5","0.5","0.8","0.2","0.6","0.2","","","","","","","","","","","","","","76","L","3","","true","0","full_practice","",""
"","bandit","59","272977","0.0-32.0-8.0","72209747","wem/bandit_party_1","A2COAUZ1TISD2Q","either","6","417","","","","","","","1","0","0","0.6","","0.5","0.5","0.5","0.5","","","","","0.8","0.2","0.6","0.2","","","","","","","","","","75","K","2","","true","0","full_practice","",""
"","bandit","60","275210","0.0-32.0-9.0","72209747","wem/bandit_party_1","A2COAUZ1TISD2Q","either","6","731","","","","","","","0","1","0","","0.6","0.5","0.5","0.5","0.5","0.8","0.2","0.6","0.2","","","","","","","","","","","","","","75","K","2","","true","0","full_practice","",""
"","bandit","61","277369","0.0-32.0-10.0","72209747","wem/bandit_party_1","A2COAUZ1TISD2Q","either","6","657","","","","","","","0","0","1","0.8","","0.5","0.5","0.5","0.5","","","","","0.8","0.2","0.6","0.2","","","","","","","","","","72","H","0","img/none_selected.jpg","true","0","full_practice","",""
"","bandit","62","279065","0.0-32.0-11.0","72209747","wem/bandit_party_1","A2COAUZ1TISD2Q","either","6","193","","","","","","","0","0","1","0.6","","0.5","0.5","0.5","0.5","","","","","0.8","0.2","0.6","0.2","","","","","","","","","","75","K","2","","true","0","full_practice","",""
"","bandit","63","281441","0.0-32.0-12.0","72209747","wem/bandit_party_1","A2COAUZ1TISD2Q","either","6","874","","","","","","","0","1","0","","0.8","0.5","0.5","0.5","0.5","0.8","0.2","0.6","0.2","","","","","","","","","","","","","","72","H","0","img/none_selected.jpg","true","0","full_practice","",""
"","bandit","64","283209","0.0-32.0-13.0","72209747","wem/bandit_party_1","A2COAUZ1TISD2Q","either","6","266","","","","","","","1","0","0","0.6","","0.5","0.5","0.5","0.5","","","","","0.8","0.2","0.6","0.2","","","","","","","","","","75","K","2","","true","0","full_practice","",""
"","bandit","65","285129","0.0-32.0-14.0","72209747","wem/bandit_party_1","A2COAUZ1TISD2Q","either","6","418","","","","","","","1","0","0","0.6","","0.5","0.5","0.5","0.5","","","","","0.8","0.2","0.6","0.2","","","","","","","","","","75","K","2","","true","0","full_practice","",""
"","bandit","66","287092","0.0-32.0-15.0","72209747","wem/bandit_party_1","A2COAUZ1TISD2Q","either","6","460","","","","","","","0","1","0","","0.6","0.5","0.5","0.5","0.5","0.8","0.2","0.6","0.2","","","","","","","","","","","","","","75","K","2","","true","0","full_practice","",""
"","bandit","67","288930","0.0-32.0-16.0","72209747","wem/bandit_party_1","A2COAUZ1TISD2Q","either","6","336","","","","","","","0","1","0","","0.6","0.5","0.5","0.5","0.5","0.8","0.2","0.6","0.2","","","","","","","","","","","","","","75","K","2","","true","0","full_practice","",""
"","bandit","68","290915","0.0-32.0-17.0","72209747","wem/bandit_party_1","A2COAUZ1TISD2Q","either","6","481","","","","","","","0","1","0","","0.6","0.5","0.5","0.5","0.5","0.8","0.2","0.6","0.2","","","","","","","","","","","","","","75","K","2","","true","0","full_practice","",""
"","bandit","69","292730","0.0-32.0-18.0","72209747","wem/bandit_party_1","A2COAUZ1TISD2Q","either","6","313","","","","","","","0","0","1","","0.2","0.5","0.5","0.5","0.5","0.8","0.2","0.6","0.2","","","","","","","","","","","","","","76","L","3","","true","0","full_practice","",""
"","bandit","70","294501","0.0-32.0-19.0","72209747","wem/bandit_party_1","A2COAUZ1TISD2Q","either","6","268","","","","","","","0","0","1","0.2","","0.5","0.5","0.5","0.5","","","","","0.8","0.2","0.6","0.2","","","","","","","","","","74","J","1","","true","0","full_practice","",""
"","text","71","297200","0.0-33.0","72209747","wem/bandit_party_1","A2COAUZ1TISD2Q","either","6","2692","","","32","","","","","","","","","","","","","","","","","","","","","","","","","","","","","","","","","","","","","",""
"","text-replacement","72","307873","0.0-34.0","72209747","wem/bandit_party_1","A2COAUZ1TISD2Q","either","6","9671","","","32","","","","","","","","","","","","","","","","","","","","","","","","","","","","","","","","","","","","","",""
"","text-replacement","73","322122","0.0-35.0","72209747","wem/bandit_party_1","A2COAUZ1TISD2Q","either","6","14247","","","32","","","","","","","","","","","","","","","","","","","","","","","","","","","","","","","","","","","","","",""
"","text-replacement","74","325057","0.0-36.0","72209747","wem/bandit_party_1","A2COAUZ1TISD2Q","either","6","2932","","","32","","","","","","","","","","","","","","","","","","","","","","","","","","","","","","","","","","","","","",""
"","text-replacement","75","328497","0.0-37.0","72209747","wem/bandit_party_1","A2COAUZ1TISD2Q","either","6","3438","","","32","","","","","","","","","","","","","","","","","","","","","","","","","","","","","","","","","","","","","",""
"","text-replacement","76","330522","0.0-38.0","72209747","wem/bandit_party_1","A2COAUZ1TISD2Q","either","6","2023","","","32","","","","","","","","","","","","","","","","","","","","","","","","","","","","","","","","","","","","","",""
"","survey-multi-choice-replacement","77","338127","0.0-39.0-0.0","72209747","wem/bandit_party_1","A2COAUZ1TISD2Q","either","6","7598","","","","","","","","","","","","","","","","","","","","","","","","Money will be added to the pool for <span style='color:blue;'>DEMOCRATS</span>","","","","","","","attn_check","","","","","","","","","0",""
"","survey-multi-choice-replacement","78","342770","0.0-40.0-0.0","72209747","wem/bandit_party_1","A2COAUZ1TISD2Q","either","6","3634","","","","","","","","","","","","","","","","","","","","","","","","Money will be subtracted from the pool for <span style='color:red;'>REPUBLICANS</span>","","","","","","","attn_check","","","","","","","","","1",""
"","instructions","79","345071","0.0-40.0-1.0-0.0","72209747","wem/bandit_party_1","A2COAUZ1TISD2Q","either","6","1298","","","","","","","","","","","","","","","","","","","","","","","","","","","","","","","","","","","","","","","","","[{""page_index"":0,""viewing_time"":1298}]"
"","survey-multi-choice-replacement","80","361399","0.0-40.1-0.1","72209747","wem/bandit_party_1","A2COAUZ1TISD2Q","either","6","15321","","","","","","","","","","","","","","","","","","","","","","","","Equal amounts of money will be added to the pool for <span style='color:blue;'>DEMOCRATS</span> and subtracted from the pool for <span style='color:red;'>REPUBLICANS</span>","","","","","","","attn_check","","","","","","","","","2",""
"","survey-multi-choice-replacement","81","367747","0.0-41.0-0.0","72209747","wem/bandit_party_1","A2COAUZ1TISD2Q","either","6","5327","","","","","","","","","","","","","","","","","","","","","","","","No money will be added to either pool","","","","","","","attn_check","","","","","","","","","3",""
"","bandit","82","372577","0.0-42.0-0.0","72209747","wem/bandit_party_1","A2COAUZ1TISD2Q","either","6","2325","","","","","","","0","0","1","0.1720655487","","0.4","0.8","0.2","0.6","","","","","0.1720655487","0.4656478179","0.1734470434","0.06094066238","","","","","","","","","","72","H","0","img/none_selected.jpg","","1","main_expt","",""
"","bandit","83","375384","0.0-43.0-0.0","72209747","wem/bandit_party_1","A2COAUZ1TISD2Q","either","6","1304","","","","","","","0","0","1","0.4661883906","","0.4","0.8","0.2","0.6","","","","","0.1607886358","0.4661883906","0.1582158198","0.04941180107","","","","","","","","","","74","J","1","","","2","main_expt","",""
"","bandit","84","377280","0.0-44.0-0.0","72209747","wem/bandit_party_1","A2COAUZ1TISD2Q","either","6","393","","","","","","","0","1","0","","0.1264016625","0.4","0.8","0.2","0.6","0.1825924006","0.4608397999","0.1264016625","0.09066711981","","","","","","","","","","","","","","75","K","2","","","3","main_expt","",""
"","bandit","85","379240","0.0-45.0-0.0","72209747","wem/bandit_party_1","A2COAUZ1TISD2Q","either","6","457","","","","","","","0","0","1","","0.07815644495","0.4","0.8","0.2","0.6","0.1572982515","0.4568511376","0.1212924903","0.07815644495","","","","","","","","","","","","","","76","L","3","","","4","main_expt","",""
"","bandit","86","381512","0.0-46.0-0.0","72209747","wem/bandit_party_1","A2COAUZ1TISD2Q","either","6","769","","","","","","","0","0","1","0.1873501432","","0.4","0.8","0.2","0.6","","","","","0.1873501432","0.4576747282","0.1603104869","0.06547040057","","","","","","","","","","72","H","0","img/none_selected.jpg","","5","main_expt","",""
"","bandit","87","383371","0.0-47.0-0.0","72209747","wem/bandit_party_1","A2COAUZ1TISD2Q","either","6","354","","","","","","","0","0","1","","0.4673201091","0.4","0.8","0.2","0.6","0.1484719509","0.4673201091","0.1916070739","0.09500806419","","","","","","","","","","","","","","74","J","1","","","6","main_expt","",""
"","bandit","88","385232","0.0-48.0-0.0","72209747","wem/bandit_party_1","A2COAUZ1TISD2Q","either","6","358","","","","","","","0","0","1","0.1156714339","","0.4","0.8","0.2","0.6","","","","","0.1368680622","0.4671816856","0.1624213819","0.1156714339","","","","","","","","","","76","L","3","","","7","main_expt","",""
"","bandit","89","387376","0.0-49.0-0.0","72209747","wem/bandit_party_1","A2COAUZ1TISD2Q","either","6","641","","","","","","","0","0","1","","0.1529627983","0.4","0.8","0.2","0.6","0.1412197478","0.4577650209","0.1529627983","0.08939878806","","","","","","","","","","","","","","75","K","2","","","8","main_expt","",""
"","bandit","90","389152","0.0-50.0-0.0","72209747","wem/bandit_party_1","A2COAUZ1TISD2Q","either","6","274","","","","","","","0","0","1","","0.1285241668","0.4","0.8","0.2","0.6","0.1285241668","0.4538037209","0.1638779","0.1379609943","","","","","","","","","","","","","","72","H","0","img/none_selected.jpg","","9","main_expt","",""
"","bandit","91","391273","0.0-51.0-0.0","72209747","wem/bandit_party_1","A2COAUZ1TISD2Q","either","6","618","","","","","","","0","0","1","0.4567906288","","0.4","0.8","0.2","0.6","","","","","0.1137500729","0.4567906288","0.1682184418","0.08892925829","","","","","","","","","","74","J","1","","","10","main_expt","",""
"","bandit","92","393169","0.0-52.0-0.0","72209747","wem/bandit_party_1","A2COAUZ1TISD2Q","either","6","394","","","","","","","0","0","1","0.4707556997","","0.4","0.8","0.2","0.6","","","","","0.1134058804","0.4707556997","0.1511948373","0.1053961985","","","","","","","","","","74","J","1","","","11","main_expt","",""
"","bandit","93","395123","0.0-53.0-0.0","72209747","wem/bandit_party_1","A2COAUZ1TISD2Q","either","6","451","","","","","","","0","0","1","","0.2144966391","0.4","0.8","0.2","0.6","0.1358134986","0.4534589675","0.2144966391","0.1267534428","","","","","","","","","","","","","","75","K","2","","","12","main_expt","",""
"","bandit","94","396890","0.0-54.0-0.0","72209747","wem/bandit_party_1","A2COAUZ1TISD2Q","either","6","263","","","","","","","0","0","1","","0.1179877152","0.4","0.8","0.2","0.6","0.1105925571","0.4474824422","0.1443049275","0.1179877152","","","","","","","","","","","","","","76","L","3","","","13","main_expt","",""
"","bandit","95","398811","0.0-55.0-0.0","72209747","wem/bandit_party_1","A2COAUZ1TISD2Q","either","6","417","","","","","","","0","1","0","","0.09057326494","0.4","0.8","0.2","0.6","0.09057326494","0.4125602811","0.149160688","0.1300626215","","","","","","","","","","","","","","72","H","0","img/none_selected.jpg","","14","main_expt","",""
"","bandit","96","401258","0.0-56.0-0.0","72209747","wem/bandit_party_1","A2COAUZ1TISD2Q","either","6","944","","","","","","","0","0","1","","0.05963436345","0.4","0.8","0.2","0.6","0.05963436345","0.3715785473","0.1525333278","0.1129073675","","","","","","","","","","","","","","72","H","0","img/none_selected.jpg","","15","main_expt","",""
"","bandit","97","403409","0.0-57.0-0.0","72209747","wem/bandit_party_1","A2COAUZ1TISD2Q","either","6","648","","","","","","","0","0","1","","0.03970917029","0.4","0.8","0.2","0.6","0.03970917029","0.3670357029","0.1437253933","0.1132840383","","","","","","","","","","","","","","72","H","0","img/none_selected.jpg","","16","main_expt","",""
"","bandit","98","405508","0.0-58.0-0.0","72209747","wem/bandit_party_1","A2COAUZ1TISD2Q","either","6","594","","","","","","","0","0","1","","0.333794799","0.4","0.8","0.2","0.6","0.03301664506","0.333794799","0.1191274054","0.1530786807","","","","","","","","","","","","","","74","J","1","","","17","main_expt","",""
"","bandit","99","407393","0.0-59.0-0.0","72209747","wem/bandit_party_1","A2COAUZ1TISD2Q","either","6","383","","","","","","","0","0","1","","0.1231388663","0.4","0.8","0.2","0.6","0.0325619","0.3720862831","0.1231388663","0.1367655081","","","","","","","","","","","","","","75","K","2","","","18","main_expt","",""
"","bandit","100","409403","0.0-60.0-0.0","72209747","wem/bandit_party_1","A2COAUZ1TISD2Q","either","6","506","","","","","","","0","0","1","","0.1519969922","0.4","0.8","0.2","0.6","0.05136562407","0.3940248177","0.1014962652","0.1519969922","","","","","","","","","","","","","","76","L","3","","","19","main_expt","",""
"","bandit","101","411490","0.0-61.0-0.0","72209747","wem/bandit_party_1","A2COAUZ1TISD2Q","either","6","584","","","","","","","0","1","0","","0.05620034239","0.4","0.8","0.2","0.6","0.05620034239","0.3980303587","0.1184271466","0.2344823222","","","","","","","","","","","","","","72","H","0","img/none_selected.jpg","","20","main_expt","",""
"","bandit","102","413339","0.0-62.0-0.0","72209747","wem/bandit_party_1","A2COAUZ1TISD2Q","either","6","345","","","","","","","0","0","1","0.405953395","","0.4","0.8","0.2","0.6","","","","","0.04865895453","0.405953395","0.1434190777","0.2227593861","","","","","","","","","","74","J","1","","","21","main_expt","",""
"","bandit","103","415147","0.0-63.0-0.0","72209747","wem/bandit_party_1","A2COAUZ1TISD2Q","either","6","303","","","","","","","0","0","1","","0.1323354157","0.4","0.8","0.2","0.6","0.05276066643","0.37898799","0.1323354157","0.1831098024","","","","","","","","","","","","","","75","K","2","","","22","main_expt","",""
"","bandit","104","418044","0.0-64.0-0.0","72209747","wem/bandit_party_1","A2COAUZ1TISD2Q","either","6","1394","","","","","","","0","0","1","","0.05284133488","0.4","0.8","0.2","0.6","0.05284133488","0.3661255489","0.1384191998","0.1660310818","","","","","","","","","","","","","","72","H","0","img/none_selected.jpg","","23","main_expt","",""
"","bandit","105","419947","0.0-65.0-0.0","72209747","wem/bandit_party_1","A2COAUZ1TISD2Q","either","6","399","","","","","","","0","0","1","0.1400827643","","0.4","0.8","0.2","0.6","","","","","0.0333904923","0.3576379461","0.1395593146","0.1400827643","","","","","","","","","","76","L","3","","","24","main_expt","",""
"","bandit","106","423035","0.0-66.0-0.0","72209747","wem/bandit_party_1","A2COAUZ1TISD2Q","either","6","1584","","","","","","","0","0","1","0.04666446392","","0.4","0.8","0.2","0.6","","","","","0.04666446392","0.3346121782","0.1696236693","0.2022937807","","","","","","","","","","72","H","0","img/none_selected.jpg","","25","main_expt","",""
"","bandit","107","424563","0.0-67.0-0.0","72209747","wem/bandit_party_1","A2COAUZ1TISD2Q","either","6","24","","","","","","","1","0","0","0.3790434843","","0.4","0.8","0.2","0.6","","","","","0.04067930801","0.3790434843","0.1754084838","0.1725383963","","","","","","","","","","74","J","1","","","26","main_expt","",""
"","bandit","108","426416","0.0-68.0-0.0","72209747","wem/bandit_party_1","A2COAUZ1TISD2Q","either","6","345","","","","","","","0","0","1","0.3744762435","","0.4","0.8","0.2","0.6","","","","","0.03070036018","0.3744762435","0.118483546","0.1735642386","","","","","","","","","","74","J","1","","","27","main_expt","",""
"","bandit","109","428477","0.0-69.0-0.0","72209747","wem/bandit_party_1","A2COAUZ1TISD2Q","either","6","559","","","","","","","0","0","1","0.3650769418","","0.4","0.8","0.2","0.6","","","","","0.02292460278","0.3650769418","0.1259847853","0.149532802","","","","","","","","","","74","J","1","","","28","main_expt","",""
"","bandit","110","430415","0.0-70.0-0.0","72209747","wem/bandit_party_1","A2COAUZ1TISD2Q","either","6","423","","","","","","","1","0","0","0.3299345172","","0.4","0.8","0.2","0.6","","","","","0.03476379039","0.3299345172","0.1072727049","0.1597785082","","","","","","","","","","74","J","1","","","29","main_expt","",""
"","bandit","111","432620","0.0-71.0-0.0","72209747","wem/bandit_party_1","A2COAUZ1TISD2Q","either","6","701","","","","","","","1","0","0","0.3010095271","","0.4","0.8","0.2","0.6","","","","","0.04211589453","0.3010095271","0.07952930744","0.1978771271","","","","","","","","","","74","J","1","","","30","main_expt","",""
"","bandit","112","434620","0.0-72.0-0.0","72209747","wem/bandit_party_1","A2COAUZ1TISD2Q","either","6","496","","","","","","","1","0","0","0.331530841","","0.4","0.8","0.2","0.6","","","","","0.04495483672","0.331530841","0.09691030242","0.1928768267","","","","","","","","","","74","J","1","","","31","main_expt","",""
"","bandit","113","436468","0.0-73.0-0.0","72209747","wem/bandit_party_1","A2COAUZ1TISD2Q","either","6","345","","","","","","","0","1","0","","0.3469043085","0.4","0.8","0.2","0.6","0.04126869591","0.3469043085","0.1338720944","0.1511047494","","","","","","","","","","","","","","74","J","1","","","32","main_expt","",""
"","bandit","114","438380","0.0-74.0-0.0","72209747","wem/bandit_party_1","A2COAUZ1TISD2Q","either","6","408","","","","","","","0","0","1","0.2778139242","","0.4","0.8","0.2","0.6","","","","","0.02396570111","0.2778139242","0.1428203538","0.09247049486","","","","","","","","","","74","J","1","","","33","main_expt","",""
"","bandit","115","440133","0.0-75.0-0.0","72209747","wem/bandit_party_1","A2COAUZ1TISD2Q","either","6","250","","","","","","","0","0","1","0.236883459","","0.4","0.8","0.2","0.6","","","","","0.03561151332","0.236883459","0.1258169527","0.1127946788","","","","","","","","","","74","J","1","","","34","main_expt","",""
"","bandit","116","441956","0.0-76.0-0.0","72209747","wem/bandit_party_1","A2COAUZ1TISD2Q","either","6","320","","","","","","","1","0","0","0.2656196476","","0.4","0.8","0.2","0.6","","","","","0.04565222073","0.2656196476","0.1652362889","0.1279928094","","","","","","","","","","74","J","1","","","35","main_expt","",""
"","bandit","117","444022","0.0-77.0-0.0","72209747","wem/bandit_party_1","A2COAUZ1TISD2Q","either","6","562","","","","","","","0","0","1","0.2309028503","","0.4","0.8","0.2","0.6","","","","","0.05036449293","0.2309028503","0.1472348388","0.09285608896","","","","","","","","","","74","J","1","","","36","main_expt","",""
"","bandit","118","445573","0.0-78.0-0.0","72209747","wem/bandit_party_1","A2COAUZ1TISD2Q","either","6","48","","","","","","","0","0","1","0.1961267878","","0.4","0.8","0.2","0.6","","","","","0.04764774511","0.1961267878","0.20581188","0.1251507517","","","","","","","","","","74","J","1","","","37","main_expt","",""
"","bandit","119","447421","0.0-79.0-0.0","72209747","wem/bandit_party_1","A2COAUZ1TISD2Q","either","6","345","","","","","","","0","0","1","0.2197692452","","0.4","0.8","0.2","0.6","","","","","0.04692466818","0.2197692452","0.2096070571","0.1248439258","","","","","","","","","","74","J","1","","","38","main_expt","",""
"","bandit","120","449653","0.0-80.0-0.0","72209747","wem/bandit_party_1","A2COAUZ1TISD2Q","either","6","729","","","","","","","0","0","1","0.1783178102","","0.4","0.8","0.2","0.6","","","","","0.06150360576","0.1783178102","0.1888903691","0.1192858938","","","","","","","","","","74","J","1","","","39","main_expt","",""
"","bandit","121","452229","0.0-81.0-0.0","72209747","wem/bandit_party_1","A2COAUZ1TISD2Q","either","6","1073","","","","","","","0","0","1","","0.1354267005","0.4","0.8","0.2","0.6","0.1025324214","0.1354267005","0.1769314034","0.1457630933","","","","","","","","","","","","","","74","J","1","","","40","main_expt","",""
"","bandit","122","454069","0.0-82.0-0.0","72209747","wem/bandit_party_1","A2COAUZ1TISD2Q","either","6","337","","","","","","","0","0","1","0.1307301687","","0.4","0.8","0.2","0.6","","","","","0.1278282258","0.1307301687","0.1764673912","0.1788887836","","","","","","","","","","74","J","1","","","41","main_expt","",""
"","bandit","123","455886","0.0-83.0-0.0","72209747","wem/bandit_party_1","A2COAUZ1TISD2Q","either","6","313","","","","","","","0","0","1","0.1002459791","","0.4","0.8","0.2","0.6","","","","","0.1144783829","0.1002459791","0.1164002711","0.1550439797","","","","","","","","","","74","J","1","","","42","main_expt","",""
"","bandit","124","457765","0.0-84.0-0.0","72209747","wem/bandit_party_1","A2COAUZ1TISD2Q","either","6","375","","","","","","","0","0","1","0.06131682752","","0.4","0.8","0.2","0.6","","","","","0.148274456","0.06131682752","0.1248357276","0.1624336935","","","","","","","","","","74","J","1","","","43","main_expt","",""
"","bandit","125","459589","0.0-85.0-0.0","72209747","wem/bandit_party_1","A2COAUZ1TISD2Q","either","6","320","","","","","","","0","0","1","0.05757194937","","0.4","0.8","0.2","0.6","","","","","0.1733993608","0.05757194937","0.1801883524","0.2610419313","","","","","","","","","","74","J","1","","","44","main_expt","",""
"","bandit","126","461424","0.0-86.0-0.0","72209747","wem/bandit_party_1","A2COAUZ1TISD2Q","either","6","330","","","","","","","1","0","0","0.06317169253","","0.4","0.8","0.2","0.6","","","","","0.1731137141","0.06317169253","0.1536252234","0.2547096211","","","","","","","","","","74","J","1","","","45","main_expt","",""
"","bandit","127","463230","0.0-87.0-0.0","72209747","wem/bandit_party_1","A2COAUZ1TISD2Q","either","6","303","","","","","","","1","0","0","0.08604650327","","0.4","0.8","0.2","0.6","","","","","0.2577534017","0.08604650327","0.1453657368","0.2690630982","","","","","","","","","","74","J","1","","","46","main_expt","",""
"","bandit","128","465070","0.0-88.0-0.0","72209747","wem/bandit_party_1","A2COAUZ1TISD2Q","either","6","337","","","","","","","0","0","1","0.07503215105","","0.4","0.8","0.2","0.6","","","","","0.2436059896","0.07503215105","0.1163474927","0.2613787364","","","","","","","","","","74","J","1","","","47","main_expt","",""
"","bandit","129","466894","0.0-89.0-0.0","72209747","wem/bandit_party_1","A2COAUZ1TISD2Q","either","6","321","","","","","","","1","0","0","0.09661626413","","0.4","0.8","0.2","0.6","","","","","0.261356988","0.09661626413","0.1187671899","0.2764851171","","","","","","","","","","74","J","1","","","48","main_expt","",""
"","bandit","130","468710","0.0-90.0-0.0","72209747","wem/bandit_party_1","A2COAUZ1TISD2Q","either","6","313","","","","","","","0","0","1","0.141419135","","0.4","0.8","0.2","0.6","","","","","0.2707362224","0.141419135","0.1321787199","0.2628846066","","","","","","","","","","74","J","1","","","49","main_expt","",""
"","bandit","131","470542","0.0-91.0-0.0","72209747","wem/bandit_party_1","A2COAUZ1TISD2Q","either","6","329","","","","","","","0","0","1","","0.1341637883","0.4","0.8","0.2","0.6","0.2733601765","0.1341637883","0.1310663867","0.3634831931","","","","","","","","","","","","","","74","J","1","","","50","main_expt","",""
"","bandit","132","472432","0.0-92.0-0.0","72209747","wem/bandit_party_1","A2COAUZ1TISD2Q","either","6","387","","","","","","","0","0","1","0.1225974466","","0.4","0.8","0.2","0.6","","","","","0.2590969561","0.1225974466","0.1450472339","0.3771608335","","","","","","","","","","74","J","1","","","51","main_expt","",""
"","bandit","133","474302","0.0-93.0-0.0","72209747","wem/bandit_party_1","A2COAUZ1TISD2Q","either","6","366","","","","","","","0","0","1","","0.1145468474","0.4","0.8","0.2","0.6","0.2515646212","0.1145468474","0.1731775471","0.3093307572","","","","","","","","","","","","","","74","J","1","","","52","main_expt","",""
"","bandit","134","476750","0.0-94.0-0.0","72209747","wem/bandit_party_1","A2COAUZ1TISD2Q","either","6","945","","","","","","","0","0","1","0.1059564611","","0.4","0.8","0.2","0.6","","","","","0.2257746054","0.1059564611","0.2258016315","0.2990929044","","","","","","","","","","74","J","1","","","53","main_expt","",""
"","bandit","135","478607","0.0-95.0-0.0","72209747","wem/bandit_party_1","A2COAUZ1TISD2Q","either","6","354","","","","","","","0","0","1","","0.1090017536","0.4","0.8","0.2","0.6","0.2750925763","0.1090017536","0.2172527187","0.2221679908","","","","","","","","","","","","","","74","J","1","","","54","main_expt","",""
"","bandit","136","480431","0.0-96.0-0.0","72209747","wem/bandit_party_1","A2COAUZ1TISD2Q","either","6","321","","","","","","","0","0","1","0.1249444004","","0.4","0.8","0.2","0.6","","","","","0.3608357377","0.1249444004","0.1652356872","0.1886471815","","","","","","","","","","74","J","1","","","55","main_expt","",""
"","bandit","137","482136","0.0-97.0-0.0","72209747","wem/bandit_party_1","A2COAUZ1TISD2Q","either","6","201","","","","","","","0","0","1","0.09043885587","","0.4","0.8","0.2","0.6","","","","","0.4022545085","0.09043885587","0.1576418272","0.1973213641","","","","","","","","","","74","J","1","","","56","main_expt","",""
"","bandit","138","484041","0.0-98.0-0.0","72209747","wem/bandit_party_1","A2COAUZ1TISD2Q","either","6","401","","","","","","","0","0","1","0.07448640425","","0.4","0.8","0.2","0.6","","","","","0.3867568464","0.07448640425","0.180776926","0.2207101474","","","","","","","","","","74","J","1","","","57","main_expt","",""
"","bandit","139","485915","0.0-99.0-0.0","72209747","wem/bandit_party_1","A2COAUZ1TISD2Q","either","6","371","","","","","","","0","0","1","0.09808879237","","0.4","0.8","0.2","0.6","","","","","0.3840355114","0.09808879237","0.1489081552","0.2480089655","","","","","","","","","","74","J","1","","","58","main_expt","",""
"","bandit","140","487664","0.0-100.0-0.0","72209747","wem/bandit_party_1","A2COAUZ1TISD2Q","either","6","244","","","","","","","0","0","1","0.0721355853","","0.4","0.8","0.2","0.6","","","","","0.3617876187","0.0721355853","0.125555473","0.2667579505","","","","","","","","","","74","J","1","","","59","main_expt","",""
"","bandit","141","489512","0.0-101.0-0.0","72209747","wem/bandit_party_1","A2COAUZ1TISD2Q","either","6","343","","","","","","","0","0","1","0.08871326978","","0.4","0.8","0.2","0.6","","","","","0.3018070945","0.08871326978","0.1228814318","0.2637313595","","","","","","","","","","74","J","1","","","60","main_expt","",""
"","bandit","142","491368","0.0-102.0-0.0","72209747","wem/bandit_party_1","A2COAUZ1TISD2Q","either","6","352","","","","","","","0","0","1","0.1472383223","","0.4","0.8","0.2","0.6","","","","","0.2687465691","0.1472383223","0.195834737","0.2400462537","","","","","","","","","","74","J","1","","","61","main_expt","",""
"","bandit","143","493504","0.0-103.0-0.0","72209747","wem/bandit_party_1","A2COAUZ1TISD2Q","either","6","632","","","","","","","0","0","1","","0.1625866577","0.4","0.8","0.2","0.6","0.287622952","0.1625866577","0.1952904108","0.2396546157","","","","","","","","","","","","","","74","J","1","","","62","main_expt","",""
"","bandit","144","495273","0.0-104.0-0.0","72209747","wem/bandit_party_1","A2COAUZ1TISD2Q","either","6","266","","","","","","","0","0","1","0.1196153378","","0.4","0.8","0.2","0.6","","","","","0.2060093557","0.1196153378","0.187392073","0.2558687718","","","","","","","","","","74","J","1","","","63","main_expt","",""
"","bandit","145","497105","0.0-105.0-0.0","72209747","wem/bandit_party_1","A2COAUZ1TISD2Q","either","6","328","","","","","","","1","0","0","0.1025290435","","0.4","0.8","0.2","0.6","","","","","0.1865830226","0.1025290435","0.1774517964","0.1789331692","","","","","","","","","","74","J","1","","","64","main_expt","",""
"","bandit","146","498985","0.0-106.0-0.0","72209747","wem/bandit_party_1","A2COAUZ1TISD2Q","either","6","376","","","","","","","0","0","1","0.06637487434","","0.4","0.8","0.2","0.6","","","","","0.2242960511","0.06637487434","0.1956590225","0.2041721298","","","","","","","","","","74","J","1","","","65","main_expt","",""
"","bandit","147","500801","0.0-107.0-0.0","72209747","wem/bandit_party_1","A2COAUZ1TISD2Q","either","6","312","","","","","","","0","0","1","0.09888809835","","0.4","0.8","0.2","0.6","","","","","0.213739571","0.09888809835","0.1559932489","0.1083731131","","","","","","","","","","74","J","1","","","66","main_expt","",""
"","bandit","148","502601","0.0-108.0-0.0","72209747","wem/bandit_party_1","A2COAUZ1TISD2Q","either","6","295","","","","","","","0","0","1","0.08542348091","","0.4","0.8","0.2","0.6","","","","","0.2463093088","0.08542348091","0.1327283285","0.08148965902","","","","","","","","","","74","J","1","","","67","main_expt","",""
"","bandit","149","504489","0.0-109.0-0.0","72209747","wem/bandit_party_1","A2COAUZ1TISD2Q","either","6","384","","","","","","","0","0","1","0.05648132023","","0.4","0.8","0.2","0.6","","","","","0.1863602012","0.05648132023","0.1646421129","0.115871946","","","","","","","","","","74","J","1","","","68","main_expt","",""
"","bandit","150","506546","0.0-110.0-0.0","72209747","wem/bandit_party_1","A2COAUZ1TISD2Q","either","6","553","","","","","","","0","0","1","0.07427448495","","0.4","0.8","0.2","0.6","","","","","0.1481768435","0.07427448495","0.1879918005","0.1049465522","","","","","","","","","","74","J","1","","","69","main_expt","",""
"","bandit","151","508425","0.0-111.0-0.0","72209747","wem/bandit_party_1","A2COAUZ1TISD2Q","either","6","375","","","","","","","0","0","1","","0.1708527721","0.4","0.8","0.2","0.6","0.2062415021","0.1052870039","0.1708527721","0.1224614501","","","","","","","","","","","","","","75","K","2","","","70","main_expt","",""
"","bandit","152","510209","0.0-112.0-0.0","72209747","wem/bandit_party_1","A2COAUZ1TISD2Q","either","6","280","","","","","","","0","0","1","","0.1687358413","0.4","0.8","0.2","0.6","0.2175562698","0.1114501371","0.1930923514","0.1687358413","","","","","","","","","","","","","","76","L","3","","","71","main_expt","",""
"","bandit","153","512415","0.0-113.0-0.0","72209747","wem/bandit_party_1","A2COAUZ1TISD2Q","either","6","688","","","","","","","0","0","1","","0.2182173038","0.4","0.8","0.2","0.6","0.2182173038","0.1282799478","0.2289396243","0.1902964731","","","","","","","","","","","","","","72","H","0","img/none_selected.jpg","","72","main_expt","",""
"","bandit","154","514250","0.0-114.0-0.0","72209747","wem/bandit_party_1","A2COAUZ1TISD2Q","either","6","331","","","","","","","0","0","1","0.1629952044","","0.4","0.8","0.2","0.6","","","","","0.1629952044","0.1113050996","0.2223781067","0.1764690901","","","","","","","","","","72","H","0","img/none_selected.jpg","","73","main_expt","",""
"","bandit","155","516098","0.0-115.0-0.0","72209747","wem/bandit_party_1","A2COAUZ1TISD2Q","either","6","344","","","","","","","0","0","1","","0.2291178652","0.4","0.8","0.2","0.6","0.2291178652","0.1573287606","0.1664819569","0.1720288853","","","","","","","","","","","","","","72","H","0","img/none_selected.jpg","","74","main_expt","",""
"","bandit","156","517891","0.0-116.0-0.0","72209747","wem/bandit_party_1","A2COAUZ1TISD2Q","either","6","288","","","","","","","0","0","1","","0.2087405931","0.4","0.8","0.2","0.6","0.2087405931","0.168318459","0.1157276324","0.098780463","","","","","","","","","","","","","","72","H","0","img/none_selected.jpg","","75","main_expt","",""
"","bandit","157","519714","0.0-117.0-0.0","72209747","wem/bandit_party_1","A2COAUZ1TISD2Q","either","6","318","","","","","","","0","0","1","","0.1981976751","0.4","0.8","0.2","0.6","0.1981976751","0.131742089","0.06912044911","0.08192786134","","","","","","","","","","","","","","72","H","0","img/none_selected.jpg","","76","main_expt","",""
"","bandit","158","521522","0.0-118.0-0.0","72209747","wem/bandit_party_1","A2COAUZ1TISD2Q","either","6","304","","","","","","","0","0","1","0.1382621175","","0.4","0.8","0.2","0.6","","","","","0.2302368041","0.1382621175","0.06151132513","0.03620126105","","","","","","","","","","74","J","1","","","77","main_expt","",""
"","bandit","159","523626","0.0-119.0-0.0","72209747","wem/bandit_party_1","A2COAUZ1TISD2Q","either","6","600","","","","","","","0","0","1","0.1351161864","","0.4","0.8","0.2","0.6","","","","","0.2538269909","0.1351161864","0.08824794056","0.03362754592","","","","","","","","","","74","J","1","","","78","main_expt","",""
"","bandit","160","525154","0.0-120.0-0.0","72209747","wem/bandit_party_1","A2COAUZ1TISD2Q","either","6","24","","","","","","","0","0","1","0.1125986002","","0.4","0.8","0.2","0.6","","","","","0.221492582","0.1125986002","0.08425003046","0.03917851348","","","","","","","","","","74","J","1","","","79","main_expt","",""
"","bandit","161","526794","0.0-121.0-0.0","72209747","wem/bandit_party_1","A2COAUZ1TISD2Q","either","6","136","","","","","","","0","0","1","","0.1059393704","0.4","0.8","0.2","0.6","0.2126184008","0.1071358869","0.1059393704","0.06916691586","","","","","","","","","","","","","","75","K","2","","","80","main_expt","",""
"","bandit","162","528580","0.0-122.0-0.0","72209747","wem/bandit_party_1","A2COAUZ1TISD2Q","either","6","281","","","","","","","0","0","1","","0.114990546","0.4","0.8","0.2","0.6","0.1803612399","0.1410751298","0.114990546","0.1110223174","","","","","","","","","","","","","","75","K","2","","","81","main_expt","",""
"","bandit","163","530410","0.0-123.0-0.0","72209747","wem/bandit_party_1","A2COAUZ1TISD2Q","either","6","318","","","","","","","0","0","1","","0.1246300745","0.4","0.8","0.2","0.6","0.1883980103","0.1518454263","0.1246300745","0.08899533144","","","","","","","","","","","","","","75","K","2","","","82","main_expt","",""
"","bandit","164","532163","0.0-124.0-0.0","72209747","wem/bandit_party_1","A2COAUZ1TISD2Q","either","6","250","","","","","","","0","0","1","","0.1523433176","0.4","0.8","0.2","0.6","0.2099895667","0.1285150734","0.1523433176","0.1383499545","","","","","","","","","","","","","","75","K","2","","","83","main_expt","",""
"","bandit","165","533939","0.0-125.0-0.0","72209747","wem/bandit_party_1","A2COAUZ1TISD2Q","either","6","272","","","","","","","0","0","1","0.1230513595","","0.4","0.8","0.2","0.6","","","","","0.1760666055","0.1083679187","0.1230513595","0.1815119679","","","","","","","","","","75","K","2","","","84","main_expt","",""
"","bandit","166","535755","0.0-126.0-0.0","72209747","wem/bandit_party_1","A2COAUZ1TISD2Q","either","6","311","","","","","","","0","0","1","","0.08985983991","0.4","0.8","0.2","0.6","0.2077415988","0.08985983991","0.1460595132","0.2121304898","","","","","","","","","","","","","","74","J","1","","","85","main_expt","",""
"","bandit","167","537275","0.0-127.0-0.0","72209747","wem/bandit_party_1","A2COAUZ1TISD2Q","either","6","16","","","","","","","0","0","1","0.08377758623","","0.4","0.8","0.2","0.6","","","","","0.1940704576","0.08377758623","0.1578730034","0.1931166697","","","","","","","","","","74","J","1","","","86","main_expt","",""
"","bandit","168","539141","0.0-128.0-0.0","72209747","wem/bandit_party_1","A2COAUZ1TISD2Q","either","6","361","","","","","","","0","0","1","0.1908876969","","0.4","0.8","0.2","0.6","","","","","0.1920524506","0.08340742779","0.1329566931","0.1908876969","","","","","","","","","","76","L","3","","","87","main_expt","",""
"","bandit","169","541043","0.0-129.0-0.0","72209747","wem/bandit_party_1","A2COAUZ1TISD2Q","either","6","398","","","","","","","1","0","0","0.1727332377","","0.4","0.8","0.2","0.6","","","","","0.2525081946","0.06937011617","0.1156353122","0.1727332377","","","","","","","","","","76","L","3","","","88","main_expt","",""
"","bandit","170","542876","0.0-130.0-0.0","72209747","wem/bandit_party_1","A2COAUZ1TISD2Q","either","6","328","","","","","","","0","0","1","","0.1747664758","0.4","0.8","0.2","0.6","0.2476280913","0.08556693901","0.1169245856","0.1747664758","","","","","","","","","","","","","","76","L","3","","","89","main_expt","",""
"","bandit","171","544627","0.0-131.0-0.0","72209747","wem/bandit_party_1","A2COAUZ1TISD2Q","either","6","247","","","","","","","0","0","1","0.1302891894","","0.4","0.8","0.2","0.6","","","","","0.2476417222","0.1013294801","0.1276927611","0.1302891894","","","","","","","","","","76","L","3","","","90","main_expt","",""
"","bandit","172","546548","0.0-132.0-0.0","72209747","wem/bandit_party_1","A2COAUZ1TISD2Q","either","6","415","","","","","","","0","0","1","","0.1143331172","0.4","0.8","0.2","0.6","0.1875867431","0.1567130635","0.1633868825","0.1143331172","","","","","","","","","","","","","","76","L","3","","","91","main_expt","",""
"","bandit","173","548348","0.0-133.0-0.0","72209747","wem/bandit_party_1","A2COAUZ1TISD2Q","either","6","295","","","","","","","0","0","1","","0.1674068059","0.4","0.8","0.2","0.6","0.1804963823","0.1214255195","0.2172033847","0.1674068059","","","","","","","","","","","","","","76","L","3","","","92","main_expt","",""
"","bandit","174","550158","0.0-134.0-0.0","72209747","wem/bandit_party_1","A2COAUZ1TISD2Q","either","6","305","","","","","","","0","0","1","0.1405005834","","0.4","0.8","0.2","0.6","","","","","0.1468121695","0.1317465968","0.2178255547","0.1405005834","","","","","","","","","","76","L","3","","","93","main_expt","",""
"","bandit","175","551940","0.0-135.0-0.0","72209747","wem/bandit_party_1","A2COAUZ1TISD2Q","either","6","278","","","","","","","0","0","1","","0.1338278818","0.4","0.8","0.2","0.6","0.1270151289","0.1810196293","0.2058786334","0.1338278818","","","","","","","","","","","","","","76","L","3","","","94","main_expt","",""
"","bandit","176","553916","0.0-136.0-0.0","72209747","wem/bandit_party_1","A2COAUZ1TISD2Q","either","6","472","","","","","","","0","0","1","","0.16416917","0.4","0.8","0.2","0.6","0.1049494322","0.1537803575","0.2009860572","0.16416917","","","","","","","","","","","","","","76","L","3","","","95","main_expt","",""
"","bandit","177","555756","0.0-137.0-0.0","72209747","wem/bandit_party_1","A2COAUZ1TISD2Q","either","6","336","","","","","","","0","0","1","","0.1075549125","0.4","0.8","0.2","0.6","0.1242023773","0.2255368078","0.2792576191","0.1075549125","","","","","","","","","","","","","","76","L","3","","","96","main_expt","",""
"","bandit","178","557580","0.0-138.0-0.0","72209747","wem/bandit_party_1","A2COAUZ1TISD2Q","either","6","320","","","","","","","1","0","0","0.07285617598","","0.4","0.8","0.2","0.6","","","","","0.101802889","0.1881791955","0.291042229","0.07285617598","","","","","","","","","","76","L","3","","","97","main_expt","",""
"","bandit","179","559416","0.0-139.0-0.0","72209747","wem/bandit_party_1","A2COAUZ1TISD2Q","either","6","328","","","","","","","0","0","1","","0.1128802937","0.4","0.8","0.2","0.6","0.08559904752","0.1722186849","0.2919937097","0.1128802937","","","","","","","","","","","","","","76","L","3","","","98","main_expt","",""
"","bandit","180","561222","0.0-140.0-0.0","72209747","wem/bandit_party_1","A2COAUZ1TISD2Q","either","6","301","","","","","","","0","0","1","0.07338875894","","0.4","0.8","0.2","0.6","","","","","0.04480153982","0.2581810796","0.338066437","0.07338875894","","","","","","","","","","76","L","3","","","99","main_expt","",""
"","bandit","181","563061","0.0-141.0-0.0","72209747","wem/bandit_party_1","A2COAUZ1TISD2Q","either","6","334","","","","","","","0","0","1","0.06256672301","","0.4","0.8","0.2","0.6","","","","","0.03694367041","0.3094702251","0.3466775547","0.06256672301","","","","","","","","","","76","L","3","","","100","main_expt","",""
"","bandit","182","564886","0.0-142.0-0.0","72209747","wem/bandit_party_1","A2COAUZ1TISD2Q","either","6","320","","","","","","","0","0","1","","0.06765033746","0.4","0.8","0.2","0.6","0.02534596886","0.3217449289","0.3776837944","0.06765033746","","","","","","","","","","","","","","76","L","3","","","101","main_expt","",""
"","bandit","183","566630","0.0-143.0-0.0","72209747","wem/bandit_party_1","A2COAUZ1TISD2Q","either","6","239","","","","","","","0","0","1","","0.08460413752","0.4","0.8","0.2","0.6","0.03456503798","0.3656493725","0.3988278911","0.08460413752","","","","","","","","","","","","","","76","L","3","","","102","main_expt","",""
"","bandit","184","568429","0.0-144.0-0.0","72209747","wem/bandit_party_1","A2COAUZ1TISD2Q","either","6","293","","","","","","","1","0","0","0.1149622558","","0.4","0.8","0.2","0.6","","","","","0.03116272615","0.4097417878","0.3642388176","0.1149622558","","","","","","","","","","76","L","3","","","103","main_expt","",""
"","bandit","185","570261","0.0-145.0-0.0","72209747","wem/bandit_party_1","A2COAUZ1TISD2Q","either","6","327","","","","","","","0","0","1","","0.1223821921","0.4","0.8","0.2","0.6","0.04034009898","0.4005896235","0.3059376685","0.1223821921","","","","","","","","","","","","","","76","L","3","","","104","main_expt","",""
"","bandit","186","572022","0.0-146.0-0.0","72209747","wem/bandit_party_1","A2COAUZ1TISD2Q","either","6","257","","","","","","","0","0","1","0.1302837569","","0.4","0.8","0.2","0.6","","","","","0.06132200156","0.3967946647","0.2658022239","0.1302837569","","","","","","","","","","76","L","3","","","105","main_expt","",""
"","bandit","187","573797","0.0-147.0-0.0","72209747","wem/bandit_party_1","A2COAUZ1TISD2Q","either","6","270","","","","","","","0","0","1","0.1405927316","","0.4","0.8","0.2","0.6","","","","","0.03171667797","0.3920329447","0.2583534607","0.1405927316","","","","","","","","","","76","L","3","","","106","main_expt","",""
"","bandit","188","575525","0.0-148.0-0.0","72209747","wem/bandit_party_1","A2COAUZ1TISD2Q","either","6","223","","","","","","","0","0","1","0.1835021143","","0.4","0.8","0.2","0.6","","","","","0.06603394544","0.3973329777","0.2402432731","0.1835021143","","","","","","","","","","76","L","3","","","107","main_expt","",""
"","bandit","189","577357","0.0-149.0-0.0","72209747","wem/bandit_party_1","A2COAUZ1TISD2Q","either","6","327","","","","","","","0","0","1","","0.2124513917","0.4","0.8","0.2","0.6","0.08137973005","0.3839010997","0.2364509509","0.2124513917","","","","","","","","","","","","","","76","L","3","","","108","main_expt","",""
"","bandit","190","580309","0.0-150.0-0.0","72209747","wem/bandit_party_1","A2COAUZ1TISD2Q","either","6","1447","","","","","","","0","0","1","0.218007314","","0.4","0.8","0.2","0.6","","","","","0.04765661509","0.3879107289","0.2164051194","0.218007314","","","","","","","","","","76","L","3","","","109","main_expt","",""
"","bandit","191","582126","0.0-151.0-0.0","72209747","wem/bandit_party_1","A2COAUZ1TISD2Q","either","6","313","","","","","","","0","0","1","0.229469423","","0.4","0.8","0.2","0.6","","","","","0.06789381979","0.3989855113","0.1611838666","0.229469423","","","","","","","","","","76","L","3","","","110","main_expt","",""
"","bandit","192","584158","0.0-152.0-0.0","72209747","wem/bandit_party_1","A2COAUZ1TISD2Q","either","6","527","","","","","","","1","0","0","0.2923436213","","0.4","0.8","0.2","0.6","","","","","0.08972795074","0.3959495959","0.2042622235","0.2923436213","","","","","","","","","","76","L","3","","","111","main_expt","",""
"","bandit","193","585998","0.0-153.0-0.0","72209747","wem/bandit_party_1","A2COAUZ1TISD2Q","either","6","335","","","","","","","0","0","1","0.2778802509","","0.4","0.8","0.2","0.6","","","","","0.1176683061","0.335596647","0.2113733305","0.2778802509","","","","","","","","","","76","L","3","","","112","main_expt","",""
"","bandit","194","588518","0.0-154.0-0.0","72209747","wem/bandit_party_1","A2COAUZ1TISD2Q","either","6","1015","","","","","","","0","0","1","","0.2852166322","0.4","0.8","0.2","0.6","0.1973953549","0.2876347753","0.220236308","0.2852166322","","","","","","","","","","","","","","76","L","3","","","113","main_expt","",""
"","bandit","195","590614","0.0-155.0-0.0","72209747","wem/bandit_party_1","A2COAUZ1TISD2Q","either","6","592","","","","","","","0","0","1","0.3222351196","","0.4","0.8","0.2","0.6","","","","","0.200840576","0.2811359795","0.2453392608","0.3222351196","","","","","","","","","","76","L","3","","","114","main_expt","",""
"","bandit","196","592463","0.0-156.0-0.0","72209747","wem/bandit_party_1","A2COAUZ1TISD2Q","either","6","345","","","","","","","0","0","1","","0.2865303103","0.4","0.8","0.2","0.6","0.2544006126","0.2056035349","0.2311931225","0.2865303103","","","","","","","","","","","","","","76","L","3","","","115","main_expt","",""
"","bandit","197","594294","0.0-157.0-0.0","72209747","wem/bandit_party_1","A2COAUZ1TISD2Q","either","6","327","","","","","","","0","0","1","","0.1901772154","0.4","0.8","0.2","0.6","0.2264812366","0.2435386161","0.2290532582","0.1901772154","","","","","","","","","","","","","","76","L","3","","","116","main_expt","",""
"","bandit","198","596086","0.0-158.0-0.0","72209747","wem/bandit_party_1","A2COAUZ1TISD2Q","either","6","288","","","","","","","0","0","1","0.1854727963","","0.4","0.8","0.2","0.6","","","","","0.2535822563","0.2523066444","0.2610634121","0.1854727963","","","","","","","","","","76","L","3","","","117","main_expt","",""
"","bandit","199","597915","0.0-159.0-0.0","72209747","wem/bandit_party_1","A2COAUZ1TISD2Q","either","6","323","","","","","","","0","0","1","0.223078523","","0.4","0.8","0.2","0.6","","","","","0.288462609","0.258758296","0.2915584027","0.223078523","","","","","","","","","","76","L","3","","","118","main_expt","",""
"","bandit","200","599702","0.0-160.0-0.0","72209747","wem/bandit_party_1","A2COAUZ1TISD2Q","either","6","283","","","","","","","0","0","1","0.2157898803","","0.4","0.8","0.2","0.6","","","","","0.3077733757","0.2513882557","0.3240034744","0.2157898803","","","","","","","","","","76","L","3","","","119","main_expt","",""
"","bandit","201","601799","0.0-161.0-0.0","72209747","wem/bandit_party_1","A2COAUZ1TISD2Q","either","6","593","","","","","","","0","0","1","","0.2055853597","0.4","0.8","0.2","0.6","0.3470363664","0.2178230887","0.3584552205","0.2055853597","","","","","","","","","","","","","","76","L","3","","","120","main_expt","",""
"","bandit","202","603696","0.0-162.0-0.0","72209747","wem/bandit_party_1","A2COAUZ1TISD2Q","either","6","393","","","","","","","0","0","1","0.2308362602","","0.4","0.8","0.2","0.6","","","","","0.36369082","0.2249913612","0.3392259721","0.2308362602","","","","","","","","","","76","L","3","","","121","main_expt","",""
"","bandit","203","605599","0.0-163.0-0.0","72209747","wem/bandit_party_1","A2COAUZ1TISD2Q","either","6","399","","","","","","","0","0","1","","0.1858821776","0.4","0.8","0.2","0.6","0.3740977319","0.2135386538","0.3211990091","0.1858821776","","","","","","","","","","","","","","76","L","3","","","122","main_expt","",""
"","bandit","204","608143","0.0-164.0-0.0","72209747","wem/bandit_party_1","A2COAUZ1TISD2Q","either","6","1040","","","","","","","0","0","1","0.3617230251","","0.4","0.8","0.2","0.6","","","","","0.3617230251","0.2742148462","0.3082515077","0.1948645322","","","","","","","","","","72","H","0","img/none_selected.jpg","","123","main_expt","",""
"","bandit","205","609935","0.0-165.0-0.0","72209747","wem/bandit_party_1","A2COAUZ1TISD2Q","either","6","288","","","","","","","0","0","1","0.3092488957","","0.4","0.8","0.2","0.6","","","","","0.3189133642","0.3092488957","0.3337980485","0.1875433284","","","","","","","","","","74","J","1","","","124","main_expt","",""
"","bandit","206","611767","0.0-166.0-0.0","72209747","wem/bandit_party_1","A2COAUZ1TISD2Q","either","6","328","","","","","","","0","0","1","","0.3134342975","0.4","0.8","0.2","0.6","0.3134342975","0.2832498899","0.2815584253","0.1805360773","","","","","","","","","","","","","","72","H","0","img/none_selected.jpg","","125","main_expt","",""
"","bandit","207","613784","0.0-167.0-0.0","72209747","wem/bandit_party_1","A2COAUZ1TISD2Q","either","6","513","","","","","","","0","0","1","0.2199741614","","0.4","0.8","0.2","0.6","","","","","0.2889117865","0.321902755","0.2544389989","0.2199741614","","","","","","","","","","76","L","3","","","126","main_expt","",""
"","bandit","208","615671","0.0-168.0-0.0","72209747","wem/bandit_party_1","A2COAUZ1TISD2Q","either","6","383","","","","","","","0","0","1","","0.217883989","0.4","0.8","0.2","0.6","0.3101500906","0.3163630435","0.217883989","0.212963778","","","","","","","","","","","","","","75","K","2","","","127","main_expt","",""
"","bandit","209","618745","0.0-169.0-0.0","72209747","wem/bandit_party_1","A2COAUZ1TISD2Q","either","6","1569","","","","","","","0","0","1","0.3257933697","","0.4","0.8","0.2","0.6","","","","","0.3257933697","0.3242789072","0.1941215274","0.1853882534","","","","","","","","","","72","H","0","img/none_selected.jpg","","128","main_expt","",""
"","bandit","210","620288","0.0-170.0-0.0","72209747","wem/bandit_party_1","A2COAUZ1TISD2Q","either","6","38","","","","","","","0","0","1","","0.2767822115","0.4","0.8","0.2","0.6","0.2767822115","0.3430844202","0.2093197904","0.1486900389","","","","","","","","","","","","","","72","H","0","img/none_selected.jpg","","129","main_expt","",""
"","bandit","211","622096","0.0-171.0-0.0","72209747","wem/bandit_party_1","A2COAUZ1TISD2Q","either","6","304","","","","","","","0","1","0","","0.3389859305","0.4","0.8","0.2","0.6","0.3389859305","0.3487272729","0.2325895014","0.1581202816","","","","","","","","","","","","","","72","H","0","img/none_selected.jpg","","130","main_expt","",""
"","bandit","212","624673","0.0-172.0-0.0","72209747","wem/bandit_party_1","A2COAUZ1TISD2Q","either","6","1073","","","","","","","0","1","0","","0.2680880231","0.4","0.8","0.2","0.6","0.2807576759","0.3850752379","0.2680880231","0.1189605486","","","","","","","","","","","","","","75","K","2","","","131","main_expt","",""
"","bandit","213","626881","0.0-173.0-0.0","72209747","wem/bandit_party_1","A2COAUZ1TISD2Q","either","6","703","","","","","","","0","0","1","","0.08638656351","0.4","0.8","0.2","0.6","0.2044414959","0.3547422913","0.2053564998","0.08638656351","","","","","","","","","","","","","","76","L","3","","","132","main_expt","",""
"","bandit","214","628641","0.0-174.0-0.0","72209747","wem/bandit_party_1","A2COAUZ1TISD2Q","either","6","256","","","","","","","0","0","1","","0.104542274","0.4","0.8","0.2","0.6","0.2352631215","0.3256782816","0.2102644512","0.104542274","","","","","","","","","","","","","","76","L","3","","","133","main_expt","",""
"","bandit","215","630229","0.0-175.0-0.0","72209747","wem/bandit_party_1","A2COAUZ1TISD2Q","either","6","83","","","","","","","0","0","1","0.1401790922","","0.4","0.8","0.2","0.6","","","","","0.2808822736","0.2479378245","0.2028105977","0.1401790922","","","","","","","","","","76","L","3","","","134","main_expt","",""
"","bandit","216","631835","0.0-176.0-0.0","72209747","wem/bandit_party_1","A2COAUZ1TISD2Q","either","6","100","","","","","","","1","0","0","0.24301602","","0.4","0.8","0.2","0.6","","","","","0.3053704558","0.24301602","0.1556880781","0.1818128853","","","","","","","","","","74","J","1","","","135","main_expt","",""
"","bandit","217","633890","0.0-177.0-0.0","72209747","wem/bandit_party_1","A2COAUZ1TISD2Q","either","6","549","","","","","","","0","0","1","0.2630427063","","0.4","0.8","0.2","0.6","","","","","0.3140058771","0.2630427063","0.1428421262","0.1583738081","","","","","","","","","","74","J","1","","","136","main_expt","",""
"","bandit","218","635739","0.0-178.0-0.0","72209747","wem/bandit_party_1","A2COAUZ1TISD2Q","either","6","343","","","","","","","0","0","1","0.3053425806","","0.4","0.8","0.2","0.6","","","","","0.323699752","0.3053425806","0.1039390038","0.1497920091","","","","","","","","","","74","J","1","","","137","main_expt","",""
"","bandit","219","637450","0.0-179.0-0.0","72209747","wem/bandit_party_1","A2COAUZ1TISD2Q","either","6","207","","","","","","","1","0","0","0.3588623722","","0.4","0.8","0.2","0.6","","","","","0.3435108126","0.3588623722","0.07132433681","0.1128601551","","","","","","","","","","74","J","1","","","138","main_expt","",""
"","bandit","220","639314","0.0-180.0-0.0","72209747","wem/bandit_party_1","A2COAUZ1TISD2Q","either","6","360","","","","","","","0","0","1","0.2762704672","","0.4","0.8","0.2","0.6","","","","","0.3505637202","0.2762704672","0.1047165976","0.1073604677","","","","","","","","","","74","J","1","","","139","main_expt","",""
"","bandit","221","642259","0.0-181.0-0.0","72209747","wem/bandit_party_1","A2COAUZ1TISD2Q","either","6","1440","","","","","","","1","0","0","0.2475753012","","0.4","0.8","0.2","0.6","","","","","0.4185251601","0.2475753012","0.09043849554","0.1376710563","","","","","","","","","","74","J","1","","","140","main_expt","",""
"","bandit","222","644123","0.0-182.0-0.0","72209747","wem/bandit_party_1","A2COAUZ1TISD2Q","either","6","359","","","","","","","1","0","0","0.2436306075","","0.4","0.8","0.2","0.6","","","","","0.4225289085","0.2436306075","0.05096505815","0.1412662962","","","","","","","","","","74","J","1","","","141","main_expt","",""
"","bandit","223","645948","0.0-183.0-0.0","72209747","wem/bandit_party_1","A2COAUZ1TISD2Q","either","6","320","","","","","","","0","0","1","0.1998899021","","0.4","0.8","0.2","0.6","","","","","0.455259632","0.1998899021","0.02973759478","0.1543424817","","","","","","","","","","74","J","1","","","142","main_expt","",""
"","bandit","224","647947","0.0-184.0-0.0","72209747","wem/bandit_party_1","A2COAUZ1TISD2Q","either","6","494","","","","","","","0","0","1","0.2568100034","","0.4","0.8","0.2","0.6","","","","","0.4287003803","0.2568100034","0.04457260366","0.1552636118","","","","","","","","","","74","J","1","","","143","main_expt","",""
"","bandit","225","649859","0.0-185.0-0.0","72209747","wem/bandit_party_1","A2COAUZ1TISD2Q","either","6","406","","","","","","","0","0","1","0.2859833531","","0.4","0.8","0.2","0.6","","","","","0.4260506414","0.2859833531","0.04060115041","0.2241753426","","","","","","","","","","74","J","1","","","144","main_expt","",""
"","bandit","226","652820","0.0-186.0-0.0","72209747","wem/bandit_party_1","A2COAUZ1TISD2Q","either","6","1455","","","","","","","0","1","0","","0.2080640158","0.4","0.8","0.2","0.6","0.4202170594","0.2080640158","0.06712401514","0.2484131349","","","","","","","","","","","","","","74","J","1","","","145","main_expt","",""
"","bandit","227","655172","0.0-187.0-0.0","72209747","wem/bandit_party_1","A2COAUZ1TISD2Q","either","6","845","","","","","","","0","0","1","0.2469639643","","0.4","0.8","0.2","0.6","","","","","0.4333226383","0.2469639643","0.08780921534","0.2905032103","","","","","","","","","","74","J","1","","","146","main_expt","",""
"","bandit","228","656701","0.0-188.0-0.0","72209747","wem/bandit_party_1","A2COAUZ1TISD2Q","either","6","24","","","","","","","0","0","1","0.2169279296","","0.4","0.8","0.2","0.6","","","","","0.4340954059","0.2169279296","0.1333368233","0.2846703457","","","","","","","","","","74","J","1","","","147","main_expt","",""
"","bandit","229","659508","0.0-189.0-0.0","72209747","wem/bandit_party_1","A2COAUZ1TISD2Q","either","6","1301","","","","","","","0","0","1","0.1248284812","","0.4","0.8","0.2","0.6","","","","","0.3903754431","0.1248284812","0.09264147873","0.3010433131","","","","","","","","","","74","J","1","","","148","main_expt","",""
"","bandit","230","661564","0.0-190.0-0.0","72209747","wem/bandit_party_1","A2COAUZ1TISD2Q","either","6","550","","","","","","","0","0","1","0.1498862571","","0.4","0.8","0.2","0.6","","","","","0.4161192262","0.1498862571","0.123708687","0.3421268102","","","","","","","","","","74","J","1","","","149","main_expt","",""
"","bandit","231","663316","0.0-191.0-0.0","72209747","wem/bandit_party_1","A2COAUZ1TISD2Q","either","6","246","","","","","","","0","0","1","0.2044632824","","0.4","0.8","0.2","0.6","","","","","0.4545257836","0.2044632824","0.1087811601","0.3382865341","","","","","","","","","","74","J","1","","","150","main_expt","",""
"","bandit","232","665420","0.0-192.0-0.0","72209747","wem/bandit_party_1","A2COAUZ1TISD2Q","either","6","598","","","","","","","0","0","1","","0.1630699797","0.4","0.8","0.2","0.6","0.4553704948","0.1630699797","0.1640336927","0.3031951358","","","","","","","","","","","","","","74","J","1","","","151","main_expt","",""
"","bandit","233","667293","0.0-193.0-0.0","72209747","wem/bandit_party_1","A2COAUZ1TISD2Q","either","6","368","","","","","","","1","0","0","0.1534962237","","0.4","0.8","0.2","0.6","","","","","0.4692720684","0.1534962237","0.1474195158","0.3163498213","","","","","","","","","","74","J","1","","","152","main_expt","",""
"","bandit","234","669284","0.0-194.0-0.0","72209747","wem/bandit_party_1","A2COAUZ1TISD2Q","either","6","485","","","","","","","0","0","1","0.1506701345","","0.4","0.8","0.2","0.6","","","","","0.4794448159","0.1506701345","0.1200421148","0.3205280093","","","","","","","","","","74","J","1","","","153","main_expt","",""
"","bandit","235","670868","0.0-195.0-0.0","72209747","wem/bandit_party_1","A2COAUZ1TISD2Q","either","6","78","","","","","","","1","0","0","0.1810992197","","0.4","0.8","0.2","0.6","","","","","0.4762011242","0.1810992197","0.1295208369","0.2780981807","","","","","","","","","","74","J","1","","","154","main_expt","",""
"","bandit","236","672917","0.0-196.0-0.0","72209747","wem/bandit_party_1","A2COAUZ1TISD2Q","either","6","544","","","","","","","0","0","1","0.2574031695","","0.4","0.8","0.2","0.6","","","","","0.4797315341","0.2574031695","0.1189574303","0.2543788853","","","","","","","","","","74","J","1","","","155","main_expt","",""
"","bandit","237","674965","0.0-197.0-0.0","72209747","wem/bandit_party_1","A2COAUZ1TISD2Q","either","6","543","","","","","","","1","0","0","0.1838662476","","0.4","0.8","0.2","0.6","","","","","0.4815153028","0.1838662476","0.1511338071","0.2601772157","","","","","","","","","","74","J","1","","","156","main_expt","",""
"","bandit","238","676933","0.0-198.0-0.0","72209747","wem/bandit_party_1","A2COAUZ1TISD2Q","either","6","463","","","","","","","1","0","0","0.1951262555","","0.4","0.8","0.2","0.6","","","","","0.4769669351","0.1951262555","0.1494559257","0.27050514","","","","","","","","","","74","J","1","","","157","main_expt","",""
"","bandit","239","678749","0.0-199.0-0.0","72209747","wem/bandit_party_1","A2COAUZ1TISD2Q","either","6","311","","","","","","","0","0","1","","0.1711173681","0.4","0.8","0.2","0.6","0.4819637572","0.1711173681","0.1398300683","0.2912044809","","","","","","","","","","","","","","74","J","1","","","158","main_expt","",""
"","bandit","240","680581","0.0-200.0-0.0","72209747","wem/bandit_party_1","A2COAUZ1TISD2Q","either","6","327","","","","","","","0","0","1","0.1262927185","","0.4","0.8","0.2","0.6","","","","","0.4802617926","0.1262927185","0.1482700517","0.2863852675","","","","","","","","","","74","J","1","","","159","main_expt","",""
"","bandit","241","682415","0.0-201.0-0.0","72209747","wem/bandit_party_1","A2COAUZ1TISD2Q","either","6","327","","","","","","","0","0","1","0.1289005464","","0.4","0.8","0.2","0.6","","","","","0.4834703177","0.1289005464","0.1327856751","0.3188379944","","","","","","","","","","74","J","1","","","160","main_expt","",""
"","bandit","242","684253","0.0-202.0-0.0","72209747","wem/bandit_party_1","A2COAUZ1TISD2Q","either","6","334","","","","","","","0","0","1","0.07062595825","","0.4","0.8","0.2","0.6","","","","","0.4783639554","0.07062595825","0.1936248495","0.3918259889","","","","","","","","","","74","J","1","","","161","main_expt","",""
"","bandit","243","686125","0.0-203.0-0.0","72209747","wem/bandit_party_1","A2COAUZ1TISD2Q","either","6","366","","","","","","","0","0","1","0.08554885259","","0.4","0.8","0.2","0.6","","","","","0.4702379588","0.08554885259","0.1917288119","0.3825352776","","","","","","","","","","74","J","1","","","162","main_expt","",""
"","bandit","244","688063","0.0-204.0-0.0","72209747","wem/bandit_party_1","A2COAUZ1TISD2Q","either","6","432","","","","","","","0","0","1","0.05790820845","","0.4","0.8","0.2","0.6","","","","","0.4761999765","0.05790820845","0.2410074379","0.3500114378","","","","","","","","","","74","J","1","","","163","main_expt","",""
"","bandit","245","690046","0.0-205.0-0.0","72209747","wem/bandit_party_1","A2COAUZ1TISD2Q","either","6","478","","","","","","","0","0","1","0.04744410613","","0.4","0.8","0.2","0.6","","","","","0.4683988395","0.04744410613","0.2717164652","0.3138306729","","","","","","","","","","74","J","1","","","164","main_expt","",""
"","bandit","246","691758","0.0-206.0-0.0","72209747","wem/bandit_party_1","A2COAUZ1TISD2Q","either","6","207","","","","","","","0","0","1","0.07721988326","","0.4","0.8","0.2","0.6","","","","","0.4594806004","0.07721988326","0.3360488911","0.3066591237","","","","","","","","","","74","J","1","","","165","main_expt","",""
"","bandit","247","693598","0.0-207.0-0.0","72209747","wem/bandit_party_1","A2COAUZ1TISD2Q","either","6","335","","","","","","","0","0","1","","0.09276645858","0.4","0.8","0.2","0.6","0.4769271284","0.09276645858","0.3288768439","0.359337808","","","","","","","","","","","","","","74","J","1","","","166","main_expt","",""
"","bandit","248","695438","0.0-208.0-0.0","72209747","wem/bandit_party_1","A2COAUZ1TISD2Q","either","6","335","","","","","","","1","0","0","0.1092251717","","0.4","0.8","0.2","0.6","","","","","0.4824675089","0.1092251717","0.341079324","0.3888119778","","","","","","","","","","74","J","1","","","167","main_expt","",""
"","bandit","249","697358","0.0-209.0-0.0","72209747","wem/bandit_party_1","A2COAUZ1TISD2Q","either","6","415","","","","","","","0","0","1","","0.09704797424","0.4","0.8","0.2","0.6","0.4731218304","0.09704797424","0.2972081376","0.3188253523","","","","","","","","","","","","","","74","J","1","","","168","main_expt","",""
"","bandit","250","699190","0.0-210.0-0.0","72209747","wem/bandit_party_1","A2COAUZ1TISD2Q","either","6","327","","","","","","","0","0","1","0.1131958007","","0.4","0.8","0.2","0.6","","","","","0.4558692975","0.1131958007","0.2716537329","0.3035082617","","","","","","","","","","74","J","1","","","169","main_expt","",""
"","bandit","251","701038","0.0-211.0-0.0","72209747","wem/bandit_party_1","A2COAUZ1TISD2Q","either","6","343","","","","","","","0","0","1","","0.1636150477","0.4","0.8","0.2","0.6","0.424927817","0.1636150477","0.3705489528","0.3540810543","","","","","","","","","","","","","","74","J","1","","","170","main_expt","",""
"","bandit","252","702888","0.0-212.0-0.0","72209747","wem/bandit_party_1","A2COAUZ1TISD2Q","either","6","343","","","","","","","0","0","1","0.1889182236","","0.4","0.8","0.2","0.6","","","","","0.4254050478","0.1889182236","0.3259531709","0.2912941695","","","","","","","","","","74","J","1","","","171","main_expt","",""
"","bandit","253","704727","0.0-213.0-0.0","72209747","wem/bandit_party_1","A2COAUZ1TISD2Q","either","6","332","","","","","","","0","0","1","0.1494540944","","0.4","0.8","0.2","0.6","","","","","0.4319935488","0.1494540944","0.3253578443","0.2964718019","","","","","","","","","","74","J","1","","","172","main_expt","",""
"","bandit","254","706543","0.0-214.0-0.0","72209747","wem/bandit_party_1","A2COAUZ1TISD2Q","either","6","311","","","","","","","0","0","1","0.1700291406","","0.4","0.8","0.2","0.6","","","","","0.4157756128","0.1700291406","0.3133285256","0.2411205861","","","","","","","","","","74","J","1","","","173","main_expt","",""
"","bandit","255","708777","0.0-215.0-0.0","72209747","wem/bandit_party_1","A2COAUZ1TISD2Q","either","6","728","","","","","","","1","0","0","0.2007600912","","0.4","0.8","0.2","0.6","","","","","0.3650518631","0.2007600912","0.3470844982","0.2132737127","","","","","","","","","","74","J","1","","","174","main_expt","",""
"","bandit","256","710583","0.0-216.0-0.0","72209747","wem/bandit_party_1","A2COAUZ1TISD2Q","either","6","301","","","","","","","0","0","1","0.1613291475","","0.4","0.8","0.2","0.6","","","","","0.3583375904","0.1613291475","0.3615725976","0.2722172758","","","","","","","","","","74","J","1","","","175","main_expt","",""
"","bandit","257","712391","0.0-217.0-0.0","72209747","wem/bandit_party_1","A2COAUZ1TISD2Q","either","6","303","","","","","","","0","0","1","0.1618540135","","0.4","0.8","0.2","0.6","","","","","0.3849487833","0.1618540135","0.3592449917","0.3158297255","","","","","","","","","","74","J","1","","","176","main_expt","",""
"","bandit","258","714280","0.0-218.0-0.0","72209747","wem/bandit_party_1","A2COAUZ1TISD2Q","either","6","383","","","","","","","0","0","1","","0.1337509382","0.4","0.8","0.2","0.6","0.3741193846","0.1337509382","0.3614776984","0.3033070912","","","","","","","","","","","","","","74","J","1","","","177","main_expt","",""
"","bandit","259","716128","0.0-219.0-0.0","72209747","wem/bandit_party_1","A2COAUZ1TISD2Q","either","6","342","","","","","","","0","0","1","0.172909152","","0.4","0.8","0.2","0.6","","","","","0.3704436283","0.172909152","0.4042649322","0.3070990366","","","","","","","","","","74","J","1","","","178","main_expt","",""
"","bandit","260","718704","0.0-220.0-0.0","72209747","wem/bandit_party_1","A2COAUZ1TISD2Q","either","6","1070","","","","","","","0","0","1","0.2306318455","","0.4","0.8","0.2","0.6","","","","","0.3718647044","0.2306318455","0.3626499081","0.349206168","","","","","","","","","","74","J","1","","","179","main_expt","",""
"","bandit","261","720664","0.0-221.0-0.0","72209747","wem/bandit_party_1","A2COAUZ1TISD2Q","either","6","454","","","","","","","1","0","0","0.2531752843","","0.4","0.8","0.2","0.6","","","","","0.3144845341","0.2531752843","0.365831292","0.3533593609","","","","","","","","","","74","J","1","","","180","main_expt","",""
"","bandit","262","722592","0.0-222.0-0.0","72209747","wem/bandit_party_1","A2COAUZ1TISD2Q","either","6","422","","","","","","","0","0","1","0.2995137733","","0.4","0.8","0.2","0.6","","","","","0.3328992573","0.2995137733","0.3720079561","0.3792633926","","","","","","","","","","74","J","1","","","181","main_expt","",""
"","bandit","263","724729","0.0-223.0-0.0","72209747","wem/bandit_party_1","A2COAUZ1TISD2Q","either","6","630","","","","","","","1","0","0","0.4170401524","","0.4","0.8","0.2","0.6","","","","","0.3443004049","0.2818604164","0.3747751333","0.4170401524","","","","","","","","","","76","L","3","","","182","main_expt","",""
"","bandit","264","726289","0.0-224.0-0.0","72209747","wem/bandit_party_1","A2COAUZ1TISD2Q","either","6","54","","","","","","","0","1","0","","0.4349898381","0.4","0.8","0.2","0.6","0.3572445505","0.2706787236","0.3772869326","0.4349898381","","","","","","","","","","","","","","76","L","3","","","183","main_expt","",""
"","bandit","265","728281","0.0-225.0-0.0","72209747","wem/bandit_party_1","A2COAUZ1TISD2Q","either","6","486","","","","","","","0","0","1","","0.4355724899","0.4","0.8","0.2","0.6","0.358140682","0.2788381055","0.3719200221","0.4355724899","","","","","","","","","","","","","","76","L","3","","","184","main_expt","",""
"","bandit","266","730226","0.0-226.0-0.0","72209747","wem/bandit_party_1","A2COAUZ1TISD2Q","either","6","440","","","","","","","0","0","1","0.443517249","","0.4","0.8","0.2","0.6","","","","","0.2938856532","0.2591604306","0.3759280431","0.443517249","","","","","","","","","","76","L","3","","","185","main_expt","",""
"","bandit","267","732185","0.0-227.0-0.0","72209747","wem/bandit_party_1","A2COAUZ1TISD2Q","either","6","453","","","","","","","0","1","0","","0.4185550765","0.4","0.8","0.2","0.6","0.2570442146","0.1717283936","0.3686405037","0.4185550765","","","","","","","","","","","","","","76","L","3","","","186","main_expt","",""
"","bandit","268","734137","0.0-228.0-0.0","72209747","wem/bandit_party_1","A2COAUZ1TISD2Q","either","6","446","","","","","","","0","1","0","","0.4582246802","0.4","0.8","0.2","0.6","0.2781151114","0.1399016055","0.3693778387","0.4582246802","","","","","","","","","","","","","","76","L","3","","","187","main_expt","",""
"","bandit","269","735913","0.0-229.0-0.0","72209747","wem/bandit_party_1","A2COAUZ1TISD2Q","either","6","270","","","","","","","0","0","1","0.116743447","","0.4","0.8","0.2","0.6","","","","","0.2510368257","0.116743447","0.3858781765","0.4499637214","","","","","","","","","","74","J","1","","","188","main_expt","",""
"","bandit","270","737745","0.0-230.0-0.0","72209747","wem/bandit_party_1","A2COAUZ1TISD2Q","either","6","326","","","","","","","0","0","1","0.09810356538","","0.4","0.8","0.2","0.6","","","","","0.2299291889","0.09810356538","0.353665234","0.4681283031","","","","","","","","","","74","J","1","","","189","main_expt","",""
"","bandit","271","739553","0.0-231.0-0.0","72209747","wem/bandit_party_1","A2COAUZ1TISD2Q","either","6","302","","","","","","","0","0","1","","0.1333212727","0.4","0.8","0.2","0.6","0.2957770397","0.1333212727","0.3702546744","0.4672384316","","","","","","","","","","","","","","74","J","1","","","190","main_expt","",""
"","bandit","272","741618","0.0-232.0-0.0","72209747","wem/bandit_party_1","A2COAUZ1TISD2Q","either","6","559","","","","","","","0","0","1","0.07289491444","","0.4","0.8","0.2","0.6","","","","","0.2806998676","0.07289491444","0.3373283559","0.4633056668","","","","","","","","","","74","J","1","","","191","main_expt","",""
"","bandit","273","743508","0.0-233.0-0.0","72209747","wem/bandit_party_1","A2COAUZ1TISD2Q","either","6","382","","","","","","","0","0","1","0.09060717316","","0.4","0.8","0.2","0.6","","","","","0.2578649702","0.09060717316","0.3717228864","0.4701423021","","","","","","","","","","74","J","1","","","192","main_expt","",""
"","bandit","274","745338","0.0-234.0-0.0","72209747","wem/bandit_party_1","A2COAUZ1TISD2Q","either","6","324","","","","","","","0","1","0","","0.3861484819","0.4","0.8","0.2","0.6","0.3019093773","0.1038106097","0.3861484819","0.4625827917","","","","","","","","","","","","","","75","K","2","","","193","main_expt","",""
"","bandit","275","747066","0.0-235.0-0.0","72209747","wem/bandit_party_1","A2COAUZ1TISD2Q","either","6","222","","","","","","","0","0","1","","0.3028603149","0.4","0.8","0.2","0.6","0.3028603149","0.1222204007","0.3884838939","0.4480064119","","","","","","","","","","","","","","72","H","0","img/none_selected.jpg","","194","main_expt","",""
"","bandit","276","749290","0.0-236.0-0.0","72209747","wem/bandit_party_1","A2COAUZ1TISD2Q","either","6","719","","","","","","","0","0","1","0.1230179676","","0.4","0.8","0.2","0.6","","","","","0.2933095063","0.1230179676","0.4058549971","0.4263193963","","","","","","","","","","74","J","1","","","195","main_expt","",""
"","bandit","277","751187","0.0-237.0-0.0","72209747","wem/bandit_party_1","A2COAUZ1TISD2Q","either","6","392","","","","","","","0","1","0","","0.1972068901","0.4","0.8","0.2","0.6","0.3333663608","0.1972068901","0.3894648227","0.4399191733","","","","","","","","","","","","","","74","J","1","","","196","main_expt","",""
"","bandit","278","752842","0.0-238.0-0.0","72209747","wem/bandit_party_1","A2COAUZ1TISD2Q","either","6","150","","","","","","","0","1","0","","0.4303685687","0.4","0.8","0.2","0.6","0.3472763543","0.2091218652","0.3452919481","0.4303685687","","","","","","","","","","","","","","76","L","3","","","197","main_expt","",""
"","bandit","279","755106","0.0-239.0-0.0","72209747","wem/bandit_party_1","A2COAUZ1TISD2Q","either","6","759","","","","","","","0","0","1","","0.3571156804","0.4","0.8","0.2","0.6","0.3420385624","0.2316117542","0.3571156804","0.4166638701","","","","","","","","","","","","","","75","K","2","","","198","main_expt","",""
"","bandit","280","757242","0.0-240.0-0.0","72209747","wem/bandit_party_1","A2COAUZ1TISD2Q","either","6","631","","","","","","","0","0","1","","0.3761278261","0.4","0.8","0.2","0.6","0.3009927129","0.1983173389","0.3761278261","0.4166192342","","","","","","","","","","","","","","75","K","2","","","199","main_expt","",""
"","bandit","281","759147","0.0-241.0-0.0","72209747","wem/bandit_party_1","A2COAUZ1TISD2Q","either","6","400","","","","","","","0","1","0","","0.3623939384","0.4","0.8","0.2","0.6","0.2834367318","0.2275108597","0.3623939384","0.4065109498","","","","","","","","","","","","","","75","K","2","","","200","main_expt","",""
"","bandit","282","761548","0.0-242.0-0.0","72209747","wem/bandit_party_1","A2COAUZ1TISD2Q","either","6","893","","","","","","","0","0","1","","0.2305195973","0.4","0.8","0.2","0.6","0.2305195973","0.2753755663","0.3470966653","0.4210367682","","","","","","","","","","","","","","72","H","0","img/none_selected.jpg","","201","main_expt","",""
"","bandit","283","763419","0.0-243.0-0.0","72209747","wem/bandit_party_1","A2COAUZ1TISD2Q","either","6","366","","","","","","","0","0","1","0.236439039","","0.4","0.8","0.2","0.6","","","","","0.236439039","0.2867984519","0.3738670455","0.4059774394","","","","","","","","","","72","H","0","img/none_selected.jpg","","202","main_expt","",""
"","bandit","284","765283","0.0-244.0-0.0","72209747","wem/bandit_party_1","A2COAUZ1TISD2Q","either","6","359","","","","","","","0","0","1","0.207292508","","0.4","0.8","0.2","0.6","","","","","0.207292508","0.227681123","0.4434414113","0.4217634448","","","","","","","","","","72","H","0","img/none_selected.jpg","","203","main_expt","",""
"","bandit","285","767236","0.0-245.0-0.0","72209747","wem/bandit_party_1","A2COAUZ1TISD2Q","either","6","447","","","","","","","0","0","1","","0.2706274655","0.4","0.8","0.2","0.6","0.2706274655","0.2421814767","0.4363530878","0.417590799","","","","","","","","","","","","","","72","H","0","img/none_selected.jpg","","204","main_expt","",""
"","bandit","286","769019","0.0-246.0-0.0","72209747","wem/bandit_party_1","A2COAUZ1TISD2Q","either","6","273","","","","","","","0","0","1","","0.2688171721","0.4","0.8","0.2","0.6","0.2688171721","0.2250127273","0.4390009565","0.3892328218","","","","","","","","","","","","","","72","H","0","img/none_selected.jpg","","205","main_expt","",""
"","bandit","287","770915","0.0-247.0-0.0","72209747","wem/bandit_party_1","A2COAUZ1TISD2Q","either","6","388","","","","","","","0","0","1","0.2774640617","","0.4","0.8","0.2","0.6","","","","","0.2774640617","0.2148063869","0.4606838579","0.3877758809","","","","","","","","","","72","H","0","img/none_selected.jpg","","206","main_expt","",""
"","bandit","288","772739","0.0-248.0-0.0","72209747","wem/bandit_party_1","A2COAUZ1TISD2Q","either","6","317","","","","","","","0","0","1","0.31303597","","0.4","0.8","0.2","0.6","","","","","0.31303597","0.2370073307","0.4679198071","0.3344078408","","","","","","","","","","72","H","0","img/none_selected.jpg","","207","main_expt","",""
"","bandit","289","774563","0.0-249.0-0.0","72209747","wem/bandit_party_1","A2COAUZ1TISD2Q","either","6","318","","","","","","","0","0","1","","0.3187850143","0.4","0.8","0.2","0.6","0.3187850143","0.1736764344","0.4731710197","0.3285414067","","","","","","","","","","","","","","72","H","0","img/none_selected.jpg","","208","main_expt","",""
"","bandit","290","776572","0.0-250.0-0.0","72209747","wem/bandit_party_1","A2COAUZ1TISD2Q","either","6","503","","","","","","","0","1","0","","0.3031297305","0.4","0.8","0.2","0.6","0.3031297305","0.2033963155","0.472507437","0.337659841","","","","","","","","","","","","","","72","H","0","img/none_selected.jpg","","209","main_expt","",""
"","bandit","291","778828","0.0-251.0-0.0","72209747","wem/bandit_party_1","A2COAUZ1TISD2Q","either","6","749","","","","","","","1","0","0","0.1849029676","","0.4","0.8","0.2","0.6","","","","","0.3593083662","0.1849029676","0.4759946166","0.322880172","","","","","","","","","","74","J","1","","","210","main_expt","",""
"","bandit","292","780687","0.0-252.0-0.0","72209747","wem/bandit_party_1","A2COAUZ1TISD2Q","either","6","349","","","","","","","0","0","1","0.08033524441","","0.4","0.8","0.2","0.6","","","","","0.3758292662","0.08033524441","0.4838002785","0.3440981268","","","","","","","","","","74","J","1","","","211","main_expt","",""
"","bandit","293","782478","0.0-253.0-0.0","72209747","wem/bandit_party_1","A2COAUZ1TISD2Q","either","6","284","","","","","","","0","0","1","0.1024936548","","0.4","0.8","0.2","0.6","","","","","0.3771764803","0.1024936548","0.4871609062","0.3135232579","","","","","","","","","","74","J","1","","","212","main_expt","",""
"","bandit","294","784300","0.0-254.0-0.0","72209747","wem/bandit_party_1","A2COAUZ1TISD2Q","either","6","316","","","","","","","0","0","1","0.1380366818","","0.4","0.8","0.2","0.6","","","","","0.3935517348","0.1380366818","0.4829725273","0.328558382","","","","","","","","","","74","J","1","","","213","main_expt","",""
"","bandit","295","786428","0.0-255.0-0.0","72209747","wem/bandit_party_1","A2COAUZ1TISD2Q","either","6","622","","","","","","","0","0","1","0.3024402918","","0.4","0.8","0.2","0.6","","","","","0.3792377037","0.1206441992","0.4742933803","0.3024402918","","","","","","","","","","76","L","3","","","214","main_expt","",""
"","bandit","296","788260","0.0-256.0-0.0","72209747","wem/bandit_party_1","A2COAUZ1TISD2Q","either","6","326","","","","","","","0","0","1","","0.3024001881","0.4","0.8","0.2","0.6","0.3364308411","0.1320715796","0.4754417465","0.3024001881","","","","","","","","","","","","","","76","L","3","","","215","main_expt","",""
"","bandit","297","790415","0.0-257.0-0.0","72209747","wem/bandit_party_1","A2COAUZ1TISD2Q","either","6","637","","","","","","","0","0","1","0.1152906885","","0.4","0.8","0.2","0.6","","","","","0.3348871659","0.1152906885","0.4764866221","0.2975117226","","","","","","","","","","74","J","1","","","216","main_expt","",""
"","bandit","298","793126","0.0-258.0-0.0","72209747","wem/bandit_party_1","A2COAUZ1TISD2Q","either","6","1205","","","","","","","0","0","1","","0.4727866334","0.4","0.8","0.2","0.6","0.321293363","0.1191406027","0.4727866334","0.3331298207","","","","","","","","","","","","","","75","K","2","","","217","main_expt","",""
"","bandit","299","795325","0.0-259.0-0.0","72209747","wem/bandit_party_1","A2COAUZ1TISD2Q","either","6","693","","","","","","","0","0","1","","0.2905667849","0.4","0.8","0.2","0.6","0.3530973922","0.1177717736","0.4664653133","0.2905667849","","","","","","","","","","","","","","76","L","3","","","218","main_expt","",""
"","bandit","300","797198","0.0-260.0-0.0","72209747","wem/bandit_party_1","A2COAUZ1TISD2Q","either","6","366","","","","","","","1","0","0","0.2701708387","","0.4","0.8","0.2","0.6","","","","","0.3837093308","0.1178729669","0.4636837267","0.2701708387","","","","","","","","","","76","L","3","","","219","main_expt","",""
"","bandit","301","799325","0.0-261.0-0.0","72209747","wem/bandit_party_1","A2COAUZ1TISD2Q","either","6","621","","","","","","","1","0","0","0.2395453957","","0.4","0.8","0.2","0.6","","","","","0.3651541458","0.1284790336","0.4599900571","0.2395453957","","","","","","","","","","76","L","3","","","220","main_expt","",""
"","bandit","302","801415","0.0-262.0-0.0","72209747","wem/bandit_party_1","A2COAUZ1TISD2Q","either","6","574","","","","","","","0","0","1","","0.2770622605","0.4","0.8","0.2","0.6","0.254085412","0.147465279","0.4490722186","0.2770622605","","","","","","","","","","","","","","76","L","3","","","221","main_expt","",""
"","bandit","303","803488","0.0-263.0-0.0","72209747","wem/bandit_party_1","A2COAUZ1TISD2Q","either","6","565","","","","","","","0","0","1","","0.3390746663","0.4","0.8","0.2","0.6","0.2590796483","0.1441925756","0.4253353094","0.3390746663","","","","","","","","","","","","","","76","L","3","","","222","main_expt","",""
"","bandit","304","805558","0.0-264.0-0.0","72209747","wem/bandit_party_1","A2COAUZ1TISD2Q","either","6","565","","","","","","","0","1","0","","0.384843876","0.4","0.8","0.2","0.6","0.2640852941","0.1731110736","0.4559825987","0.384843876","","","","","","","","","","","","","","76","L","3","","","223","main_expt","",""
"","bandit","305","807334","0.0-265.0-0.0","72209747","wem/bandit_party_1","A2COAUZ1TISD2Q","either","6","268","","","","","","","0","0","1","0.1124600034","","0.4","0.8","0.2","0.6","","","","","0.2636590797","0.1124600034","0.464560515","0.4367619307","","","","","","","","","","74","J","1","","","224","main_expt","",""
"","bandit","306","809263","0.0-266.0-0.0","72209747","wem/bandit_party_1","A2COAUZ1TISD2Q","either","6","421","","","","","","","0","0","1","","0.1174510337","0.4","0.8","0.2","0.6","0.3110444069","0.1174510337","0.4528378766","0.42055701","","","","","","","","","","","","","","74","J","1","","","225","main_expt","",""
"","bandit","307","811487","0.0-267.0-0.0","72209747","wem/bandit_party_1","A2COAUZ1TISD2Q","either","6","717","","","","","","","0","0","1","0.1494320736","","0.4","0.8","0.2","0.6","","","","","0.3268768972","0.1494320736","0.4585160156","0.4282593698","","","","","","","","","","74","J","1","","","226","main_expt","",""
"","bandit","308","813183","0.0-268.0-0.0","72209747","wem/bandit_party_1","A2COAUZ1TISD2Q","either","6","189","","","","","","","0","0","1","0.1655037845","","0.4","0.8","0.2","0.6","","","","","0.3112991039","0.1655037845","0.4525914875","0.4213985596","","","","","","","","","","74","J","1","","","227","main_expt","",""
"","bandit","309","814975","0.0-269.0-0.0","72209747","wem/bandit_party_1","A2COAUZ1TISD2Q","either","6","285","","","","","","","0","0","1","","0.1595877114","0.4","0.8","0.2","0.6","0.3481066565","0.1595877114","0.4618810074","0.4115599459","","","","","","","","","","","","","","74","J","1","","","228","main_expt","",""
"","bandit","310","816783","0.0-270.0-0.0","72209747","wem/bandit_party_1","A2COAUZ1TISD2Q","either","6","301","","","","","","","0","0","1","0.1811982871","","0.4","0.8","0.2","0.6","","","","","0.3267856819","0.1811982871","0.4661541784","0.375967734","","","","","","","","","","74","J","1","","","229","main_expt","",""
"","bandit","311","818679","0.0-271.0-0.0","72209747","wem/bandit_party_1","A2COAUZ1TISD2Q","either","6","389","","","","","","","0","0","1","0.2088208598","","0.4","0.8","0.2","0.6","","","","","0.3043034776","0.2088208598","0.4681373403","0.4172813036","","","","","","","","","","74","J","1","","","230","main_expt","",""
"","bandit","312","821055","0.0-272.0-0.0","72209747","wem/bandit_party_1","A2COAUZ1TISD2Q","either","6","869","","","","","","","0","1","0","","0.3871641603","0.4","0.8","0.2","0.6","0.3127123154","0.2062946352","0.4733838814","0.3871641603","","","","","","","","","","","","","","76","L","3","","","231","main_expt","",""
"","bandit","313","823119","0.0-273.0-0.0","72209747","wem/bandit_party_1","A2COAUZ1TISD2Q","either","6","557","","","","","","","0","0","1","","0.1448621505","0.4","0.8","0.2","0.6","0.3039198066","0.1448621505","0.455942125","0.3381606844","","","","","","","","","","","","","","74","J","1","","","232","main_expt","",""
"","bandit","314","825207","0.0-274.0-0.0","72209747","wem/bandit_party_1","A2COAUZ1TISD2Q","either","6","581","","","","","","","0","0","1","0.1096360744","","0.4","0.8","0.2","0.6","","","","","0.2846072758","0.1096360744","0.4523014459","0.2918198365","","","","","","","","","","74","J","1","","","233","main_expt","",""
"","bandit","315","827807","0.0-275.0-0.0","72209747","wem/bandit_party_1","A2COAUZ1TISD2Q","either","6","1094","","","","","","","0","1","0","","0.4715877437","0.4","0.8","0.2","0.6","0.2430061478","0.1102272527","0.4715877437","0.3016980071","","","","","","","","","","","","","","75","K","2","","","234","main_expt","",""
