"consent","trial_type","trial_index","time_elapsed","internal_node_id","subjID","study","MID","cond","drift","rt","responses","button_pressed","key_press","like","value","connected","gems","bombs","no_reward","GemPrChosen","BombPrChosen","GainOverPainPr_0","GainOverPainPr_1","GainOverPainPr_2","GainOverPainPr_3","LosePr_0","LosePr_1","LosePr_2","LosePr_3","WinPr_0","WinPr_1","WinPr_2","WinPr_3","Q0","Q1","Q2","gender","age","ethnicity","label","expt_phase","target","respCharCode","respKey","respChoiceNum","respChoice","practice","trial_counter","trial_label","Q0_index"
"GDM/GDM_behavioral_consent_30min_online.html","consent","0","5924","0.0-0.0","74415875","wem/bandit_party_1","A142ZRU284W9O","either","5","","","","","","","","","","","","","","","","","","","","","","","","","","","","","","","","","","","","","","","","",""
"","survey-text","1","10763","0.0-1.0","74415875","wem/bandit_party_1","A142ZRU284W9O","either","5","3828","{""Q0"":""A142ZRU284W9O""}","","","","","","","","","","","","","","","","","","","","","","","","","","","","","","","","","","","","","","",""
"","button-response","2","13803","0.0-2.0","74415875","wem/bandit_party_1","A142ZRU284W9O","either","5","1988","","1","","","","","","","","","","","","","","","","","","","","","","","","","","","","","","","","","","","","","",""
"","text-replacement","3","25174","0.0-3.0","74415875","wem/bandit_party_1","A142ZRU284W9O","either","5","10365","","","32","","","","","","","","","","","","","","","","","","","","","","","","","","","","","","","","","","","","",""
"","text-replacement","4","27656","0.0-4.0","74415875","wem/bandit_party_1","A142ZRU284W9O","either","5","2479","","","32","","","","","","","","","","","","","","","","","","","","","","","","","","","","","","","","","","","","",""
"","identification","5","34249","0.0-6.0-0.0","74415875","wem/bandit_party_1","A142ZRU284W9O","either","5","6558","","","","0","0","0","","","","","","","","","","","","","","","","","","","","","","","","pre","identification_pre","the Republican party","","","","","","","",""
"","identification","6","37823","0.0-6.0-1.0","74415875","wem/bandit_party_1","A142ZRU284W9O","either","5","2551","","","","3","3","3","","","","","","","","","","","","","","","","","","","","","","","","pre","identification_pre","the Democratic Party","","","","","","","",""
"","text-replacement","7","45268","0.0-7.0","74415875","wem/bandit_party_1","A142ZRU284W9O","either","5","6441","","","32","","","","","","","","","","","","","","","","","","","","","","","","","","","","","","","","","","","","",""
"","text-replacement","8","48157","0.0-8.0","74415875","wem/bandit_party_1","A142ZRU284W9O","either","5","2887","","","32","","","","","","","","","","","","","","","","","","","","","","","","","","","","","","","","","","","","",""
"","text-replacement","9","50715","0.0-9.0","74415875","wem/bandit_party_1","A142ZRU284W9O","either","5","2553","","","32","","","","","","","","","","","","","","","","","","","","","","","","","","","","","","","","","","","","",""
"","text-replacement","10","52130","0.0-10.0","74415875","wem/bandit_party_1","A142ZRU284W9O","either","5","1412","","","32","","","","","","","","","","","","","","","","","","","","","","","","","","","","","","","","","","","","",""
"","text-replacement","11","54028","0.0-11.0","74415875","wem/bandit_party_1","A142ZRU284W9O","either","5","1895","","","32","","","","","","","","","","","","","","","","","","","","","","","","","","","","","","","","","","","","",""
"","bandit","12","56526","0.0-12.0-0.0","74415875","wem/bandit_party_1","A142ZRU284W9O","either","5","961","","","","","","","0","0","1","0","0","","","","","0","","","","0","","","","","","","","","","","","","74","J","0","img/none_selected_demo.jpg","true","0","",""
"","bandit","13","58602","0.0-13.0-0.0","74415875","wem/bandit_party_1","A142ZRU284W9O","either","5","562","","","","","","","0","0","1","0","0","","","","","0","","","","0","","","","","","","","","","","","","75","K","0","img/none_selected_demo.jpg","true","0","",""
"","text-replacement","14","61541","0.0-14.0","74415875","wem/bandit_party_1","A142ZRU284W9O","either","5","2936","","","32","","","","","","","","","","","","","","","","","","","","","","","","","","","","","","","","","","","","",""
"","text-replacement","15","62411","0.0-15.0","74415875","wem/bandit_party_1","A142ZRU284W9O","either","5","867","","","32","","","","","","","","","","","","","","","","","","","","","","","","","","","","","","","","","","","","",""
"","text-replacement","16","63131","0.0-16.0","74415875","wem/bandit_party_1","A142ZRU284W9O","either","5","718","","","32","","","","","","","","","","","","","","","","","","","","","","","","","","","","","","","","","","","","",""
"","text-replacement","17","64572","0.0-17.0","74415875","wem/bandit_party_1","A142ZRU284W9O","either","5","1439","","","32","","","","","","","","","","","","","","","","","","","","","","","","","","","","","","","","","","","","",""
"","bandit","18","66583","0.0-18.0-0.0","74415875","wem/bandit_party_1","A142ZRU284W9O","either","5","494","","","","","","","1","0","0","0.8","","0.5","0.5","","","","","","","0.8","0.2","","","","","","","","","","","","74","J","0","img/none_selected_demo.jpg","true","0","80_20_practice",""
"","bandit","19","68396","0.0-18.0-1.0","74415875","wem/bandit_party_1","A142ZRU284W9O","either","5","304","","","","","","","0","1","0","","0.8","0.5","0.5","","","0.8","0.2","","","","","","","","","","","","","","","","74","J","0","img/none_selected_demo.jpg","true","0","80_20_practice",""
"","bandit","20","70048","0.0-18.0-2.0","74415875","wem/bandit_party_1","A142ZRU284W9O","either","5","144","","","","","","","0","1","0","","0.8","0.5","0.5","","","0.8","0.2","","","","","","","","","","","","","","","","74","J","0","img/none_selected_demo.jpg","true","0","80_20_practice",""
"","bandit","21","71825","0.0-18.0-3.0","74415875","wem/bandit_party_1","A142ZRU284W9O","either","5","259","","","","","","","0","0","1","","0.8","0.5","0.5","","","0.8","0.2","","","","","","","","","","","","","","","","74","J","0","img/none_selected_demo.jpg","true","0","80_20_practice",""
"","bandit","22","74556","0.0-18.0-4.0","74415875","wem/bandit_party_1","A142ZRU284W9O","either","5","1045","","","","","","","1","0","0","0.8","","0.5","0.5","","","","","","","0.8","0.2","","","","","","","","","","","","74","J","0","img/none_selected_demo.jpg","true","0","80_20_practice",""
"","bandit","23","76099","0.0-18.0-5.0","74415875","wem/bandit_party_1","A142ZRU284W9O","either","5","35","","","","","","","0","0","1","0.8","","0.5","0.5","","","","","","","0.8","0.2","","","","","","","","","","","","74","J","0","img/none_selected_demo.jpg","true","0","80_20_practice",""
"","bandit","24","78050","0.0-18.0-6.0","74415875","wem/bandit_party_1","A142ZRU284W9O","either","5","434","","","","","","","1","0","0","0.8","","0.5","0.5","","","","","","","0.8","0.2","","","","","","","","","","","","74","J","0","img/none_selected_demo.jpg","true","0","80_20_practice",""
"","bandit","25","80017","0.0-18.0-7.0","74415875","wem/bandit_party_1","A142ZRU284W9O","either","5","452","","","","","","","0","1","0","","0.8","0.5","0.5","","","0.8","0.2","","","","","","","","","","","","","","","","74","J","0","img/none_selected_demo.jpg","true","0","80_20_practice",""
"","bandit","26","81708","0.0-18.0-8.0","74415875","wem/bandit_party_1","A142ZRU284W9O","either","5","161","","","","","","","0","0","1","0.2","","0.5","0.5","","","","","","","0.8","0.2","","","","","","","","","","","","75","K","1","","true","0","80_20_practice",""
"","bandit","27","83381","0.0-18.0-9.0","74415875","wem/bandit_party_1","A142ZRU284W9O","either","5","163","","","","","","","0","0","1","0.2","","0.5","0.5","","","","","","","0.8","0.2","","","","","","","","","","","","75","K","1","","true","0","80_20_practice",""
"","bandit","28","85220","0.0-18.0-10.0","74415875","wem/bandit_party_1","A142ZRU284W9O","either","5","328","","","","","","","0","0","1","","0.2","0.5","0.5","","","0.8","0.2","","","","","","","","","","","","","","","","75","K","1","","true","0","80_20_practice",""
"","bandit","29","86866","0.0-18.0-11.0","74415875","wem/bandit_party_1","A142ZRU284W9O","either","5","117","","","","","","","0","0","1","0.2","","0.5","0.5","","","","","","","0.8","0.2","","","","","","","","","","","","75","K","1","","true","0","80_20_practice",""
"","bandit","30","88573","0.0-18.0-12.0","74415875","wem/bandit_party_1","A142ZRU284W9O","either","5","138","","","","","","","0","1","0","","0.2","0.5","0.5","","","0.8","0.2","","","","","","","","","","","","","","","","75","K","1","","true","0","80_20_practice",""
"","bandit","31","90173","0.0-18.0-13.0","74415875","wem/bandit_party_1","A142ZRU284W9O","either","5","92","","","","","","","0","0","1","","0.2","0.5","0.5","","","0.8","0.2","","","","","","","","","","","","","","","","75","K","1","","true","0","80_20_practice",""
"","bandit","32","91790","0.0-18.0-14.0","74415875","wem/bandit_party_1","A142ZRU284W9O","either","5","103","","","","","","","0","0","1","","0.2","0.5","0.5","","","0.8","0.2","","","","","","","","","","","","","","","","75","K","1","","true","0","80_20_practice",""
"","bandit","33","93482","0.0-18.0-15.0","74415875","wem/bandit_party_1","A142ZRU284W9O","either","5","169","","","","","","","0","0","1","","0.2","0.5","0.5","","","0.8","0.2","","","","","","","","","","","","","","","","75","K","1","","true","0","80_20_practice",""
"","bandit","34","95267","0.0-18.0-16.0","74415875","wem/bandit_party_1","A142ZRU284W9O","either","5","168","","","","","","","0","0","1","0.2","","0.5","0.5","","","","","","","0.8","0.2","","","","","","","","","","","","75","K","1","","true","0","80_20_practice",""
"","bandit","35","96837","0.0-18.0-17.0","74415875","wem/bandit_party_1","A142ZRU284W9O","either","5","20","","","","","","","0","0","1","0.8","","0.5","0.5","","","","","","","0.8","0.2","","","","","","","","","","","","74","J","0","img/none_selected_demo.jpg","true","0","80_20_practice",""
"","bandit","36","98499","0.0-18.0-18.0","74415875","wem/bandit_party_1","A142ZRU284W9O","either","5","150","","","","","","","0","0","1","","0.8","0.5","0.5","","","0.8","0.2","","","","","","","","","","","","","","","","74","J","0","img/none_selected_demo.jpg","true","0","80_20_practice",""
"","bandit","37","100028","0.0-18.0-19.0","74415875","wem/bandit_party_1","A142ZRU284W9O","either","5","19","","","","","","","1","0","0","0.8","","0.5","0.5","","","","","","","0.8","0.2","","","","","","","","","","","","74","J","0","img/none_selected_demo.jpg","true","0","80_20_practice",""
"","text-replacement","38","101916","0.0-19.0","74415875","wem/bandit_party_1","A142ZRU284W9O","either","5","1885","","","32","","","","","","","","","","","","","","","","","","","","","","","","","","","","","","","","","","","","",""
"","bandit","39","103897","0.0-20.0-0.0","74415875","wem/bandit_party_1","A142ZRU284W9O","either","5","468","","","","","","","1","0","0","1","0","","","","","0","1","","","1","0","","","","","","","","","","","","74","J","0","img/none_selected_demo.jpg","true","0","",""
"","text-replacement","40","105912","0.0-21.0","74415875","wem/bandit_party_1","A142ZRU284W9O","either","5","2010","","","32","","","","","","","","","","","","","","","","","","","","","","","","","","","","","","","","","","","","",""
"","text-replacement","41","107358","0.0-22.0","74415875","wem/bandit_party_1","A142ZRU284W9O","either","5","1439","","","32","","","","","","","","","","","","","","","","","","","","","","","","","","","","","","","","","","","","",""
"","text-replacement","42","108316","0.0-23.0","74415875","wem/bandit_party_1","A142ZRU284W9O","either","5","953","","","32","","","","","","","","","","","","","","","","","","","","","","","","","","","","","","","","","","","","",""
"","text-replacement","43","109449","0.0-24.0","74415875","wem/bandit_party_1","A142ZRU284W9O","either","5","1131","","","32","","","","","","","","","","","","","","","","","","","","","","","","","","","","","","","","","","","","",""
"","text-replacement","44","109933","0.0-25.0","74415875","wem/bandit_party_1","A142ZRU284W9O","either","5","479","","","32","","","","","","","","","","","","","","","","","","","","","","","","","","","","","","","","","","","","",""
"","text-replacement","45","110548","0.0-26.0","74415875","wem/bandit_party_1","A142ZRU284W9O","either","5","610","","","32","","","","","","","","","","","","","","","","","","","","","","","","","","","","","","","","","","","","",""
"","text-replacement","46","111069","0.0-27.0","74415875","wem/bandit_party_1","A142ZRU284W9O","either","5","517","","","32","","","","","","","","","","","","","","","","","","","","","","","","","","","","","","","","","","","","",""
"","text-replacement","47","111576","0.0-28.0","74415875","wem/bandit_party_1","A142ZRU284W9O","either","5","503","","","32","","","","","","","","","","","","","","","","","","","","","","","","","","","","","","","","","","","","",""
"","text-replacement","48","112657","0.0-29.0","74415875","wem/bandit_party_1","A142ZRU284W9O","either","5","1077","","","32","","","","","","","","","","","","","","","","","","","","","","","","","","","","","","","","","","","","",""
"","text-replacement","49","113421","0.0-30.0","74415875","wem/bandit_party_1","A142ZRU284W9O","either","5","762","","","32","","","","","","","","","","","","","","","","","","","","","","","","","","","","","","","","","","","","",""
"","text-replacement","50","130081","0.0-31.0","74415875","wem/bandit_party_1","A142ZRU284W9O","either","5","16656","","","32","","","","","","","","","","","","","","","","","","","","","","","","","","","","","","","","","","","","",""
"","bandit","51","132301","0.0-32.0-0.0","74415875","wem/bandit_party_1","A142ZRU284W9O","either","5","708","","","","","","","0","1","0","","0.8","0.5","0.5","0.5","0.5","0.8","0.2","0.6","0.2","","","","","","","","","","","","","","72","H","0","img/none_selected.jpg","true","0","full_practice",""
"","bandit","52","133993","0.0-32.0-1.0","74415875","wem/bandit_party_1","A142ZRU284W9O","either","5","182","","","","","","","0","1","0","","0.2","0.5","0.5","0.5","0.5","0.8","0.2","0.6","0.2","","","","","","","","","","","","","","74","J","1","","true","0","full_practice",""
"","bandit","53","135719","0.0-32.0-2.0","74415875","wem/bandit_party_1","A142ZRU284W9O","either","5","195","","","","","","","0","1","0","","0.6","0.5","0.5","0.5","0.5","0.8","0.2","0.6","0.2","","","","","","","","","","","","","","75","K","2","","true","0","full_practice",""
"","bandit","54","137254","0.0-32.0-3.0","74415875","wem/bandit_party_1","A142ZRU284W9O","either","5","20","","","","","","","0","0","1","0.2","","0.5","0.5","0.5","0.5","","","","","0.8","0.2","0.6","0.2","","","","","","","","","","76","L","3","","true","0","full_practice",""
"","bandit","55","138944","0.0-32.0-4.0","74415875","wem/bandit_party_1","A142ZRU284W9O","either","5","181","","","","","","","1","0","0","0.8","","0.5","0.5","0.5","0.5","","","","","0.8","0.2","0.6","0.2","","","","","","","","","","72","H","0","img/none_selected.jpg","true","0","full_practice",""
"","bandit","56","140557","0.0-32.0-5.0","74415875","wem/bandit_party_1","A142ZRU284W9O","either","5","101","","","","","","","0","1","0","","0.8","0.5","0.5","0.5","0.5","0.8","0.2","0.6","0.2","","","","","","","","","","","","","","72","H","0","img/none_selected.jpg","true","0","full_practice",""
"","bandit","57","142268","0.0-32.0-6.0","74415875","wem/bandit_party_1","A142ZRU284W9O","either","5","202","","","","","","","0","0","1","","0.2","0.5","0.5","0.5","0.5","0.8","0.2","0.6","0.2","","","","","","","","","","","","","","76","L","3","","true","0","full_practice",""
"","bandit","58","143861","0.0-32.0-7.0","74415875","wem/bandit_party_1","A142ZRU284W9O","either","5","82","","","","","","","0","0","1","","0.2","0.5","0.5","0.5","0.5","0.8","0.2","0.6","0.2","","","","","","","","","","","","","","76","L","3","","true","0","full_practice",""
"","bandit","59","145498","0.0-32.0-8.0","74415875","wem/bandit_party_1","A142ZRU284W9O","either","5","127","","","","","","","0","0","1","0.2","","0.5","0.5","0.5","0.5","","","","","0.8","0.2","0.6","0.2","","","","","","","","","","76","L","3","","true","0","full_practice",""
"","bandit","60","147084","0.0-32.0-9.0","74415875","wem/bandit_party_1","A142ZRU284W9O","either","5","72","","","","","","","1","0","0","0.6","","0.5","0.5","0.5","0.5","","","","","0.8","0.2","0.6","0.2","","","","","","","","","","75","K","2","","true","0","full_practice",""
"","bandit","61","148700","0.0-32.0-10.0","74415875","wem/bandit_party_1","A142ZRU284W9O","either","5","94","","","","","","","0","1","0","","0.6","0.5","0.5","0.5","0.5","0.8","0.2","0.6","0.2","","","","","","","","","","","","","","75","K","2","","true","0","full_practice",""
"","bandit","62","150466","0.0-32.0-11.0","74415875","wem/bandit_party_1","A142ZRU284W9O","either","5","155","","","","","","","0","0","1","","0.6","0.5","0.5","0.5","0.5","0.8","0.2","0.6","0.2","","","","","","","","","","","","","","75","K","2","","true","0","full_practice",""
"","bandit","63","152027","0.0-32.0-12.0","74415875","wem/bandit_party_1","A142ZRU284W9O","either","5","53","","","","","","","0","0","1","","0.2","0.5","0.5","0.5","0.5","0.8","0.2","0.6","0.2","","","","","","","","","","","","","","74","J","1","","true","0","full_practice",""
"","bandit","64","153605","0.0-32.0-13.0","74415875","wem/bandit_party_1","A142ZRU284W9O","either","5","30","","","","","","","0","0","1","","0.2","0.5","0.5","0.5","0.5","0.8","0.2","0.6","0.2","","","","","","","","","","","","","","74","J","1","","true","0","full_practice",""
"","bandit","65","155196","0.0-32.0-14.0","74415875","wem/bandit_party_1","A142ZRU284W9O","either","5","73","","","","","","","1","0","0","0.8","","0.5","0.5","0.5","0.5","","","","","0.8","0.2","0.6","0.2","","","","","","","","","","72","H","0","img/none_selected.jpg","true","0","full_practice",""
"","bandit","66","156724","0.0-32.0-15.0","74415875","wem/bandit_party_1","A142ZRU284W9O","either","5","15","","","","","","","1","0","0","0.2","","0.5","0.5","0.5","0.5","","","","","0.8","0.2","0.6","0.2","","","","","","","","","","74","J","1","","true","0","full_practice",""
"","bandit","67","158264","0.0-32.0-16.0","74415875","wem/bandit_party_1","A142ZRU284W9O","either","5","33","","","","","","","1","0","0","0.8","","0.5","0.5","0.5","0.5","","","","","0.8","0.2","0.6","0.2","","","","","","","","","","72","H","0","img/none_selected.jpg","true","0","full_practice",""
"","bandit","68","159948","0.0-32.0-17.0","74415875","wem/bandit_party_1","A142ZRU284W9O","either","5","176","","","","","","","0","1","0","","0.6","0.5","0.5","0.5","0.5","0.8","0.2","0.6","0.2","","","","","","","","","","","","","","75","K","2","","true","0","full_practice",""
"","bandit","69","161588","0.0-32.0-18.0","74415875","wem/bandit_party_1","A142ZRU284W9O","either","5","126","","","","","","","0","0","1","","0.2","0.5","0.5","0.5","0.5","0.8","0.2","0.6","0.2","","","","","","","","","","","","","","76","L","3","","true","0","full_practice",""
"","bandit","70","163108","0.0-32.0-19.0","74415875","wem/bandit_party_1","A142ZRU284W9O","either","5","8","","","","","","","0","0","1","0.6","","0.5","0.5","0.5","0.5","","","","","0.8","0.2","0.6","0.2","","","","","","","","","","75","K","2","","true","0","full_practice",""
"","text","71","165270","0.0-33.0","74415875","wem/bandit_party_1","A142ZRU284W9O","either","5","2144","","","32","","","","","","","","","","","","","","","","","","","","","","","","","","","","","","","","","","","","",""
"","text-replacement","72","172071","0.0-34.0","74415875","wem/bandit_party_1","A142ZRU284W9O","either","5","5794","","","32","","","","","","","","","","","","","","","","","","","","","","","","","","","","","","","","","","","","",""
"","text-replacement","73","176895","0.0-35.0","74415875","wem/bandit_party_1","A142ZRU284W9O","either","5","4819","","","32","","","","","","","","","","","","","","","","","","","","","","","","","","","","","","","","","","","","",""
"","text-replacement","74","178144","0.0-36.0","74415875","wem/bandit_party_1","A142ZRU284W9O","either","5","1246","","","32","","","","","","","","","","","","","","","","","","","","","","","","","","","","","","","","","","","","",""
"","text-replacement","75","178719","0.0-37.0","74415875","wem/bandit_party_1","A142ZRU284W9O","either","5","571","","","32","","","","","","","","","","","","","","","","","","","","","","","","","","","","","","","","","","","","",""
"","text-replacement","76","179837","0.0-38.0","74415875","wem/bandit_party_1","A142ZRU284W9O","either","5","1114","","","32","","","","","","","","","","","","","","","","","","","","","","","","","","","","","","","","","","","","",""
"","survey-multi-choice-replacement","77","185261","0.0-39.0-0.0","74415875","wem/bandit_party_1","A142ZRU284W9O","either","5","5397","","","","","","","","","","","","","","","","","","","","","","","","Money will be added to the pool for <span style='color:blue;'>DEMOCRATS</span>","","","","","","","attn_check","","","","","","","","","0"
"","survey-multi-choice-replacement","78","189542","0.0-40.0-0.0","74415875","wem/bandit_party_1","A142ZRU284W9O","either","5","3267","","","","","","","","","","","","","","","","","","","","","","","","Equal amounts of money will be added to the pool for <span style='color:blue;'>DEMOCRATS</span> and subtracted from the pool for <span style='color:red;'>REPUBLICANS</span>","","","","","","","attn_check","","","","","","","","","2"
"","survey-multi-choice-replacement","79","192825","0.0-41.0-0.0","74415875","wem/bandit_party_1","A142ZRU284W9O","either","5","2265","","","","","","","","","","","","","","","","","","","","","","","","No money will be added to either pool","","","","","","","attn_check","","","","","","","","","3"
"","bandit","80","197273","0.0-42.0-0.0","74415875","wem/bandit_party_1","A142ZRU284W9O","either","5","1931","","","","","","","0","0","1","","0.3340388524","0.2","0.6","0.4","0.8","0.3340388524","0.4265570961","0.1165465043","0.3897275569","","","","","","","","","","","","","","72","H","0","img/none_selected.jpg","","1","main_expt",""
"","bandit","81","199176","0.0-43.0-0.0","74415875","wem/bandit_party_1","A142ZRU284W9O","either","5","381","","","","","","","0","0","1","0.3223834482","","0.2","0.6","0.4","0.8","","","","","0.3223834482","0.4177099958","0.08371899021","0.3911966266","","","","","","","","","","72","H","0","img/none_selected.jpg","","2","main_expt",""
"","bandit","82","201026","0.0-44.0-0.0","74415875","wem/bandit_party_1","A142ZRU284W9O","either","5","324","","","","","","","0","0","1","0.4192185534","","0.2","0.6","0.4","0.8","","","","","0.3585509001","0.4192185534","0.04339790364","0.4074861021","","","","","","","","","","74","J","1","","","3","main_expt",""
"","bandit","83","202814","0.0-45.0-0.0","74415875","wem/bandit_party_1","A142ZRU284W9O","either","5","264","","","","","","","0","1","0","","0.4241610434","0.2","0.6","0.4","0.8","0.3416436242","0.4241610434","0.04073472785","0.3965638453","","","","","","","","","","","","","","74","J","1","","","4","main_expt",""
"","bandit","84","204528","0.0-46.0-0.0","74415875","wem/bandit_party_1","A142ZRU284W9O","either","5","184","","","","","","","0","0","1","0.4284837315","","0.2","0.6","0.4","0.8","","","","","0.3444758892","0.4284837315","0.04731773769","0.3688269119","","","","","","","","","","74","J","1","","","5","main_expt",""
"","bandit","85","206333","0.0-47.0-0.0","74415875","wem/bandit_party_1","A142ZRU284W9O","either","5","294","","","","","","","0","1","0","","0.4328708062","0.2","0.6","0.4","0.8","0.3574177426","0.4328708062","0.05617088868","0.3865867917","","","","","","","","","","","","","","74","J","1","","","6","main_expt",""
"","bandit","86","207959","0.0-48.0-0.0","74415875","wem/bandit_party_1","A142ZRU284W9O","either","5","116","","","","","","","0","0","1","","0.4176545671","0.2","0.6","0.4","0.8","0.3634052143","0.4176545671","0.05606577856","0.4294719924","","","","","","","","","","","","","","74","J","1","","","7","main_expt",""
"","bandit","87","209501","0.0-49.0-0.0","74415875","wem/bandit_party_1","A142ZRU284W9O","either","5","2","","","","","","","0","0","1","0.09244853328","","0.2","0.6","0.4","0.8","","","","","0.3675420607","0.4022395488","0.09244853328","0.4210378118","","","","","","","","","","75","K","2","","","8","main_expt",""
"","bandit","88","211109","0.0-50.0-0.0","74415875","wem/bandit_party_1","A142ZRU284W9O","either","5","95","","","","","","","0","0","1","","0.1271341085","0.2","0.6","0.4","0.8","0.3921196104","0.3929004949","0.1271341085","0.4502112583","","","","","","","","","","","","","","75","K","2","","","9","main_expt",""
"","bandit","89","212658","0.0-51.0-0.0","74415875","wem/bandit_party_1","A142ZRU284W9O","either","5","0","","","","","","","0","0","1","0.4452653155","","0.2","0.6","0.4","0.8","","","","","0.4026182126","0.3863711448","0.1370717255","0.4452653155","","","","","","","","","","76","L","3","","","10","main_expt",""
"","bandit","90","214330","0.0-52.0-0.0","74415875","wem/bandit_party_1","A142ZRU284W9O","either","5","138","","","","","","","0","0","1","0.4352349267","","0.2","0.6","0.4","0.8","","","","","0.3543069494","0.4205849279","0.1275050207","0.4352349267","","","","","","","","","","76","L","3","","","11","main_expt",""
"","bandit","91","216873","0.0-53.0-0.0","74415875","wem/bandit_party_1","A142ZRU284W9O","either","5","1016","","","","","","","0","1","0","","0.4525069231","0.2","0.6","0.4","0.8","0.3504097904","0.4525069231","0.122317004","0.4029030639","","","","","","","","","","","","","","74","J","1","","","12","main_expt",""
"","bandit","92","218477","0.0-54.0-0.0","74415875","wem/bandit_party_1","A142ZRU284W9O","either","5","84","","","","","","","0","0","1","0.4485799753","","0.2","0.6","0.4","0.8","","","","","0.2787441393","0.4485799753","0.1251711411","0.4198147105","","","","","","","","","","74","J","1","","","13","main_expt",""
"","bandit","93","220156","0.0-55.0-0.0","74415875","wem/bandit_party_1","A142ZRU284W9O","either","5","170","","","","","","","0","0","1","","0.4504049656","0.2","0.6","0.4","0.8","0.2723245106","0.4504049656","0.1380641988","0.3761312174","","","","","","","","","","","","","","74","J","1","","","14","main_expt",""
"","bandit","94","221778","0.0-56.0-0.0","74415875","wem/bandit_party_1","A142ZRU284W9O","either","5","106","","","","","","","1","0","0","0.4281165459","","0.2","0.6","0.4","0.8","","","","","0.3687644442","0.4281165459","0.2010812313","0.4017507227","","","","","","","","","","74","J","1","","","15","main_expt",""
"","bandit","95","223632","0.0-57.0-0.0","74415875","wem/bandit_party_1","A142ZRU284W9O","either","5","329","","","","","","","0","1","0","","0.4035101098","0.2","0.6","0.4","0.8","0.3992289848","0.4035101098","0.1747275657","0.3859888637","","","","","","","","","","","","","","74","J","1","","","16","main_expt",""
"","bandit","96","225178","0.0-58.0-0.0","74415875","wem/bandit_party_1","A142ZRU284W9O","either","5","4","","","","","","","1","0","0","0.4063691663","","0.2","0.6","0.4","0.8","","","","","0.4067061876","0.4063691663","0.1816524112","0.3706978481","","","","","","","","","","74","J","1","","","17","main_expt",""
"","bandit","97","227008","0.0-59.0-0.0","74415875","wem/bandit_party_1","A142ZRU284W9O","either","5","320","","","","","","","0","1","0","","0.4201618032","0.2","0.6","0.4","0.8","0.3969002131","0.4201618032","0.1700798448","0.3323991027","","","","","","","","","","","","","","74","J","1","","","18","main_expt",""
"","bandit","98","228784","0.0-60.0-0.0","74415875","wem/bandit_party_1","A142ZRU284W9O","either","5","224","","","","","","","0","0","1","0.3868389751","","0.2","0.6","0.4","0.8","","","","","0.3930099592","0.3868389751","0.1998500639","0.3301718366","","","","","","","","","","74","J","1","","","19","main_expt",""
"","bandit","99","230590","0.0-61.0-0.0","74415875","wem/bandit_party_1","A142ZRU284W9O","either","5","259","","","","","","","0","0","1","0.3868875991","","0.2","0.6","0.4","0.8","","","","","0.3791602553","0.3868875991","0.2418808817","0.3714618997","","","","","","","","","","74","J","1","","","20","main_expt",""
"","bandit","100","232242","0.0-62.0-0.0","74415875","wem/bandit_party_1","A142ZRU284W9O","either","5","145","","","","","","","0","1","0","","0.4253770554","0.2","0.6","0.4","0.8","0.4127515201","0.4253770554","0.2293341009","0.3621694591","","","","","","","","","","","","","","74","J","1","","","21","main_expt",""
"","bandit","101","233858","0.0-63.0-0.0","74415875","wem/bandit_party_1","A142ZRU284W9O","either","5","89","","","","","","","1","0","0","0.4285762007","","0.2","0.6","0.4","0.8","","","","","0.4164833055","0.4285762007","0.2074184163","0.3648829928","","","","","","","","","","74","J","1","","","22","main_expt",""
"","bandit","102","235564","0.0-64.0-0.0","74415875","wem/bandit_party_1","A142ZRU284W9O","either","5","90","","","","","","","0","0","1","","0.4082522222","0.2","0.6","0.4","0.8","0.4143027846","0.4082522222","0.1832507358","0.2856994719","","","","","","","","","","","","","","74","J","1","","","23","main_expt",""
"","bandit","103","237601","0.0-65.0-0.0","74415875","wem/bandit_party_1","A142ZRU284W9O","either","5","467","","","","","","","1","0","0","0.4027270218","","0.2","0.6","0.4","0.8","","","","","0.3649270698","0.4027270218","0.1469425149","0.3152516524","","","","","","","","","","74","J","1","","","24","main_expt",""
"","bandit","104","239293","0.0-66.0-0.0","74415875","wem/bandit_party_1","A142ZRU284W9O","either","5","169","","","","","","","1","0","0","0.4100212433","","0.2","0.6","0.4","0.8","","","","","0.392676409","0.4100212433","0.102794739","0.2778145345","","","","","","","","","","74","J","1","","","25","main_expt",""
"","bandit","105","241161","0.0-67.0-0.0","74415875","wem/bandit_party_1","A142ZRU284W9O","either","5","351","","","","","","","1","0","0","0.4190791169","","0.2","0.6","0.4","0.8","","","","","0.4031565401","0.4190791169","0.1173732637","0.3170506137","","","","","","","","","","74","J","1","","","26","main_expt",""
"","bandit","106","242783","0.0-68.0-0.0","74415875","wem/bandit_party_1","A142ZRU284W9O","either","5","88","","","","","","","0","0","1","0.4527212376","","0.2","0.6","0.4","0.8","","","","","0.4245959001","0.4527212376","0.08835016803","0.3223143746","","","","","","","","","","74","J","1","","","27","main_expt",""
"","bandit","107","244477","0.0-69.0-0.0","74415875","wem/bandit_party_1","A142ZRU284W9O","either","5","81","","","","","","","0","0","1","","0.1134440288","0.2","0.6","0.4","0.8","0.4232885055","0.4480998813","0.1134440288","0.3234472479","","","","","","","","","","","","","","75","K","2","","","28","main_expt",""
"","bandit","108","246038","0.0-70.0-0.0","74415875","wem/bandit_party_1","A142ZRU284W9O","either","5","48","","","","","","","0","0","1","","0.1982905849","0.2","0.6","0.4","0.8","0.4495512981","0.4628669208","0.1982905849","0.2881425904","","","","","","","","","","","","","","75","K","2","","","29","main_expt",""
"","bandit","109","247973","0.0-71.0-0.0","74415875","wem/bandit_party_1","A142ZRU284W9O","either","5","425","","","","","","","0","0","1","0.2326555855","","0.2","0.6","0.4","0.8","","","","","0.4485299892","0.4565655028","0.2366655967","0.2326555855","","","","","","","","","","76","L","3","","","30","main_expt",""
"","bandit","110","249547","0.0-72.0-0.0","74415875","wem/bandit_party_1","A142ZRU284W9O","either","5","54","","","","","","","0","0","1","0.2364604256","","0.2","0.6","0.4","0.8","","","","","0.4599237238","0.4686031056","0.1622470467","0.2364604256","","","","","","","","","","76","L","3","","","31","main_expt",""
"","bandit","111","251379","0.0-73.0-0.0","74415875","wem/bandit_party_1","A142ZRU284W9O","either","5","317","","","","","","","0","1","0","","0.4508116693","0.2","0.6","0.4","0.8","0.4508116693","0.4659582456","0.1771911602","0.2451982598","","","","","","","","","","","","","","72","H","0","img/none_selected.jpg","","32","main_expt",""
"","bandit","112","252981","0.0-74.0-0.0","74415875","wem/bandit_party_1","A142ZRU284W9O","either","5","50","","","","","","","0","0","1","","0.45101727","0.2","0.6","0.4","0.8","0.45101727","0.4810757035","0.1622836308","0.2360369815","","","","","","","","","","","","","","72","H","0","img/none_selected.jpg","","33","main_expt",""
"","bandit","113","254528","0.0-75.0-0.0","74415875","wem/bandit_party_1","A142ZRU284W9O","either","5","15","","","","","","","0","0","1","","0.4340174653","0.2","0.6","0.4","0.8","0.4340174653","0.4842727378","0.1655985557","0.2317763892","","","","","","","","","","","","","","72","H","0","img/none_selected.jpg","","34","main_expt",""
"","bandit","114","256790","0.0-76.0-0.0","74415875","wem/bandit_party_1","A142ZRU284W9O","either","5","740","","","","","","","0","0","1","","0.4040147441","0.2","0.6","0.4","0.8","0.4040147441","0.4745470136","0.1492797185","0.2527891731","","","","","","","","","","","","","","72","H","0","img/none_selected.jpg","","35","main_expt",""
"","bandit","115","258524","0.0-77.0-0.0","74415875","wem/bandit_party_1","A142ZRU284W9O","either","5","193","","","","","","","1","0","0","0.4440965139","","0.2","0.6","0.4","0.8","","","","","0.4268829696","0.4440965139","0.1504543003","0.2641283143","","","","","","","","","","74","J","1","","","36","main_expt",""
"","bandit","116","261226","0.0-78.0-0.0","74415875","wem/bandit_party_1","A142ZRU284W9O","either","5","1190","","","","","","","0","0","1","","0.4544425755","0.2","0.6","0.4","0.8","0.4562327564","0.4544425755","0.1064249526","0.2309310423","","","","","","","","","","","","","","74","J","1","","","37","main_expt",""
"","bandit","117","263223","0.0-79.0-0.0","74415875","wem/bandit_party_1","A142ZRU284W9O","either","5","481","","","","","","","0","0","1","","0.4700138218","0.2","0.6","0.4","0.8","0.4481627861","0.4700138218","0.1346530267","0.2093170459","","","","","","","","","","","","","","74","J","1","","","38","main_expt",""
"","bandit","118","264742","0.0-80.0-0.0","74415875","wem/bandit_party_1","A142ZRU284W9O","either","5","6","","","","","","","0","0","1","0.466948448","","0.2","0.6","0.4","0.8","","","","","0.4475890948","0.466948448","0.1303494481","0.1398625959","","","","","","","","","","74","J","1","","","39","main_expt",""
"","bandit","119","266382","0.0-81.0-0.0","74415875","wem/bandit_party_1","A142ZRU284W9O","either","5","129","","","","","","","0","0","1","","0.4679256248","0.2","0.6","0.4","0.8","0.4501575696","0.4679256248","0.1492074344","0.09690087606","","","","","","","","","","","","","","74","J","1","","","40","main_expt",""
"","bandit","120","268657","0.0-82.0-0.0","74415875","wem/bandit_party_1","A142ZRU284W9O","either","5","685","","","","","","","1","0","0","0.4121884666","","0.2","0.6","0.4","0.8","","","","","0.4121884666","0.445537573","0.1370672299","0.1129569356","","","","","","","","","","72","H","0","img/none_selected.jpg","","41","main_expt",""
"","bandit","121","270260","0.0-83.0-0.0","74415875","wem/bandit_party_1","A142ZRU284W9O","either","5","93","","","","","","","0","0","1","","0.4379939247","0.2","0.6","0.4","0.8","0.4379939247","0.4521531226","0.08144147181","0.1227033228","","","","","","","","","","","","","","72","H","0","img/none_selected.jpg","","42","main_expt",""
"","bandit","122","271910","0.0-84.0-0.0","74415875","wem/bandit_party_1","A142ZRU284W9O","either","5","135","","","","","","","0","1","0","","0.4271747655","0.2","0.6","0.4","0.8","0.4271747655","0.4695072217","0.06793865388","0.08393287497","","","","","","","","","","","","","","72","H","0","img/none_selected.jpg","","43","main_expt",""
"","bandit","123","273696","0.0-85.0-0.0","74415875","wem/bandit_party_1","A142ZRU284W9O","either","5","255","","","","","","","0","1","0","","0.4480494518","0.2","0.6","0.4","0.8","0.4480494518","0.4807409838","0.05295344446","0.06260074275","","","","","","","","","","","","","","72","H","0","img/none_selected.jpg","","44","main_expt",""
"","bandit","124","275532","0.0-86.0-0.0","74415875","wem/bandit_party_1","A142ZRU284W9O","either","5","260","","","","","","","0","0","1","","0.4269729589","0.2","0.6","0.4","0.8","0.4269729589","0.4507048108","0.02744239742","0.08062123592","","","","","","","","","","","","","","72","H","0","img/none_selected.jpg","","45","main_expt",""
"","bandit","125","277119","0.0-87.0-0.0","74415875","wem/bandit_party_1","A142ZRU284W9O","either","5","24","","","","","","","0","0","1","0.4382321206","","0.2","0.6","0.4","0.8","","","","","0.4475746277","0.4382321206","0.02347437243","0.1110847749","","","","","","","","","","74","J","1","","","46","main_expt",""
"","bandit","126","279081","0.0-88.0-0.0","74415875","wem/bandit_party_1","A142ZRU284W9O","either","5","444","","","","","","","0","1","0","","0.4295618238","0.2","0.6","0.4","0.8","0.4295618238","0.4393937913","0.02418160198","0.05346849493","","","","","","","","","","","","","","72","H","0","img/none_selected.jpg","","47","main_expt",""
"","bandit","127","280625","0.0-89.0-0.0","74415875","wem/bandit_party_1","A142ZRU284W9O","either","5","34","","","","","","","1","0","0","0.4431907244","","0.2","0.6","0.4","0.8","","","","","0.4431907244","0.440318131","0.01182676654","0.04499733497","","","","","","","","","","72","H","0","img/none_selected.jpg","","48","main_expt",""
"","bandit","128","282301","0.0-90.0-0.0","74415875","wem/bandit_party_1","A142ZRU284W9O","either","5","163","","","","","","","0","0","1","","0.4187732916","0.2","0.6","0.4","0.8","0.4187732916","0.4362102412","0.0186287842","0.07378534534","","","","","","","","","","","","","","72","H","0","img/none_selected.jpg","","49","main_expt",""
"","bandit","129","283827","0.0-91.0-0.0","74415875","wem/bandit_party_1","A142ZRU284W9O","either","5","10","","","","","","","1","0","0","0.44488671","","0.2","0.6","0.4","0.8","","","","","0.356579213","0.44488671","0.02550629551","0.06168845619","","","","","","","","","","74","J","1","","","50","main_expt",""
"","bandit","130","285605","0.0-92.0-0.0","74415875","wem/bandit_party_1","A142ZRU284W9O","either","5","212","","","","","","","0","1","0","","0.4633405548","0.2","0.6","0.4","0.8","0.2629404955","0.4633405548","0.04366809707","0.1062028567","","","","","","","","","","","","","","74","J","1","","","51","main_expt",""
"","bandit","131","288733","0.0-93.0-0.0","74415875","wem/bandit_party_1","A142ZRU284W9O","either","5","1570","","","","","","","0","0","1","","0.2919747068","0.2","0.6","0.4","0.8","0.2919747068","0.4528043762","0.04357168116","0.1379608546","","","","","","","","","","","","","","72","H","0","img/none_selected.jpg","","52","main_expt",""
"","bandit","132","290501","0.0-94.0-0.0","74415875","wem/bandit_party_1","A142ZRU284W9O","either","5","248","","","","","","","0","0","1","","0.4390431751","0.2","0.6","0.4","0.8","0.3809901122","0.4390431751","0.03899227154","0.1356826849","","","","","","","","","","","","","","74","J","1","","","53","main_expt",""
"","bandit","133","292156","0.0-95.0-0.0","74415875","wem/bandit_party_1","A142ZRU284W9O","either","5","144","","","","","","","0","0","1","0.04009146386","","0.2","0.6","0.4","0.8","","","","","0.3452518694","0.4549270822","0.04009146386","0.1038772241","","","","","","","","","","75","K","2","","","54","main_expt",""
"","bandit","134","293887","0.0-96.0-0.0","74415875","wem/bandit_party_1","A142ZRU284W9O","either","5","222","","","","","","","0","0","1","0.1689791829","","0.2","0.6","0.4","0.8","","","","","0.3263112327","0.4710341864","0.0155768565","0.1689791829","","","","","","","","","","76","L","3","","","55","main_expt",""
"","bandit","135","295573","0.0-97.0-0.0","74415875","wem/bandit_party_1","A142ZRU284W9O","either","5","142","","","","","","","0","0","1","","0.1108888145","0.2","0.6","0.4","0.8","0.3308963945","0.4745834276","0.02112461672","0.1108888145","","","","","","","","","","","","","","76","L","3","","","56","main_expt",""
"","bandit","136","297206","0.0-98.0-0.0","74415875","wem/bandit_party_1","A142ZRU284W9O","either","5","119","","","","","","","0","0","1","","0.0126553198","0.2","0.6","0.4","0.8","0.3150326571","0.489318572","0.0126553198","0.1206542402","","","","","","","","","","","","","","75","K","2","","","57","main_expt",""
"","bandit","137","299696","0.0-99.0-0.0","74415875","wem/bandit_party_1","A142ZRU284W9O","either","5","974","","","","","","","1","0","0","0.480037986","","0.2","0.6","0.4","0.8","","","","","0.3049116772","0.480037986","0.01131359515","0.09707343937","","","","","","","","","","74","J","1","","","58","main_expt",""
"","bandit","138","301490","0.0-100.0-0.0","74415875","wem/bandit_party_1","A142ZRU284W9O","either","5","152","","","","","","","0","1","0","","0.4593461039","0.2","0.6","0.4","0.8","0.3050987947","0.4593461039","0.01030075821","0.1044384952","","","","","","","","","","","","","","74","J","1","","","59","main_expt",""
"","bandit","139","303372","0.0-101.0-0.0","74415875","wem/bandit_party_1","A142ZRU284W9O","either","5","356","","","","","","","0","0","1","0.446051488","","0.2","0.6","0.4","0.8","","","","","0.3274009355","0.446051488","0.005868957973","0.08890369623","","","","","","","","","","74","J","1","","","60","main_expt",""
"","bandit","140","305105","0.0-102.0-0.0","74415875","wem/bandit_party_1","A142ZRU284W9O","either","5","176","","","","","","","0","1","0","","0.4391285327","0.2","0.6","0.4","0.8","0.3428943983","0.4391285327","0.004361943215","0.08921221942","","","","","","","","","","","","","","74","J","1","","","61","main_expt",""
"","bandit","141","306834","0.0-103.0-0.0","74415875","wem/bandit_party_1","A142ZRU284W9O","either","5","218","","","","","","","0","0","1","0.4063883723","","0.2","0.6","0.4","0.8","","","","","0.3549763931","0.4063883723","0.005208412743","0.09812025034","","","","","","","","","","74","J","1","","","62","main_expt",""
"","bandit","142","308468","0.0-104.0-0.0","74415875","wem/bandit_party_1","A142ZRU284W9O","either","5","64","","","","","","","0","0","1","","0.4330387396","0.2","0.6","0.4","0.8","0.3496678451","0.4330387396","0.006461011255","0.09006279409","","","","","","","","","","","","","","74","J","1","","","63","main_expt",""
"","bandit","143","310105","0.0-105.0-0.0","74415875","wem/bandit_party_1","A142ZRU284W9O","either","5","125","","","","","","","0","0","1","0.4207902426","","0.2","0.6","0.4","0.8","","","","","0.3188537263","0.4207902426","0.01267926231","0.1118976224","","","","","","","","","","74","J","1","","","64","main_expt",""
"","bandit","144","311826","0.0-106.0-0.0","74415875","wem/bandit_party_1","A142ZRU284W9O","either","5","191","","","","","","","0","0","1","0.3719582347","","0.2","0.6","0.4","0.8","","","","","0.3191795336","0.3719582347","0.009732787917","0.1053817613","","","","","","","","","","74","J","1","","","65","main_expt",""
"","bandit","145","313390","0.0-107.0-0.0","74415875","wem/bandit_party_1","A142ZRU284W9O","either","5","39","","","","","","","0","0","1","","0.268616347","0.2","0.6","0.4","0.8","0.268616347","0.3748569955","0.01092542651","0.1307356695","","","","","","","","","","","","","","72","H","0","img/none_selected.jpg","","66","main_expt",""
"","bandit","146","314972","0.0-108.0-0.0","74415875","wem/bandit_party_1","A142ZRU284W9O","either","5","65","","","","","","","0","0","1","","0.259194563","0.2","0.6","0.4","0.8","0.259194563","0.335252031","0.02125534741","0.1418436428","","","","","","","","","","","","","","72","H","0","img/none_selected.jpg","","67","main_expt",""
"","bandit","147","317065","0.0-109.0-0.0","74415875","wem/bandit_party_1","A142ZRU284W9O","either","5","584","","","","","","","0","0","1","0.02360283027","","0.2","0.6","0.4","0.8","","","","","0.2281204868","0.3199157278","0.02360283027","0.1459089566","","","","","","","","","","75","K","2","","","68","main_expt",""
"","bandit","148","318746","0.0-110.0-0.0","74415875","wem/bandit_party_1","A142ZRU284W9O","either","5","49","","","","","","","0","0","1","","0.02539305756","0.2","0.6","0.4","0.8","0.2195844169","0.3068525281","0.02539305756","0.1809721424","","","","","","","","","","","","","","75","K","2","","","69","main_expt",""
"","bandit","149","320256","0.0-111.0-0.0","74415875","wem/bandit_party_1","A142ZRU284W9O","either","5","1","","","","","","","0","0","1","0.1784068974","","0.2","0.6","0.4","0.8","","","","","0.1883338509","0.3181076016","0.05014388586","0.1784068974","","","","","","","","","","76","L","3","","","70","main_expt",""
"","bandit","150","322000","0.0-112.0-0.0","74415875","wem/bandit_party_1","A142ZRU284W9O","either","5","226","","","","","","","0","0","1","0.1973023396","","0.2","0.6","0.4","0.8","","","","","0.1639708178","0.2926426422","0.04209054697","0.1973023396","","","","","","","","","","76","L","3","","","71","main_expt",""
"","bandit","151","323783","0.0-113.0-0.0","74415875","wem/bandit_party_1","A142ZRU284W9O","either","5","272","","","","","","","0","0","1","","0.1312842785","0.2","0.6","0.4","0.8","0.1312842785","0.2380263643","0.05611199342","0.2436342847","","","","","","","","","","","","","","72","H","0","img/none_selected.jpg","","72","main_expt",""
"","bandit","152","326605","0.0-114.0-0.0","74415875","wem/bandit_party_1","A142ZRU284W9O","either","5","1279","","","","","","","0","1","0","","0.2407197948","0.2","0.6","0.4","0.8","0.1805041857","0.2407197948","0.05293238473","0.1992173182","","","","","","","","","","","","","","74","J","1","","","73","main_expt",""
"","bandit","153","328194","0.0-115.0-0.0","74415875","wem/bandit_party_1","A142ZRU284W9O","either","5","78","","","","","","","1","0","0","0.2317468449","","0.2","0.6","0.4","0.8","","","","","0.1739557812","0.2317468449","0.0318456884","0.2347098304","","","","","","","","","","74","J","1","","","74","main_expt",""
"","bandit","154","329769","0.0-116.0-0.0","74415875","wem/bandit_party_1","A142ZRU284W9O","either","5","43","","","","","","","0","0","1","","0.2545997551","0.2","0.6","0.4","0.8","0.2434916027","0.2545997551","0.03873230677","0.2641442137","","","","","","","","","","","","","","74","J","1","","","75","main_expt",""
"","bandit","155","331697","0.0-117.0-0.0","74415875","wem/bandit_party_1","A142ZRU284W9O","either","5","380","","","","","","","0","0","1","0.2890845388","","0.2","0.6","0.4","0.8","","","","","0.2438468568","0.2890845388","0.03304947682","0.3192644053","","","","","","","","","","74","J","1","","","76","main_expt",""
"","bandit","156","333224","0.0-118.0-0.0","74415875","wem/bandit_party_1","A142ZRU284W9O","either","5","2","","","","","","","0","0","1","0.2386362654","","0.2","0.6","0.4","0.8","","","","","0.2425324642","0.2386362654","0.02607887458","0.3351132613","","","","","","","","","","74","J","1","","","77","main_expt",""
"","bandit","157","334995","0.0-119.0-0.0","74415875","wem/bandit_party_1","A142ZRU284W9O","either","5","256","","","","","","","1","0","0","0.2673679704","","0.2","0.6","0.4","0.8","","","","","0.205588479","0.2673679704","0.02492981692","0.3086784207","","","","","","","","","","74","J","1","","","78","main_expt",""
"","bandit","158","337129","0.0-120.0-0.0","74415875","wem/bandit_party_1","A142ZRU284W9O","either","5","623","","","","","","","0","0","1","","0.2813811921","0.2","0.6","0.4","0.8","0.213062191","0.2813811921","0.01824110002","0.3076482073","","","","","","","","","","","","","","74","J","1","","","79","main_expt",""
"","bandit","159","338827","0.0-121.0-0.0","74415875","wem/bandit_party_1","A142ZRU284W9O","either","5","190","","","","","","","1","0","0","0.2419447949","","0.2","0.6","0.4","0.8","","","","","0.1852926048","0.2419447949","0.0202176162","0.3605025214","","","","","","","","","","74","J","1","","","80","main_expt",""
"","bandit","160","340584","0.0-122.0-0.0","74415875","wem/bandit_party_1","A142ZRU284W9O","either","5","166","","","","","","","0","0","1","","0.323481111","0.2","0.6","0.4","0.8","0.2332942271","0.323481111","0.0252752587","0.3286166321","","","","","","","","","","","","","","74","J","1","","","81","main_expt",""
"","bandit","161","342200","0.0-123.0-0.0","74415875","wem/bandit_party_1","A142ZRU284W9O","either","5","103","","","","","","","0","0","1","0.3097244961","","0.2","0.6","0.4","0.8","","","","","0.2087797338","0.3097244961","0.05668457717","0.3459677762","","","","","","","","","","74","J","1","","","82","main_expt",""
"","bandit","162","343892","0.0-124.0-0.0","74415875","wem/bandit_party_1","A142ZRU284W9O","either","5","174","","","","","","","0","0","1","0.2787498647","","0.2","0.6","0.4","0.8","","","","","0.2049979043","0.2787498647","0.07760530004","0.3092751195","","","","","","","","","","74","J","1","","","83","main_expt",""
"","bandit","163","345663","0.0-125.0-0.0","74415875","wem/bandit_party_1","A142ZRU284W9O","either","5","174","","","","","","","0","0","1","","0.2589524449","0.2","0.6","0.4","0.8","0.2151780091","0.2589524449","0.03696005566","0.3044630387","","","","","","","","","","","","","","74","J","1","","","84","main_expt",""
"","bandit","164","349672","0.0-126.0-0.0","74415875","wem/bandit_party_1","A142ZRU284W9O","either","5","2461","","","","","","","0","0","1","","0.2769318636","0.2","0.6","0.4","0.8","0.1497615914","0.2769318636","0.04177257934","0.2812480587","","","","","","","","","","","","","","74","J","1","","","85","main_expt",""
"","bandit","165","356204","0.0-127.0-0.0","74415875","wem/bandit_party_1","A142ZRU284W9O","either","5","5008","","","","","","","0","0","1","0.2849222391","","0.2","0.6","0.4","0.8","","","","","0.1223687677","0.2849222391","0.0385770192","0.2506532223","","","","","","","","","","74","J","1","","","86","main_expt",""
"","bandit","166","358907","0.0-128.0-0.0","74415875","wem/bandit_party_1","A142ZRU284W9O","either","5","1185","","","","","","","0","0","1","","0.3131087309","0.2","0.6","0.4","0.8","0.1472857413","0.3131087309","0.03720252147","0.2269900387","","","","","","","","","","","","","","74","J","1","","","87","main_expt",""
"","bandit","167","360882","0.0-129.0-0.0","74415875","wem/bandit_party_1","A142ZRU284W9O","either","5","459","","","","","","","0","0","1","","0.1252586248","0.2","0.6","0.4","0.8","0.1252586248","0.3038587512","0.06746059371","0.1504729919","","","","","","","","","","","","","","72","H","0","img/none_selected.jpg","","88","main_expt",""
"","bandit","168","362591","0.0-130.0-0.0","74415875","wem/bandit_party_1","A142ZRU284W9O","either","5","103","","","","","","","0","0","1","","0.1194927994","0.2","0.6","0.4","0.8","0.1194927994","0.3308022157","0.04069757945","0.1382070302","","","","","","","","","","","","","","72","H","0","img/none_selected.jpg","","89","main_expt",""
"","bandit","169","364169","0.0-131.0-0.0","74415875","wem/bandit_party_1","A142ZRU284W9O","either","5","67","","","","","","","0","0","1","0.07325379503","","0.2","0.6","0.4","0.8","","","","","0.1589750007","0.3574922351","0.07325379503","0.1364765349","","","","","","","","","","75","K","2","","","90","main_expt",""
"","bandit","170","365731","0.0-132.0-0.0","74415875","wem/bandit_party_1","A142ZRU284W9O","either","5","44","","","","","","","0","0","1","","0.06877471811","0.2","0.6","0.4","0.8","0.1859960426","0.3729517688","0.06877471811","0.09318196272","","","","","","","","","","","","","","75","K","2","","","91","main_expt",""
"","bandit","171","367550","0.0-133.0-0.0","74415875","wem/bandit_party_1","A142ZRU284W9O","either","5","259","","","","","","","0","0","1","0.06946097624","","0.2","0.6","0.4","0.8","","","","","0.192419488","0.398352994","0.04115987362","0.06946097624","","","","","","","","","","76","L","3","","","92","main_expt",""
"","bandit","172","369122","0.0-134.0-0.0","74415875","wem/bandit_party_1","A142ZRU284W9O","either","5","51","","","","","","","0","0","1","","0.08102832817","0.2","0.6","0.4","0.8","0.1716033463","0.4135860398","0.07078892783","0.08102832817","","","","","","","","","","","","","","76","L","3","","","93","main_expt",""
"","bandit","173","370798","0.0-135.0-0.0","74415875","wem/bandit_party_1","A142ZRU284W9O","either","5","164","","","","","","","0","0","1","","0.3786880174","0.2","0.6","0.4","0.8","0.1935897604","0.3786880174","0.05572868433","0.1271360848","","","","","","","","","","","","","","74","J","1","","","94","main_expt",""
"","bandit","174","372649","0.0-136.0-0.0","74415875","wem/bandit_party_1","A142ZRU284W9O","either","5","279","","","","","","","1","0","0","0.3823424718","","0.2","0.6","0.4","0.8","","","","","0.2193228015","0.3823424718","0.05056929995","0.1097592989","","","","","","","","","","74","J","1","","","95","main_expt",""
"","bandit","175","374648","0.0-137.0-0.0","74415875","wem/bandit_party_1","A142ZRU284W9O","either","5","485","","","","","","","0","0","1","0.3642725552","","0.2","0.6","0.4","0.8","","","","","0.3262643469","0.3642725552","0.04159874267","0.1085490834","","","","","","","","","","74","J","1","","","96","main_expt",""
"","bandit","176","376300","0.0-138.0-0.0","74415875","wem/bandit_party_1","A142ZRU284W9O","either","5","142","","","","","","","0","0","1","","0.3197717944","0.2","0.6","0.4","0.8","0.3207405496","0.3197717944","0.03654451862","0.1049812554","","","","","","","","","","","","","","74","J","1","","","97","main_expt",""
"","bandit","177","377968","0.0-139.0-0.0","74415875","wem/bandit_party_1","A142ZRU284W9O","either","5","155","","","","","","","0","0","1","","0.2514424369","0.2","0.6","0.4","0.8","0.3712856991","0.2514424369","0.04190300095","0.08177978443","","","","","","","","","","","","","","74","J","1","","","98","main_expt",""
"","bandit","178","379579","0.0-140.0-0.0","74415875","wem/bandit_party_1","A142ZRU284W9O","either","5","79","","","","","","","0","1","0","","0.2926772137","0.2","0.6","0.4","0.8","0.3740145378","0.2926772137","0.08742990617","0.07574087804","","","","","","","","","","","","","","74","J","1","","","99","main_expt",""
"","bandit","179","381240","0.0-141.0-0.0","74415875","wem/bandit_party_1","A142ZRU284W9O","either","5","147","","","","","","","0","0","1","","0.234485335","0.2","0.6","0.4","0.8","0.3776295542","0.234485335","0.08966523481","0.07829319678","","","","","","","","","","","","","","74","J","1","","","100","main_expt",""
"","bandit","180","382869","0.0-142.0-0.0","74415875","wem/bandit_party_1","A142ZRU284W9O","either","5","113","","","","","","","1","0","0","0.250352175","","0.2","0.6","0.4","0.8","","","","","0.3592666398","0.250352175","0.07849065771","0.07919243683","","","","","","","","","","74","J","1","","","101","main_expt",""
"","bandit","181","384461","0.0-143.0-0.0","74415875","wem/bandit_party_1","A142ZRU284W9O","either","5","42","","","","","","","1","0","0","0.2139972863","","0.2","0.6","0.4","0.8","","","","","0.3412191773","0.2139972863","0.1054267613","0.1052753188","","","","","","","","","","74","J","1","","","102","main_expt",""
"","bandit","182","386646","0.0-144.0-0.0","74415875","wem/bandit_party_1","A142ZRU284W9O","either","5","653","","","","","","","1","0","0","0.20092706","","0.2","0.6","0.4","0.8","","","","","0.3133100433","0.20092706","0.1120981937","0.1248526142","","","","","","","","","","74","J","1","","","103","main_expt",""
"","bandit","183","388828","0.0-145.0-0.0","74415875","wem/bandit_party_1","A142ZRU284W9O","either","5","575","","","","","","","0","0","1","","0.2305366804","0.2","0.6","0.4","0.8","0.3219148419","0.2305366804","0.1034740879","0.142969925","","","","","","","","","","","","","","74","J","1","","","104","main_expt",""
"","bandit","184","390514","0.0-146.0-0.0","74415875","wem/bandit_party_1","A142ZRU284W9O","either","5","41","","","","","","","0","1","0","","0.2102135581","0.2","0.6","0.4","0.8","0.3300892518","0.2102135581","0.07597240327","0.13947254","","","","","","","","","","","","","","74","J","1","","","105","main_expt",""
"","bandit","185","401043","0.0-147.0-0.0","74415875","wem/bandit_party_1","A142ZRU284W9O","either","5","9019","","","","","","","0","0","1","","0.2219457329","0.2","0.6","0.4","0.8","0.3401839058","0.2219457329","0.1124257427","0.1329526997","","","","","","","","","","","","","","74","J","1","","","106","main_expt",""
"","bandit","186","404406","0.0-148.0-0.0","74415875","wem/bandit_party_1","A142ZRU284W9O","either","5","1816","","","","","","","0","0","1","0.3048423019","","0.2","0.6","0.4","0.8","","","","","0.3784706915","0.3048423019","0.1133168519","0.1727290233","","","","","","","","","","74","J","1","","","107","main_expt",""
"","bandit","187","406887","0.0-149.0-0.0","74415875","wem/bandit_party_1","A142ZRU284W9O","either","5","955","","","","","","","0","0","1","","0.258150515","0.2","0.6","0.4","0.8","0.3945753887","0.258150515","0.1752395656","0.1864487031","","","","","","","","","","","","","","74","J","1","","","108","main_expt",""
"","bandit","188","408704","0.0-150.0-0.0","74415875","wem/bandit_party_1","A142ZRU284W9O","either","5","300","","","","","","","0","1","0","","0.1859129148","0.2","0.6","0.4","0.8","0.356827327","0.1859129148","0.1862973424","0.2463216238","","","","","","","","","","","","","","74","J","1","","","109","main_expt",""
"","bandit","189","410284","0.0-151.0-0.0","74415875","wem/bandit_party_1","A142ZRU284W9O","either","5","71","","","","","","","0","0","1","0.1371624404","","0.2","0.6","0.4","0.8","","","","","0.2344179837","0.1371624404","0.2015845776","0.2431522628","","","","","","","","","","74","J","1","","","110","main_expt",""
"","bandit","190","412352","0.0-152.0-0.0","74415875","wem/bandit_party_1","A142ZRU284W9O","either","5","552","","","","","","","0","0","1","","0.1258232978","0.2","0.6","0.4","0.8","0.2644823096","0.1258232978","0.2003651753","0.1757476643","","","","","","","","","","","","","","74","J","1","","","111","main_expt",""
"","bandit","191","414275","0.0-153.0-0.0","74415875","wem/bandit_party_1","A142ZRU284W9O","either","5","384","","","","","","","0","0","1","","0.28311182","0.2","0.6","0.4","0.8","0.28311182","0.1529967373","0.21392293","0.2451518953","","","","","","","","","","","","","","72","H","0","img/none_selected.jpg","","112","main_expt",""
"","bandit","192","416137","0.0-154.0-0.0","74415875","wem/bandit_party_1","A142ZRU284W9O","either","5","343","","","","","","","0","1","0","","0.1606798039","0.2","0.6","0.4","0.8","0.2413269532","0.148248117","0.1606798039","0.2407836715","","","","","","","","","","","","","","75","K","2","","","113","main_expt",""
"","bandit","193","418019","0.0-155.0-0.0","74415875","wem/bandit_party_1","A142ZRU284W9O","either","5","368","","","","","","","0","0","1","","0.2095980235","0.2","0.6","0.4","0.8","0.3100969134","0.1562208239","0.2095980235","0.3099317417","","","","","","","","","","","","","","75","K","2","","","114","main_expt",""
"","bandit","194","419570","0.0-156.0-0.0","74415875","wem/bandit_party_1","A142ZRU284W9O","either","5","25","","","","","","","0","0","1","","0.2550279667","0.2","0.6","0.4","0.8","0.329842252","0.2138032898","0.2550279667","0.3180754701","","","","","","","","","","","","","","75","K","2","","","115","main_expt",""
"","bandit","195","421252","0.0-157.0-0.0","74415875","wem/bandit_party_1","A142ZRU284W9O","either","5","166","","","","","","","0","0","1","","0.2471764387","0.2","0.6","0.4","0.8","0.3223706096","0.2331260325","0.2471764387","0.2919742107","","","","","","","","","","","","","","75","K","2","","","116","main_expt",""
"","bandit","196","423650","0.0-158.0-0.0","74415875","wem/bandit_party_1","A142ZRU284W9O","either","5","851","","","","","","","0","0","1","0.2730878341","","0.2","0.6","0.4","0.8","","","","","0.3098408215","0.1826309729","0.2730878341","0.2799774295","","","","","","","","","","75","K","2","","","117","main_expt",""
"","bandit","197","425557","0.0-159.0-0.0","74415875","wem/bandit_party_1","A142ZRU284W9O","either","5","380","","","","","","","1","0","0","0.2646714695","","0.2","0.6","0.4","0.8","","","","","0.2974554567","0.1511269107","0.2071462199","0.2646714695","","","","","","","","","","76","L","3","","","118","main_expt",""
"","bandit","198","427080","0.0-160.0-0.0","74415875","wem/bandit_party_1","A142ZRU284W9O","either","5","9","","","","","","","0","0","1","0.3179839519","","0.2","0.6","0.4","0.8","","","","","0.3598468986","0.1559979654","0.2275232499","0.3179839519","","","","","","","","","","76","L","3","","","119","main_expt",""
"","bandit","199","429010","0.0-161.0-0.0","74415875","wem/bandit_party_1","A142ZRU284W9O","either","5","388","","","","","","","1","0","0","0.3302262658","","0.2","0.6","0.4","0.8","","","","","0.2984373086","0.1463004055","0.2767559596","0.3302262658","","","","","","","","","","76","L","3","","","120","main_expt",""
"","bandit","200","430661","0.0-162.0-0.0","74415875","wem/bandit_party_1","A142ZRU284W9O","either","5","138","","","","","","","1","0","0","0.3500549905","","0.2","0.6","0.4","0.8","","","","","0.2973090059","0.1418195479","0.3448590315","0.3500549905","","","","","","","","","","76","L","3","","","121","main_expt",""
"","bandit","201","432319","0.0-163.0-0.0","74415875","wem/bandit_party_1","A142ZRU284W9O","either","5","140","","","","","","","0","0","1","0.2686616284","","0.2","0.6","0.4","0.8","","","","","0.3382791822","0.1270782113","0.3593301016","0.2686616284","","","","","","","","","","76","L","3","","","122","main_expt",""
"","bandit","202","433985","0.0-164.0-0.0","74415875","wem/bandit_party_1","A142ZRU284W9O","either","5","146","","","","","","","0","0","1","0.2277230314","","0.2","0.6","0.4","0.8","","","","","0.3154347028","0.1207154071","0.3680529171","0.2277230314","","","","","","","","","","76","L","3","","","123","main_expt",""
"","bandit","203","435569","0.0-165.0-0.0","74415875","wem/bandit_party_1","A142ZRU284W9O","either","5","37","","","","","","","0","0","1","0.3287090939","","0.2","0.6","0.4","0.8","","","","","0.2966737815","0.1229329119","0.3476523483","0.3287090939","","","","","","","","","","76","L","3","","","124","main_expt",""
"","bandit","204","437209","0.0-166.0-0.0","74415875","wem/bandit_party_1","A142ZRU284W9O","either","5","121","","","","","","","0","0","1","0.3687339586","","0.2","0.6","0.4","0.8","","","","","0.3094831126","0.09241122996","0.3564603465","0.3687339586","","","","","","","","","","76","L","3","","","125","main_expt",""
"","bandit","205","438926","0.0-167.0-0.0","74415875","wem/bandit_party_1","A142ZRU284W9O","either","5","200","","","","","","","0","0","1","0.3836195774","","0.2","0.6","0.4","0.8","","","","","0.2488993205","0.08418962236","0.3550684458","0.3836195774","","","","","","","","","","76","L","3","","","126","main_expt",""
"","bandit","206","440717","0.0-168.0-0.0","74415875","wem/bandit_party_1","A142ZRU284W9O","either","5","275","","","","","","","0","0","1","0.3617365958","","0.2","0.6","0.4","0.8","","","","","0.1953487027","0.154715772","0.3235559827","0.3617365958","","","","","","","","","","76","L","3","","","127","main_expt",""
"","bandit","207","442510","0.0-169.0-0.0","74415875","wem/bandit_party_1","A142ZRU284W9O","either","5","255","","","","","","","0","0","1","0.3235283493","","0.2","0.6","0.4","0.8","","","","","0.2171889907","0.1556709078","0.312087491","0.3235283493","","","","","","","","","","76","L","3","","","128","main_expt",""
"","bandit","208","444208","0.0-170.0-0.0","74415875","wem/bandit_party_1","A142ZRU284W9O","either","5","184","","","","","","","0","0","1","","0.2843272188","0.2","0.6","0.4","0.8","0.2467699801","0.1214200615","0.2843272188","0.3453830546","","","","","","","","","","","","","","75","K","2","","","129","main_expt",""
"","bandit","209","445922","0.0-171.0-0.0","74415875","wem/bandit_party_1","A142ZRU284W9O","either","5","199","","","","","","","1","0","0","0.1377283829","","0.2","0.6","0.4","0.8","","","","","0.2814443482","0.1377283829","0.2128416856","0.3242747857","","","","","","","","","","74","J","1","","","130","main_expt",""
"","bandit","210","447608","0.0-172.0-0.0","74415875","wem/bandit_party_1","A142ZRU284W9O","either","5","144","","","","","","","0","0","1","","0.1397421628","0.2","0.6","0.4","0.8","0.2834176508","0.1397421628","0.2403879813","0.3417201858","","","","","","","","","","","","","","74","J","1","","","131","main_expt",""
"","bandit","211","449347","0.0-173.0-0.0","74415875","wem/bandit_party_1","A142ZRU284W9O","either","5","197","","","","","","","0","0","1","","0.1061875113","0.2","0.6","0.4","0.8","0.2429908031","0.1061875113","0.2811421594","0.3498614837","","","","","","","","","","","","","","74","J","1","","","132","main_expt",""
"","bandit","212","451055","0.0-174.0-0.0","74415875","wem/bandit_party_1","A142ZRU284W9O","either","5","190","","","","","","","0","0","1","0.07774811701","","0.2","0.6","0.4","0.8","","","","","0.3053559495","0.07774811701","0.3002858371","0.3134828643","","","","","","","","","","74","J","1","","","133","main_expt",""
"","bandit","213","452787","0.0-175.0-0.0","74415875","wem/bandit_party_1","A142ZRU284W9O","either","5","184","","","","","","","0","0","1","","0.08211281178","0.2","0.6","0.4","0.8","0.2693478067","0.08211281178","0.277406375","0.3554593188","","","","","","","","","","","","","","74","J","1","","","134","main_expt",""
"","bandit","214","454501","0.0-176.0-0.0","74415875","wem/bandit_party_1","A142ZRU284W9O","either","5","121","","","","","","","0","0","1","","0.3369166079","0.2","0.6","0.4","0.8","0.3369166079","0.1123817552","0.2897147582","0.3150900126","","","","","","","","","","","","","","72","H","0","img/none_selected.jpg","","135","main_expt",""
"","bandit","215","456050","0.0-177.0-0.0","74415875","wem/bandit_party_1","A142ZRU284W9O","either","5","11","","","","","","","0","0","1","0.1478339482","","0.2","0.6","0.4","0.8","","","","","0.268603144","0.1478339482","0.3590576628","0.3199395785","","","","","","","","","","74","J","1","","","136","main_expt",""
"","bandit","216","457636","0.0-178.0-0.0","74415875","wem/bandit_party_1","A142ZRU284W9O","either","5","44","","","","","","","1","0","0","0.33362357","","0.2","0.6","0.4","0.8","","","","","0.2373427956","0.1374936615","0.3822427384","0.33362357","","","","","","","","","","76","L","3","","","137","main_expt",""
"","bandit","217","459269","0.0-179.0-0.0","74415875","wem/bandit_party_1","A142ZRU284W9O","either","5","106","","","","","","","0","1","0","","0.3611324022","0.2","0.6","0.4","0.8","0.2206869265","0.159761955","0.3410071165","0.3611324022","","","","","","","","","","","","","","76","L","3","","","138","main_expt",""
"","bandit","218","461021","0.0-180.0-0.0","74415875","wem/bandit_party_1","A142ZRU284W9O","either","5","233","","","","","","","0","0","1","0.3504145086","","0.2","0.6","0.4","0.8","","","","","0.2177966349","0.1363721132","0.3738014659","0.3504145086","","","","","","","","","","76","L","3","","","139","main_expt",""
"","bandit","219","462920","0.0-181.0-0.0","74415875","wem/bandit_party_1","A142ZRU284W9O","either","5","383","","","","","","","0","0","1","","0.309774603","0.2","0.6","0.4","0.8","0.2387685432","0.1031445192","0.422575493","0.309774603","","","","","","","","","","","","","","76","L","3","","","140","main_expt",""
"","bandit","220","464610","0.0-182.0-0.0","74415875","wem/bandit_party_1","A142ZRU284W9O","either","5","139","","","","","","","0","0","1","0.3506531288","","0.2","0.6","0.4","0.8","","","","","0.2575087366","0.09805286369","0.4439129864","0.3506531288","","","","","","","","","","76","L","3","","","141","main_expt",""
"","bandit","221","466294","0.0-183.0-0.0","74415875","wem/bandit_party_1","A142ZRU284W9O","either","5","166","","","","","","","0","0","1","0.2965027242","","0.2","0.6","0.4","0.8","","","","","0.2392038972","0.1149002948","0.4323802182","0.2965027242","","","","","","","","","","76","L","3","","","142","main_expt",""
"","bandit","222","467892","0.0-184.0-0.0","74415875","wem/bandit_party_1","A142ZRU284W9O","either","5","85","","","","","","","0","0","1","","0.4358412593","0.2","0.6","0.4","0.8","0.2216470548","0.1209542099","0.4358412593","0.2087517366","","","","","","","","","","","","","","75","K","2","","","143","main_expt",""
"","bandit","223","469542","0.0-185.0-0.0","74415875","wem/bandit_party_1","A142ZRU284W9O","either","5","53","","","","","","","0","1","0","","0.4407373256","0.2","0.6","0.4","0.8","0.2224896139","0.1202521083","0.4407373256","0.2313605626","","","","","","","","","","","","","","75","K","2","","","144","main_expt",""
"","bandit","224","471133","0.0-186.0-0.0","74415875","wem/bandit_party_1","A142ZRU284W9O","either","5","26","","","","","","","0","0","1","","0.4661091035","0.2","0.6","0.4","0.8","0.1925605464","0.1619743669","0.4661091035","0.1785565547","","","","","","","","","","","","","","75","K","2","","","145","main_expt",""
"","bandit","225","472681","0.0-187.0-0.0","74415875","wem/bandit_party_1","A142ZRU284W9O","either","5","18","","","","","","","1","0","0","0.4637097668","","0.2","0.6","0.4","0.8","","","","","0.2069800611","0.1664631043","0.4637097668","0.1770660648","","","","","","","","","","75","K","2","","","146","main_expt",""
"","bandit","226","474760","0.0-188.0-0.0","74415875","wem/bandit_party_1","A142ZRU284W9O","either","5","512","","","","","","","0","0","1","","0.4700491642","0.2","0.6","0.4","0.8","0.2489662189","0.1669241763","0.4700491642","0.1063371611","","","","","","","","","","","","","","75","K","2","","","147","main_expt",""
"","bandit","227","476557","0.0-189.0-0.0","74415875","wem/bandit_party_1","A142ZRU284W9O","either","5","200","","","","","","","0","0","1","0.4648109734","","0.2","0.6","0.4","0.8","","","","","0.1946464158","0.1581456949","0.4648109734","0.1216370817","","","","","","","","","","75","K","2","","","148","main_expt",""
"","bandit","228","478108","0.0-190.0-0.0","74415875","wem/bandit_party_1","A142ZRU284W9O","either","5","36","","","","","","","0","0","1","","0.1024256959","0.2","0.6","0.4","0.8","0.1826562491","0.1698392466","0.4635511513","0.1024256959","","","","","","","","","","","","","","76","L","3","","","149","main_expt",""
"","bandit","229","480141","0.0-191.0-0.0","74415875","wem/bandit_party_1","A142ZRU284W9O","either","5","505","","","","","","","0","0","1","0.1371094633","","0.2","0.6","0.4","0.8","","","","","0.1750473563","0.2140114634","0.4445017148","0.1371094633","","","","","","","","","","76","L","3","","","150","main_expt",""
"","bandit","230","481824","0.0-192.0-0.0","74415875","wem/bandit_party_1","A142ZRU284W9O","either","5","1","","","","","","","0","0","1","","0.4434799742","0.2","0.6","0.4","0.8","0.1109536645","0.2392960001","0.4434799742","0.1702433702","","","","","","","","","","","","","","75","K","2","","","151","main_expt",""
"","bandit","231","483659","0.0-193.0-0.0","74415875","wem/bandit_party_1","A142ZRU284W9O","either","5","292","","","","","","","0","1","0","","0.4451665291","0.2","0.6","0.4","0.8","0.1143086707","0.2095863317","0.4451665291","0.1860489046","","","","","","","","","","","","","","75","K","2","","","152","main_expt",""
"","bandit","232","485691","0.0-194.0-0.0","74415875","wem/bandit_party_1","A142ZRU284W9O","either","5","472","","","","","","","0","0","1","","0.4401532833","0.2","0.6","0.4","0.8","0.1236290712","0.2543258611","0.4401532833","0.2117094388","","","","","","","","","","","","","","75","K","2","","","153","main_expt",""
"","bandit","233","487528","0.0-195.0-0.0","74415875","wem/bandit_party_1","A142ZRU284W9O","either","5","290","","","","","","","0","0","1","0.4516855879","","0.2","0.6","0.4","0.8","","","","","0.1600695342","0.2602259906","0.4516855879","0.2072389033","","","","","","","","","","75","K","2","","","154","main_expt",""
"","bandit","234","489171","0.0-196.0-0.0","74415875","wem/bandit_party_1","A142ZRU284W9O","either","5","133","","","","","","","0","0","1","0.4480264808","","0.2","0.6","0.4","0.8","","","","","0.1770288166","0.2750581274","0.4480264808","0.1986333914","","","","","","","","","","75","K","2","","","155","main_expt",""
"","bandit","235","490743","0.0-197.0-0.0","74415875","wem/bandit_party_1","A142ZRU284W9O","either","5","27","","","","","","","0","0","1","0.2054640346","","0.2","0.6","0.4","0.8","","","","","0.1761817894","0.2438045727","0.4260414265","0.2054640346","","","","","","","","","","76","L","3","","","156","main_expt",""
"","bandit","236","492451","0.0-198.0-0.0","74415875","wem/bandit_party_1","A142ZRU284W9O","either","5","157","","","","","","","0","0","1","0.1810715383","","0.2","0.6","0.4","0.8","","","","","0.1998830888","0.2857025143","0.4365201507","0.1810715383","","","","","","","","","","76","L","3","","","157","main_expt",""
"","bandit","237","494112","0.0-199.0-0.0","74415875","wem/bandit_party_1","A142ZRU284W9O","either","5","150","","","","","","","0","0","1","0.4076244479","","0.2","0.6","0.4","0.8","","","","","0.2150354531","0.2887719476","0.4076244479","0.2118906364","","","","","","","","","","75","K","2","","","158","main_expt",""
"","bandit","238","495917","0.0-200.0-0.0","74415875","wem/bandit_party_1","A142ZRU284W9O","either","5","279","","","","","","","1","0","0","0.403953851","","0.2","0.6","0.4","0.8","","","","","0.2221069796","0.2859462397","0.403953851","0.2293976715","","","","","","","","","","75","K","2","","","159","main_expt",""
"","bandit","239","497456","0.0-201.0-0.0","74415875","wem/bandit_party_1","A142ZRU284W9O","either","5","1","","","","","","","0","1","0","","0.4282135537","0.2","0.6","0.4","0.8","0.2627335039","0.207432816","0.4282135537","0.2186051381","","","","","","","","","","","","","","75","K","2","","","160","main_expt",""
"","bandit","240","498982","0.0-202.0-0.0","74415875","wem/bandit_party_1","A142ZRU284W9O","either","5","1","","","","","","","0","0","1","0.4479073124","","0.2","0.6","0.4","0.8","","","","","0.2922457848","0.1611694724","0.4479073124","0.2175927206","","","","","","","","","","75","K","2","","","161","main_expt",""
"","bandit","241","500987","0.0-203.0-0.0","74415875","wem/bandit_party_1","A142ZRU284W9O","either","5","493","","","","","","","0","0","1","0.2370404117","","0.2","0.6","0.4","0.8","","","","","0.3040212123","0.14378348","0.4456201243","0.2370404117","","","","","","","","","","76","L","3","","","162","main_expt",""
"","bandit","242","502931","0.0-204.0-0.0","74415875","wem/bandit_party_1","A142ZRU284W9O","either","5","415","","","","","","","0","0","1","0.2778780432","","0.2","0.6","0.4","0.8","","","","","0.2933359027","0.1707099899","0.4384930657","0.2778780432","","","","","","","","","","76","L","3","","","163","main_expt",""
"","bandit","243","504646","0.0-205.0-0.0","74415875","wem/bandit_party_1","A142ZRU284W9O","either","5","196","","","","","","","0","0","1","0.4231568034","","0.2","0.6","0.4","0.8","","","","","0.2388203062","0.1933693166","0.4231568034","0.2643388611","","","","","","","","","","75","K","2","","","164","main_expt",""
"","bandit","244","506506","0.0-206.0-0.0","74415875","wem/bandit_party_1","A142ZRU284W9O","either","5","276","","","","","","","0","0","1","","0.1967204453","0.2","0.6","0.4","0.8","0.2646204916","0.2406324952","0.4412535734","0.1967204453","","","","","","","","","","","","","","76","L","3","","","165","main_expt",""
"","bandit","245","508289","0.0-207.0-0.0","74415875","wem/bandit_party_1","A142ZRU284W9O","either","5","238","","","","","","","0","1","0","","0.438364003","0.2","0.6","0.4","0.8","0.2591758032","0.2650462377","0.438364003","0.1567937345","","","","","","","","","","","","","","75","K","2","","","166","main_expt",""
"","bandit","246","510010","0.0-208.0-0.0","74415875","wem/bandit_party_1","A142ZRU284W9O","either","5","203","","","","","","","0","0","1","","0.4290991351","0.2","0.6","0.4","0.8","0.1955934818","0.245875583","0.4290991351","0.1201482918","","","","","","","","","","","","","","75","K","2","","","167","main_expt",""
"","bandit","247","511695","0.0-209.0-0.0","74415875","wem/bandit_party_1","A142ZRU284W9O","either","5","159","","","","","","","0","0","1","0.0936051119","","0.2","0.6","0.4","0.8","","","","","0.2090603634","0.257303599","0.4510860662","0.0936051119","","","","","","","","","","76","L","3","","","168","main_expt",""
"","bandit","248","513227","0.0-210.0-0.0","74415875","wem/bandit_party_1","A142ZRU284W9O","either","5","3","","","","","","","0","1","0","","0.4491424364","0.2","0.6","0.4","0.8","0.2678479696","0.2993732043","0.4491424364","0.08775096918","","","","","","","","","","","","","","75","K","2","","","169","main_expt",""
"","bandit","249","515133","0.0-211.0-0.0","74415875","wem/bandit_party_1","A142ZRU284W9O","either","5","339","","","","","","","1","0","0","0.4332244901","","0.2","0.6","0.4","0.8","","","","","0.2532125956","0.3388977639","0.4332244901","0.06743429675","","","","","","","","","","75","K","2","","","170","main_expt",""
"","bandit","250","516663","0.0-212.0-0.0","74415875","wem/bandit_party_1","A142ZRU284W9O","either","5","12","","","","","","","0","1","0","","0.4405036994","0.2","0.6","0.4","0.8","0.2568627054","0.2947926635","0.4405036994","0.05979118822","","","","","","","","","","","","","","75","K","2","","","171","main_expt",""
"","bandit","251","518243","0.0-213.0-0.0","74415875","wem/bandit_party_1","A142ZRU284W9O","either","5","67","","","","","","","0","0","1","","0.4358521759","0.2","0.6","0.4","0.8","0.2451563353","0.2892529657","0.4358521759","0.03200499914","","","","","","","","","","","","","","75","K","2","","","172","main_expt",""
"","bandit","252","520051","0.0-214.0-0.0","74415875","wem/bandit_party_1","A142ZRU284W9O","either","5","277","","","","","","","0","0","1","","0.4471617722","0.2","0.6","0.4","0.8","0.3003395367","0.2571917514","0.4471617722","0.04613358223","","","","","","","","","","","","","","75","K","2","","","173","main_expt",""
"","bandit","253","521802","0.0-215.0-0.0","74415875","wem/bandit_party_1","A142ZRU284W9O","either","5","230","","","","","","","0","0","1","0.4560251174","","0.2","0.6","0.4","0.8","","","","","0.2545998681","0.244173221","0.4560251174","0.05969677181","","","","","","","","","","75","K","2","","","174","main_expt",""
"","bandit","254","523493","0.0-216.0-0.0","74415875","wem/bandit_party_1","A142ZRU284W9O","either","5","103","","","","","","","0","0","1","0.05930066603","","0.2","0.6","0.4","0.8","","","","","0.3383135611","0.2038098688","0.4379349024","0.05930066603","","","","","","","","","","76","L","3","","","175","main_expt",""
"","bandit","255","525297","0.0-217.0-0.0","74415875","wem/bandit_party_1","A142ZRU284W9O","either","5","278","","","","","","","0","0","1","0.08110879181","","0.2","0.6","0.4","0.8","","","","","0.3880627729","0.2053823003","0.4328841116","0.08110879181","","","","","","","","","","76","L","3","","","176","main_expt",""
"","bandit","256","526984","0.0-218.0-0.0","74415875","wem/bandit_party_1","A142ZRU284W9O","either","5","166","","","","","","","0","0","1","","0.2193083282","0.2","0.6","0.4","0.8","0.3920994557","0.2193083282","0.3965365967","0.07611568943","","","","","","","","","","","","","","74","J","1","","","177","main_expt",""
"","bandit","257","528854","0.0-219.0-0.0","74415875","wem/bandit_party_1","A142ZRU284W9O","either","5","357","","","","","","","0","0","1","","0.1904263594","0.2","0.6","0.4","0.8","0.3882277994","0.1904263594","0.3899234309","0.1220467165","","","","","","","","","","","","","","74","J","1","","","178","main_expt",""
"","bandit","258","530507","0.0-220.0-0.0","74415875","wem/bandit_party_1","A142ZRU284W9O","either","5","58","","","","","","","0","0","1","","0.3939691408","0.2","0.6","0.4","0.8","0.3939691408","0.2212788648","0.4238443777","0.1698853315","","","","","","","","","","","","","","72","H","0","img/none_selected.jpg","","179","main_expt",""
"","bandit","259","532198","0.0-221.0-0.0","74415875","wem/bandit_party_1","A142ZRU284W9O","either","5","159","","","","","","","0","1","0","","0.4074656662","0.2","0.6","0.4","0.8","0.4074656662","0.2640717145","0.4487400994","0.1374762061","","","","","","","","","","","","","","72","H","0","img/none_selected.jpg","","180","main_expt",""
"","bandit","260","533920","0.0-222.0-0.0","74415875","wem/bandit_party_1","A142ZRU284W9O","either","5","211","","","","","","","0","1","0","","0.3724421945","0.2","0.6","0.4","0.8","0.3724421945","0.2426483564","0.4314573438","0.09961924189","","","","","","","","","","","","","","72","H","0","img/none_selected.jpg","","181","main_expt",""
"","bandit","261","535475","0.0-223.0-0.0","74415875","wem/bandit_party_1","A142ZRU284W9O","either","5","18","","","","","","","0","0","1","","0.2998177931","0.2","0.6","0.4","0.8","0.2998177931","0.2001563476","0.4458059303","0.1391043194","","","","","","","","","","","","","","72","H","0","img/none_selected.jpg","","182","main_expt",""
"","bandit","262","537044","0.0-224.0-0.0","74415875","wem/bandit_party_1","A142ZRU284W9O","either","5","47","","","","","","","0","1","0","","0.3629728763","0.2","0.6","0.4","0.8","0.3629728763","0.2167094124","0.4485460149","0.1336424596","","","","","","","","","","","","","","72","H","0","img/none_selected.jpg","","183","main_expt",""
"","bandit","263","538612","0.0-225.0-0.0","74415875","wem/bandit_party_1","A142ZRU284W9O","either","5","35","","","","","","","0","1","0","","0.3763603645","0.2","0.6","0.4","0.8","0.3763603645","0.2402813617","0.4078350507","0.115911235","","","","","","","","","","","","","","72","H","0","img/none_selected.jpg","","184","main_expt",""
"","bandit","264","540176","0.0-226.0-0.0","74415875","wem/bandit_party_1","A142ZRU284W9O","either","5","51","","","","","","","0","0","1","","0.3472982705","0.2","0.6","0.4","0.8","0.3472982705","0.2745112141","0.3805788675","0.1394203739","","","","","","","","","","","","","","72","H","0","img/none_selected.jpg","","185","main_expt",""
"","bandit","265","541832","0.0-227.0-0.0","74415875","wem/bandit_party_1","A142ZRU284W9O","either","5","130","","","","","","","0","1","0","","0.3095995051","0.2","0.6","0.4","0.8","0.3095995051","0.2774566956","0.4236809331","0.1557479742","","","","","","","","","","","","","","72","H","0","img/none_selected.jpg","","186","main_expt",""
"","bandit","266","543615","0.0-228.0-0.0","74415875","wem/bandit_party_1","A142ZRU284W9O","either","5","255","","","","","","","0","0","1","","0.2567332284","0.2","0.6","0.4","0.8","0.2567332284","0.2876011691","0.4058627081","0.1823611596","","","","","","","","","","","","","","72","H","0","img/none_selected.jpg","","187","main_expt",""
"","bandit","267","545309","0.0-229.0-0.0","74415875","wem/bandit_party_1","A142ZRU284W9O","either","5","157","","","","","","","0","0","1","","0.2555256861","0.2","0.6","0.4","0.8","0.2555256861","0.2947112378","0.3913346521","0.1854179297","","","","","","","","","","","","","","72","H","0","img/none_selected.jpg","","188","main_expt",""
"","bandit","268","546962","0.0-230.0-0.0","74415875","wem/bandit_party_1","A142ZRU284W9O","either","5","133","","","","","","","0","0","1","0.3760164219","","0.2","0.6","0.4","0.8","","","","","0.2009875262","0.2581494","0.3760164219","0.1875645599","","","","","","","","","","75","K","2","","","189","main_expt",""
"","bandit","269","548492","0.0-231.0-0.0","74415875","wem/bandit_party_1","A142ZRU284W9O","either","5","1","","","","","","","1","0","0","0.2018323604","","0.2","0.6","0.4","0.8","","","","","0.2055488595","0.1756323468","0.3327352817","0.2018323604","","","","","","","","","","76","L","3","","","190","main_expt",""
"","bandit","270","550018","0.0-232.0-0.0","74415875","wem/bandit_party_1","A142ZRU284W9O","either","5","14","","","","","","","1","0","0","0.221094727","","0.2","0.6","0.4","0.8","","","","","0.1506387864","0.2521570866","0.3015177445","0.221094727","","","","","","","","","","76","L","3","","","191","main_expt",""
"","bandit","271","551719","0.0-233.0-0.0","74415875","wem/bandit_party_1","A142ZRU284W9O","either","5","147","","","","","","","0","0","1","","0.2320570195","0.2","0.6","0.4","0.8","0.2027442266","0.2964739449","0.2773298268","0.2320570195","","","","","","","","","","","","","","76","L","3","","","192","main_expt",""
"","bandit","272","553370","0.0-234.0-0.0","74415875","wem/bandit_party_1","A142ZRU284W9O","either","5","111","","","","","","","0","0","1","0.2948950962","","0.2","0.6","0.4","0.8","","","","","0.1969137872","0.2612966838","0.2836613797","0.2948950962","","","","","","","","","","76","L","3","","","193","main_expt",""
"","bandit","273","555122","0.0-235.0-0.0","74415875","wem/bandit_party_1","A142ZRU284W9O","either","5","89","","","","","","","0","0","1","","0.2602906927","0.2","0.6","0.4","0.8","0.2114994946","0.3292914436","0.2799350415","0.2602906927","","","","","","","","","","","","","","76","L","3","","","194","main_expt",""
"","bandit","274","556789","0.0-236.0-0.0","74415875","wem/bandit_party_1","A142ZRU284W9O","either","5","124","","","","","","","0","0","1","","0.2467939011","0.2","0.6","0.4","0.8","0.2467939011","0.4070308407","0.2068597772","0.1771499101","","","","","","","","","","","","","","72","H","0","img/none_selected.jpg","","195","main_expt",""
"","bandit","275","558535","0.0-237.0-0.0","74415875","wem/bandit_party_1","A142ZRU284W9O","either","5","168","","","","","","","1","0","0","0.2731811988","","0.2","0.6","0.4","0.8","","","","","0.2731811988","0.3494820729","0.2679469531","0.1746274925","","","","","","","","","","72","H","0","img/none_selected.jpg","","196","main_expt",""
"","bandit","276","560229","0.0-238.0-0.0","74415875","wem/bandit_party_1","A142ZRU284W9O","either","5","176","","","","","","","0","1","0","","0.2512114903","0.2","0.6","0.4","0.8","0.2512114903","0.3571939809","0.2448078588","0.193224684","","","","","","","","","","","","","","72","H","0","img/none_selected.jpg","","197","main_expt",""
"","bandit","277","561769","0.0-239.0-0.0","74415875","wem/bandit_party_1","A142ZRU284W9O","either","5","22","","","","","","","0","0","1","","0.190651112","0.2","0.6","0.4","0.8","0.190651112","0.382430028","0.2433987968","0.1771509929","","","","","","","","","","","","","","72","H","0","img/none_selected.jpg","","198","main_expt",""
"","bandit","278","563617","0.0-240.0-0.0","74415875","wem/bandit_party_1","A142ZRU284W9O","either","5","225","","","","","","","0","0","1","","0.1701189695","0.2","0.6","0.4","0.8","0.1701189695","0.3353474301","0.2653624242","0.2466668772","","","","","","","","","","","","","","72","H","0","img/none_selected.jpg","","199","main_expt",""
"","bandit","279","565473","0.0-241.0-0.0","74415875","wem/bandit_party_1","A142ZRU284W9O","either","5","243","","","","","","","0","0","1","","0.1656975488","0.2","0.6","0.4","0.8","0.1656975488","0.3321976498","0.2551376492","0.2477816141","","","","","","","","","","","","","","72","H","0","img/none_selected.jpg","","200","main_expt",""
"","bandit","280","567284","0.0-242.0-0.0","74415875","wem/bandit_party_1","A142ZRU284W9O","either","5","292","","","","","","","0","0","1","","0.1647298582","0.2","0.6","0.4","0.8","0.1647298582","0.3218117355","0.2660639347","0.2744817861","","","","","","","","","","","","","","72","H","0","img/none_selected.jpg","","201","main_expt",""
"","bandit","281","568977","0.0-243.0-0.0","74415875","wem/bandit_party_1","A142ZRU284W9O","either","5","172","","","","","","","0","1","0","","0.1242041815","0.2","0.6","0.4","0.8","0.1242041815","0.2949214693","0.2220900594","0.3043062986","","","","","","","","","","","","","","72","H","0","img/none_selected.jpg","","202","main_expt",""
"","bandit","282","570727","0.0-244.0-0.0","74415875","wem/bandit_party_1","A142ZRU284W9O","either","5","187","","","","","","","0","0","1","","0.1684487429","0.2","0.6","0.4","0.8","0.1684487429","0.300077299","0.1543353204","0.272185569","","","","","","","","","","","","","","72","H","0","img/none_selected.jpg","","203","main_expt",""
"","bandit","283","572245","0.0-245.0-0.0","74415875","wem/bandit_party_1","A142ZRU284W9O","either","5","1","","","","","","","0","0","1","","0.1666409686","0.2","0.6","0.4","0.8","0.1666409686","0.2866085977","0.1605482003","0.2610767704","","","","","","","","","","","","","","72","H","0","img/none_selected.jpg","","204","main_expt",""
"","bandit","284","573951","0.0-246.0-0.0","74415875","wem/bandit_party_1","A142ZRU284W9O","either","5","192","","","","","","","0","0","1","0.2695546272","","0.2","0.6","0.4","0.8","","","","","0.2197286508","0.2695546272","0.1406914754","0.2832615928","","","","","","","","","","74","J","1","","","205","main_expt",""
"","bandit","285","575610","0.0-247.0-0.0","74415875","wem/bandit_party_1","A142ZRU284W9O","either","5","84","","","","","","","0","0","1","","0.1138947463","0.2","0.6","0.4","0.8","0.2754509052","0.2622178416","0.1138947463","0.300913322","","","","","","","","","","","","","","75","K","2","","","206","main_expt",""
"","bandit","286","577235","0.0-248.0-0.0","74415875","wem/bandit_party_1","A142ZRU284W9O","either","5","72","","","","","","","0","0","1","0.3260258847","","0.2","0.6","0.4","0.8","","","","","0.2664869377","0.2498186578","0.1096702189","0.3260258847","","","","","","","","","","76","L","3","","","207","main_expt",""
"","bandit","287","579691","0.0-249.0-0.0","74415875","wem/bandit_party_1","A142ZRU284W9O","either","5","940","","","","","","","0","1","0","","0.2686565688","0.2","0.6","0.4","0.8","0.2686565688","0.2335358635","0.09922356593","0.3173829003","","","","","","","","","","","","","","72","H","0","img/none_selected.jpg","","208","main_expt",""
"","bandit","288","581463","0.0-250.0-0.0","74415875","wem/bandit_party_1","A142ZRU284W9O","either","5","207","","","","","","","0","0","1","","0.2380255957","0.2","0.6","0.4","0.8","0.2380255957","0.2638942681","0.101567507","0.3153846937","","","","","","","","","","","","","","72","H","0","img/none_selected.jpg","","209","main_expt",""
"","bandit","289","583542","0.0-251.0-0.0","74415875","wem/bandit_party_1","A142ZRU284W9O","either","5","513","","","","","","","0","0","1","","0.2507768727","0.2","0.6","0.4","0.8","0.2507768727","0.2526926237","0.08675379402","0.3010876552","","","","","","","","","","","","","","72","H","0","img/none_selected.jpg","","210","main_expt",""
"","bandit","290","585302","0.0-252.0-0.0","74415875","wem/bandit_party_1","A142ZRU284W9O","either","5","237","","","","","","","0","0","1","0.2685142319","","0.2","0.6","0.4","0.8","","","","","0.2685142319","0.2740367769","0.07512021269","0.2864900033","","","","","","","","","","72","H","0","img/none_selected.jpg","","211","main_expt",""
"","bandit","291","587177","0.0-253.0-0.0","74415875","wem/bandit_party_1","A142ZRU284W9O","either","5","357","","","","","","","0","0","1","0.260511483","","0.2","0.6","0.4","0.8","","","","","0.260511483","0.2440836191","0.08144254236","0.3163372434","","","","","","","","","","72","H","0","img/none_selected.jpg","","212","main_expt",""
"","bandit","292","588990","0.0-254.0-0.0","74415875","wem/bandit_party_1","A142ZRU284W9O","either","5","293","","","","","","","0","0","1","","0.2579605047","0.2","0.6","0.4","0.8","0.2579605047","0.2341903104","0.06585574052","0.2701305136","","","","","","","","","","","","","","72","H","0","img/none_selected.jpg","","213","main_expt",""
"","bandit","293","590687","0.0-255.0-0.0","74415875","wem/bandit_party_1","A142ZRU284W9O","either","5","169","","","","","","","0","0","1","","0.2097526345","0.2","0.6","0.4","0.8","0.2470456849","0.2097526345","0.08686614453","0.302599165","","","","","","","","","","","","","","74","J","1","","","214","main_expt",""
"","bandit","294","592210","0.0-256.0-0.0","74415875","wem/bandit_party_1","A142ZRU284W9O","either","5","8","","","","","","","0","0","1","","0.1068548489","0.2","0.6","0.4","0.8","0.3285383036","0.1796882487","0.1068548489","0.2968005471","","","","","","","","","","","","","","75","K","2","","","215","main_expt",""
"","bandit","295","594154","0.0-257.0-0.0","74415875","wem/bandit_party_1","A142ZRU284W9O","either","5","417","","","","","","","0","1","0","","0.2835536598","0.2","0.6","0.4","0.8","0.3780044773","0.2237900511","0.1211736082","0.2835536598","","","","","","","","","","","","","","76","L","3","","","216","main_expt",""
"","bandit","296","595858","0.0-258.0-0.0","74415875","wem/bandit_party_1","A142ZRU284W9O","either","5","183","","","","","","","0","0","1","0.2520762718","","0.2","0.6","0.4","0.8","","","","","0.3939228946","0.2265358539","0.09343701815","0.2520762718","","","","","","","","","","76","L","3","","","217","main_expt",""
"","bandit","297","597528","0.0-259.0-0.0","74415875","wem/bandit_party_1","A142ZRU284W9O","either","5","117","","","","","","","0","0","1","0.2364013437","","0.2","0.6","0.4","0.8","","","","","0.3198270803","0.2364013437","0.1001055386","0.2562699476","","","","","","","","","","74","J","1","","","218","main_expt",""
"","bandit","298","599180","0.0-260.0-0.0","74415875","wem/bandit_party_1","A142ZRU284W9O","either","5","128","","","","","","","0","0","1","","0.3002431464","0.2","0.6","0.4","0.8","0.3502502288","0.2810560361","0.09524874014","0.3002431464","","","","","","","","","","","","","","76","L","3","","","219","main_expt",""
"","bandit","299","601036","0.0-261.0-0.0","74415875","wem/bandit_party_1","A142ZRU284W9O","either","5","340","","","","","","","1","0","0","0.3365413303","","0.2","0.6","0.4","0.8","","","","","0.3402456168","0.3027429446","0.1304899995","0.3365413303","","","","","","","","","","76","L","3","","","220","main_expt",""
"","bandit","300","602844","0.0-262.0-0.0","74415875","wem/bandit_party_1","A142ZRU284W9O","either","5","281","","","","","","","0","0","1","","0.2946103072","0.2","0.6","0.4","0.8","0.3770059732","0.3132134988","0.1272814923","0.2946103072","","","","","","","","","","","","","","76","L","3","","","221","main_expt",""
"","bandit","301","604835","0.0-263.0-0.0","74415875","wem/bandit_party_1","A142ZRU284W9O","either","5","465","","","","","","","0","0","1","0.1654407056","","0.2","0.6","0.4","0.8","","","","","0.3864421123","0.2424821827","0.1654407056","0.3267284332","","","","","","","","","","75","K","2","","","222","main_expt",""
"","bandit","302","606739","0.0-264.0-0.0","74415875","wem/bandit_party_1","A142ZRU284W9O","either","5","357","","","","","","","1","0","0","0.2595367495","","0.2","0.6","0.4","0.8","","","","","0.4205211408","0.2595367495","0.1788325852","0.3175152631","","","","","","","","","","74","J","1","","","223","main_expt",""
"","bandit","303","608564","0.0-265.0-0.0","74415875","wem/bandit_party_1","A142ZRU284W9O","either","5","289","","","","","","","0","0","1","","0.328819141","0.2","0.6","0.4","0.8","0.4131889957","0.328819141","0.1736623033","0.3192400935","","","","","","","","","","","","","","74","J","1","","","224","main_expt",""
"","bandit","304","610613","0.0-266.0-0.0","74415875","wem/bandit_party_1","A142ZRU284W9O","either","5","459","","","","","","","0","1","0","","0.356121412","0.2","0.6","0.4","0.8","0.4001513574","0.356121412","0.1721911447","0.3096750449","","","","","","","","","","","","","","74","J","1","","","225","main_expt",""
"","bandit","305","612525","0.0-267.0-0.0","74415875","wem/bandit_party_1","A142ZRU284W9O","either","5","365","","","","","","","0","0","1","","0.3394019192","0.2","0.6","0.4","0.8","0.3963688582","0.3394019192","0.2133818582","0.3142833063","","","","","","","","","","","","","","74","J","1","","","226","main_expt",""
"","bandit","306","614171","0.0-268.0-0.0","74415875","wem/bandit_party_1","A142ZRU284W9O","either","5","124","","","","","","","0","0","1","","0.3979714495","0.2","0.6","0.4","0.8","0.3979714495","0.2860553004","0.2620007467","0.3096885674","","","","","","","","","","","","","","72","H","0","img/none_selected.jpg","","227","main_expt",""
"","bandit","307","615847","0.0-269.0-0.0","74415875","wem/bandit_party_1","A142ZRU284W9O","either","5","138","","","","","","","0","0","1","","0.3811043637","0.2","0.6","0.4","0.8","0.3811043637","0.2967856672","0.2961930455","0.3048295172","","","","","","","","","","","","","","72","H","0","img/none_selected.jpg","","228","main_expt",""
"","bandit","308","617721","0.0-270.0-0.0","74415875","wem/bandit_party_1","A142ZRU284W9O","either","5","302","","","","","","","0","1","0","","0.2857745529","0.2","0.6","0.4","0.8","0.3488149186","0.2857745529","0.3081123415","0.2553920021","","","","","","","","","","","","","","74","J","1","","","229","main_expt",""
"","bandit","309","619757","0.0-271.0-0.0","74415875","wem/bandit_party_1","A142ZRU284W9O","either","5","472","","","","","","","0","0","1","0.2589404948","","0.2","0.6","0.4","0.8","","","","","0.2883621188","0.2589404948","0.3027177586","0.2783794412","","","","","","","","","","74","J","1","","","230","main_expt",""
"","bandit","310","621775","0.0-272.0-0.0","74415875","wem/bandit_party_1","A142ZRU284W9O","either","5","417","","","","","","","0","0","1","0.2628441024","","0.2","0.6","0.4","0.8","","","","","0.2444465504","0.2628441024","0.2495346478","0.2735536708","","","","","","","","","","74","J","1","","","231","main_expt",""
"","bandit","311","623465","0.0-273.0-0.0","74415875","wem/bandit_party_1","A142ZRU284W9O","either","5","86","","","","","","","0","0","1","0.276537748","","0.2","0.6","0.4","0.8","","","","","0.2996930955","0.276537748","0.2185872191","0.2262440502","","","","","","","","","","74","J","1","","","232","main_expt",""
"","bandit","312","625501","0.0-274.0-0.0","74415875","wem/bandit_party_1","A142ZRU284W9O","either","5","393","","","","","","","0","0","1","","0.3103031796","0.2","0.6","0.4","0.8","0.3103031796","0.2485723575","0.1874863907","0.2171974885","","","","","","","","","","","","","","72","H","0","img/none_selected.jpg","","233","main_expt",""
"","bandit","313","627035","0.0-275.0-0.0","74415875","wem/bandit_party_1","A142ZRU284W9O","either","5","2","","","","","","","0","0","1","","0.2165838284","0.2","0.6","0.4","0.8","0.2971988612","0.2172766866","0.2165838284","0.2951485073","","","","","","","","","","","","","","75","K","2","","","234","main_expt",""
"","bandit","314","628690","0.0-276.0-0.0","74415875","wem/bandit_party_1","A142ZRU284W9O","either","5","65","","","","","","","0","0","1","0.3135740045","","0.2","0.6","0.4","0.8","","","","","0.3266576642","0.221542824","0.1791302586","0.3135740045","","","","","","","","","","76","L","3","","","235","main_expt",""
"","bandit","315","630529","0.0-277.0-0.0","74415875","wem/bandit_party_1","A142ZRU284W9O","either","5","287","","","","","","","0","0","1","","0.3596878827","0.2","0.6","0.4","0.8","0.3596878827","0.2200573756","0.2463713802","0.2945285262","","","","","","","","","","","","","","72","H","0","img/none_selected.jpg","","236","main_expt",""
"","bandit","316","632266","0.0-278.0-0.0","74415875","wem/bandit_party_1","A142ZRU284W9O","either","5","222","","","","","","","0","0","1","0.2146478317","","0.2","0.6","0.4","0.8","","","","","0.3951370387","0.2146478317","0.2204623923","0.2797454337","","","","","","","","","","74","J","1","","","237","main_expt",""
"","bandit","317","633835","0.0-279.0-0.0","74415875","wem/bandit_party_1","A142ZRU284W9O","either","5","37","","","","","","","0","0","1","0.2316256556","","0.2","0.6","0.4","0.8","","","","","0.3863552979","0.2237656472","0.2316256556","0.266453507","","","","","","","","","","75","K","2","","","238","main_expt",""
"","bandit","318","635458","0.0-280.0-0.0","74415875","wem/bandit_party_1","A142ZRU284W9O","either","5","79","","","","","","","0","0","1","0.310831157","","0.2","0.6","0.4","0.8","","","","","0.3962704677","0.2302611888","0.2406304147","0.310831157","","","","","","","","","","76","L","3","","","239","main_expt",""
