"consent","trial_type","trial_index","time_elapsed","internal_node_id","subjID","study","MID","cond","drift","rt","responses","button_pressed","key_press","like","value","connected","gems","bombs","no_reward","GemPrChosen","BombPrChosen","GainOverPainPr_0","GainOverPainPr_1","GainOverPainPr_2","GainOverPainPr_3","LosePr_0","LosePr_1","LosePr_2","LosePr_3","WinPr_0","WinPr_1","WinPr_2","WinPr_3","Q0","Q1","Q2","gender","age","ethnicity","label","expt_phase","target","respCharCode","respKey","respChoiceNum","respChoice","practice","trial_counter","trial_label","Q0_index"
"GDM/GDM_behavioral_consent_30min_online.html","consent","0","31489","0.0-0.0","74466097","wem/bandit_party_1","A3PQ0KHESAZZ0Y","either","5","","","","","","","","","","","","","","","","","","","","","","","","","","","","","","","","","","","","","","","","",""
"","survey-text","1","69057","0.0-1.0","74466097","wem/bandit_party_1","A3PQ0KHESAZZ0Y","either","5","36558","{""Q0"":""A3PQ0KHESAZZ0Y""}","","","","","","","","","","","","","","","","","","","","","","","","","","","","","","","","","","","","","","",""
"","button-response","2","72247","0.0-2.0","74466097","wem/bandit_party_1","A3PQ0KHESAZZ0Y","either","5","2184","","1","","","","","","","","","","","","","","","","","","","","","","","","","","","","","","","","","","","","","",""
"","text-replacement","3","100452","0.0-3.0","74466097","wem/bandit_party_1","A3PQ0KHESAZZ0Y","either","5","27201","","","32","","","","","","","","","","","","","","","","","","","","","","","","","","","","","","","","","","","","",""
"","text-replacement","4","121464","0.0-4.0","74466097","wem/bandit_party_1","A3PQ0KHESAZZ0Y","either","5","21009","","","32","","","","","","","","","","","","","","","","","","","","","","","","","","","","","","","","","","","","",""
"","identification","5","142239","0.0-6.0-0.0","74466097","wem/bandit_party_1","A3PQ0KHESAZZ0Y","either","5","20747","","","","0","1","0","","","","","","","","","","","","","","","","","","","","","","","","pre","identification_pre","the Republican party","","","","","","","",""
"","identification","6","159417","0.0-6.0-1.0","74466097","wem/bandit_party_1","A3PQ0KHESAZZ0Y","either","5","16154","","","","5","5","5","","","","","","","","","","","","","","","","","","","","","","","","pre","identification_pre","the Democratic Party","","","","","","","",""
"","text-replacement","7","172725","0.0-7.0","74466097","wem/bandit_party_1","A3PQ0KHESAZZ0Y","either","5","12304","","","32","","","","","","","","","","","","","","","","","","","","","","","","","","","","","","","","","","","","",""
"","text-replacement","8","186724","0.0-8.0","74466097","wem/bandit_party_1","A3PQ0KHESAZZ0Y","either","5","13996","","","32","","","","","","","","","","","","","","","","","","","","","","","","","","","","","","","","","","","","",""
"","text-replacement","9","211288","0.0-9.0","74466097","wem/bandit_party_1","A3PQ0KHESAZZ0Y","either","5","24560","","","32","","","","","","","","","","","","","","","","","","","","","","","","","","","","","","","","","","","","",""
"","text-replacement","10","221624","0.0-10.0","74466097","wem/bandit_party_1","A3PQ0KHESAZZ0Y","either","5","10334","","","32","","","","","","","","","","","","","","","","","","","","","","","","","","","","","","","","","","","","",""
"","text-replacement","11","231353","0.0-11.0","74466097","wem/bandit_party_1","A3PQ0KHESAZZ0Y","either","5","9724","","","32","","","","","","","","","","","","","","","","","","","","","","","","","","","","","","","","","","","","",""
"","bandit","12","240203","0.0-12.0-0.0","74466097","wem/bandit_party_1","A3PQ0KHESAZZ0Y","either","5","7337","","","","","","","0","0","1","0","0","","","","","0","","","","0","","","","","","","","","","","","","74","J","0","img/none_selected_demo.jpg","true","0","",""
"","bandit","13","250181","0.0-13.0-0.0","74466097","wem/bandit_party_1","A3PQ0KHESAZZ0Y","either","5","8469","","","","","","","0","0","1","0","0","","","","","0","","","","0","","","","","","","","","","","","","75","K","0","img/none_selected_demo.jpg","true","0","",""
"","text-replacement","14","273177","0.0-14.0","74466097","wem/bandit_party_1","A3PQ0KHESAZZ0Y","either","5","22993","","","32","","","","","","","","","","","","","","","","","","","","","","","","","","","","","","","","","","","","",""
"","text-replacement","15","291612","0.0-15.0","74466097","wem/bandit_party_1","A3PQ0KHESAZZ0Y","either","5","18433","","","32","","","","","","","","","","","","","","","","","","","","","","","","","","","","","","","","","","","","",""
"","text-replacement","16","308020","0.0-16.0","74466097","wem/bandit_party_1","A3PQ0KHESAZZ0Y","either","5","16406","","","32","","","","","","","","","","","","","","","","","","","","","","","","","","","","","","","","","","","","",""
"","text-replacement","17","319040","0.0-17.0","74466097","wem/bandit_party_1","A3PQ0KHESAZZ0Y","either","5","11018","","","32","","","","","","","","","","","","","","","","","","","","","","","","","","","","","","","","","","","","",""
"","bandit","18","323335","0.0-18.0-0.0","74466097","wem/bandit_party_1","A3PQ0KHESAZZ0Y","either","5","2788","","","","","","","0","0","1","","0.2","0.5","0.5","","","0.8","0.2","","","","","","","","","","","","","","","","75","K","1","","true","0","80_20_practice",""
"","bandit","19","332460","0.0-18.0-1.0","74466097","wem/bandit_party_1","A3PQ0KHESAZZ0Y","either","5","7617","","","","","","","1","0","0","0.8","","0.5","0.5","","","","","","","0.8","0.2","","","","","","","","","","","","74","J","0","img/none_selected_demo.jpg","true","0","80_20_practice",""
"","bandit","20","339409","0.0-18.0-2.0","74466097","wem/bandit_party_1","A3PQ0KHESAZZ0Y","either","5","5440","","","","","","","0","0","1","","0.2","0.5","0.5","","","0.8","0.2","","","","","","","","","","","","","","","","75","K","1","","true","0","80_20_practice",""
"","bandit","21","341971","0.0-18.0-3.0","74466097","wem/bandit_party_1","A3PQ0KHESAZZ0Y","either","5","1051","","","","","","","1","0","0","0.8","","0.5","0.5","","","","","","","0.8","0.2","","","","","","","","","","","","74","J","0","img/none_selected_demo.jpg","true","0","80_20_practice",""
"","bandit","22","349632","0.0-18.0-4.0","74466097","wem/bandit_party_1","A3PQ0KHESAZZ0Y","either","5","6151","","","","","","","1","0","0","0.2","","0.5","0.5","","","","","","","0.8","0.2","","","","","","","","","","","","75","K","1","","true","0","80_20_practice",""
"","bandit","23","352715","0.0-18.0-5.0","74466097","wem/bandit_party_1","A3PQ0KHESAZZ0Y","either","5","1575","","","","","","","0","1","0","","0.8","0.5","0.5","","","0.8","0.2","","","","","","","","","","","","","","","","74","J","0","img/none_selected_demo.jpg","true","0","80_20_practice",""
"","bandit","24","356268","0.0-18.0-6.0","74466097","wem/bandit_party_1","A3PQ0KHESAZZ0Y","either","5","2044","","","","","","","0","0","1","","0.2","0.5","0.5","","","0.8","0.2","","","","","","","","","","","","","","","","75","K","1","","true","0","80_20_practice",""
"","bandit","25","358819","0.0-18.0-7.0","74466097","wem/bandit_party_1","A3PQ0KHESAZZ0Y","either","5","1043","","","","","","","0","1","0","","0.8","0.5","0.5","","","0.8","0.2","","","","","","","","","","","","","","","","74","J","0","img/none_selected_demo.jpg","true","0","80_20_practice",""
"","bandit","26","366091","0.0-18.0-8.0","74466097","wem/bandit_party_1","A3PQ0KHESAZZ0Y","either","5","5767","","","","","","","0","0","1","","0.2","0.5","0.5","","","0.8","0.2","","","","","","","","","","","","","","","","75","K","1","","true","0","80_20_practice",""
"","bandit","27","368262","0.0-18.0-9.0","74466097","wem/bandit_party_1","A3PQ0KHESAZZ0Y","either","5","660","","","","","","","0","1","0","","0.8","0.5","0.5","","","0.8","0.2","","","","","","","","","","","","","","","","74","J","0","img/none_selected_demo.jpg","true","0","80_20_practice",""
"","bandit","28","371375","0.0-18.0-10.0","74466097","wem/bandit_party_1","A3PQ0KHESAZZ0Y","either","5","1603","","","","","","","0","0","1","0.2","","0.5","0.5","","","","","","","0.8","0.2","","","","","","","","","","","","75","K","1","","true","0","80_20_practice",""
"","bandit","29","373769","0.0-18.0-11.0","74466097","wem/bandit_party_1","A3PQ0KHESAZZ0Y","either","5","883","","","","","","","1","0","0","0.8","","0.5","0.5","","","","","","","0.8","0.2","","","","","","","","","","","","74","J","0","img/none_selected_demo.jpg","true","0","80_20_practice",""
"","bandit","30","377075","0.0-18.0-12.0","74466097","wem/bandit_party_1","A3PQ0KHESAZZ0Y","either","5","1798","","","","","","","0","1","0","","0.2","0.5","0.5","","","0.8","0.2","","","","","","","","","","","","","","","","75","K","1","","true","0","80_20_practice",""
"","bandit","31","380233","0.0-18.0-13.0","74466097","wem/bandit_party_1","A3PQ0KHESAZZ0Y","either","5","1649","","","","","","","0","0","1","","0.8","0.5","0.5","","","0.8","0.2","","","","","","","","","","","","","","","","74","J","0","img/none_selected_demo.jpg","true","0","80_20_practice",""
"","bandit","32","382313","0.0-18.0-14.0","74466097","wem/bandit_party_1","A3PQ0KHESAZZ0Y","either","5","571","","","","","","","0","0","1","","0.2","0.5","0.5","","","0.8","0.2","","","","","","","","","","","","","","","","75","K","1","","true","0","80_20_practice",""
"","bandit","33","385914","0.0-18.0-15.0","74466097","wem/bandit_party_1","A3PQ0KHESAZZ0Y","either","5","2091","","","","","","","0","0","1","0.8","","0.5","0.5","","","","","","","0.8","0.2","","","","","","","","","","","","74","J","0","img/none_selected_demo.jpg","true","0","80_20_practice",""
"","bandit","34","387955","0.0-18.0-16.0","74466097","wem/bandit_party_1","A3PQ0KHESAZZ0Y","either","5","533","","","","","","","0","0","1","","0.2","0.5","0.5","","","0.8","0.2","","","","","","","","","","","","","","","","75","K","1","","true","0","80_20_practice",""
"","bandit","35","389970","0.0-18.0-17.0","74466097","wem/bandit_party_1","A3PQ0KHESAZZ0Y","either","5","507","","","","","","","0","0","1","","0.8","0.5","0.5","","","0.8","0.2","","","","","","","","","","","","","","","","74","J","0","img/none_selected_demo.jpg","true","0","80_20_practice",""
"","bandit","36","391880","0.0-18.0-18.0","74466097","wem/bandit_party_1","A3PQ0KHESAZZ0Y","either","5","403","","","","","","","0","0","1","","0.2","0.5","0.5","","","0.8","0.2","","","","","","","","","","","","","","","","75","K","1","","true","0","80_20_practice",""
"","bandit","37","394274","0.0-18.0-19.0","74466097","wem/bandit_party_1","A3PQ0KHESAZZ0Y","either","5","888","","","","","","","0","0","1","0.2","","0.5","0.5","","","","","","","0.8","0.2","","","","","","","","","","","","75","K","1","","true","0","80_20_practice",""
"","text-replacement","38","405504","0.0-19.0","74466097","wem/bandit_party_1","A3PQ0KHESAZZ0Y","either","5","11227","","","32","","","","","","","","","","","","","","","","","","","","","","","","","","","","","","","","","","","","",""
"","bandit","39","411261","0.0-20.0-0.0","74466097","wem/bandit_party_1","A3PQ0KHESAZZ0Y","either","5","4248","","","","","","","1","0","0","1","0","","","","","0","1","","","1","0","","","","","","","","","","","","74","J","0","img/none_selected_demo.jpg","true","0","",""
"","text-replacement","40","427548","0.0-21.0","74466097","wem/bandit_party_1","A3PQ0KHESAZZ0Y","either","5","16283","","","32","","","","","","","","","","","","","","","","","","","","","","","","","","","","","","","","","","","","",""
"","text-replacement","41","437563","0.0-22.0","74466097","wem/bandit_party_1","A3PQ0KHESAZZ0Y","either","5","10011","","","32","","","","","","","","","","","","","","","","","","","","","","","","","","","","","","","","","","","","",""
"","text-replacement","42","445604","0.0-23.0","74466097","wem/bandit_party_1","A3PQ0KHESAZZ0Y","either","5","8038","","","32","","","","","","","","","","","","","","","","","","","","","","","","","","","","","","","","","","","","",""
"","text-replacement","43","456085","0.0-24.0","74466097","wem/bandit_party_1","A3PQ0KHESAZZ0Y","either","5","10479","","","32","","","","","","","","","","","","","","","","","","","","","","","","","","","","","","","","","","","","",""
"","text-replacement","44","470847","0.0-25.0","74466097","wem/bandit_party_1","A3PQ0KHESAZZ0Y","either","5","14760","","","32","","","","","","","","","","","","","","","","","","","","","","","","","","","","","","","","","","","","",""
"","text-replacement","45","477928","0.0-26.0","74466097","wem/bandit_party_1","A3PQ0KHESAZZ0Y","either","5","7077","","","32","","","","","","","","","","","","","","","","","","","","","","","","","","","","","","","","","","","","",""
"","text-replacement","46","485939","0.0-27.0","74466097","wem/bandit_party_1","A3PQ0KHESAZZ0Y","either","5","8007","","","32","","","","","","","","","","","","","","","","","","","","","","","","","","","","","","","","","","","","",""
"","text-replacement","47","498183","0.0-28.0","74466097","wem/bandit_party_1","A3PQ0KHESAZZ0Y","either","5","12241","","","32","","","","","","","","","","","","","","","","","","","","","","","","","","","","","","","","","","","","",""
"","text-replacement","48","507093","0.0-29.0","74466097","wem/bandit_party_1","A3PQ0KHESAZZ0Y","either","5","8906","","","32","","","","","","","","","","","","","","","","","","","","","","","","","","","","","","","","","","","","",""
"","text-replacement","49","511135","0.0-30.0","74466097","wem/bandit_party_1","A3PQ0KHESAZZ0Y","either","5","4038","","","32","","","","","","","","","","","","","","","","","","","","","","","","","","","","","","","","","","","","",""
"","text-replacement","50","517685","0.0-31.0","74466097","wem/bandit_party_1","A3PQ0KHESAZZ0Y","either","5","6546","","","32","","","","","","","","","","","","","","","","","","","","","","","","","","","","","","","","","","","","",""
"","bandit","51","522004","0.0-32.0-0.0","74466097","wem/bandit_party_1","A3PQ0KHESAZZ0Y","either","5","2810","","","","","","","0","0","1","","0.2","0.5","0.5","0.5","0.5","0.8","0.2","0.6","0.2","","","","","","","","","","","","","","74","J","1","","true","0","full_practice",""
"","bandit","52","532312","0.0-32.0-1.0","74466097","wem/bandit_party_1","A3PQ0KHESAZZ0Y","either","5","8797","","","","","","","0","1","0","","0.8","0.5","0.5","0.5","0.5","0.8","0.2","0.6","0.2","","","","","","","","","","","","","","72","H","0","img/none_selected.jpg","true","0","full_practice",""
"","bandit","53","535410","0.0-32.0-2.0","74466097","wem/bandit_party_1","A3PQ0KHESAZZ0Y","either","5","1588","","","","","","","1","0","0","0.6","","0.5","0.5","0.5","0.5","","","","","0.8","0.2","0.6","0.2","","","","","","","","","","75","K","2","","true","0","full_practice",""
"","bandit","54","539043","0.0-32.0-3.0","74466097","wem/bandit_party_1","A3PQ0KHESAZZ0Y","either","5","2124","","","","","","","0","0","1","0.2","","0.5","0.5","0.5","0.5","","","","","0.8","0.2","0.6","0.2","","","","","","","","","","76","L","3","","true","0","full_practice",""
"","bandit","55","542729","0.0-32.0-4.0","74466097","wem/bandit_party_1","A3PQ0KHESAZZ0Y","either","5","2180","","","","","","","0","0","1","0.2","","0.5","0.5","0.5","0.5","","","","","0.8","0.2","0.6","0.2","","","","","","","","","","74","J","1","","true","0","full_practice",""
"","bandit","56","544745","0.0-32.0-5.0","74466097","wem/bandit_party_1","A3PQ0KHESAZZ0Y","either","5","510","","","","","","","0","0","1","0.6","","0.5","0.5","0.5","0.5","","","","","0.8","0.2","0.6","0.2","","","","","","","","","","75","K","2","","true","0","full_practice",""
"","bandit","57","546736","0.0-32.0-6.0","74466097","wem/bandit_party_1","A3PQ0KHESAZZ0Y","either","5","483","","","","","","","1","0","0","0.2","","0.5","0.5","0.5","0.5","","","","","0.8","0.2","0.6","0.2","","","","","","","","","","74","J","1","","true","0","full_practice",""
"","bandit","58","548915","0.0-32.0-7.0","74466097","wem/bandit_party_1","A3PQ0KHESAZZ0Y","either","5","674","","","","","","","1","0","0","0.8","","0.5","0.5","0.5","0.5","","","","","0.8","0.2","0.6","0.2","","","","","","","","","","72","H","0","img/none_selected.jpg","true","0","full_practice",""
"","bandit","59","551734","0.0-32.0-8.0","74466097","wem/bandit_party_1","A3PQ0KHESAZZ0Y","either","5","1311","","","","","","","1","0","0","0.8","","0.5","0.5","0.5","0.5","","","","","0.8","0.2","0.6","0.2","","","","","","","","","","72","H","0","img/none_selected.jpg","true","0","full_practice",""
"","bandit","60","554366","0.0-32.0-9.0","74466097","wem/bandit_party_1","A3PQ0KHESAZZ0Y","either","5","1125","","","","","","","0","1","0","","0.8","0.5","0.5","0.5","0.5","0.8","0.2","0.6","0.2","","","","","","","","","","","","","","72","H","0","img/none_selected.jpg","true","0","full_practice",""
"","bandit","61","556787","0.0-32.0-10.0","74466097","wem/bandit_party_1","A3PQ0KHESAZZ0Y","either","5","912","","","","","","","0","0","1","0.8","","0.5","0.5","0.5","0.5","","","","","0.8","0.2","0.6","0.2","","","","","","","","","","72","H","0","img/none_selected.jpg","true","0","full_practice",""
"","bandit","62","558883","0.0-32.0-11.0","74466097","wem/bandit_party_1","A3PQ0KHESAZZ0Y","either","5","587","","","","","","","0","0","1","0.6","","0.5","0.5","0.5","0.5","","","","","0.8","0.2","0.6","0.2","","","","","","","","","","75","K","2","","true","0","full_practice",""
"","bandit","63","561188","0.0-32.0-12.0","74466097","wem/bandit_party_1","A3PQ0KHESAZZ0Y","either","5","796","","","","","","","0","0","1","","0.2","0.5","0.5","0.5","0.5","0.8","0.2","0.6","0.2","","","","","","","","","","","","","","76","L","3","","true","0","full_practice",""
"","bandit","64","563320","0.0-32.0-13.0","74466097","wem/bandit_party_1","A3PQ0KHESAZZ0Y","either","5","623","","","","","","","0","0","1","","0.2","0.5","0.5","0.5","0.5","0.8","0.2","0.6","0.2","","","","","","","","","","","","","","74","J","1","","true","0","full_practice",""
"","bandit","65","566725","0.0-32.0-14.0","74466097","wem/bandit_party_1","A3PQ0KHESAZZ0Y","either","5","1894","","","","","","","1","0","0","0.8","","0.5","0.5","0.5","0.5","","","","","0.8","0.2","0.6","0.2","","","","","","","","","","72","H","0","img/none_selected.jpg","true","0","full_practice",""
"","bandit","66","568766","0.0-32.0-15.0","74466097","wem/bandit_party_1","A3PQ0KHESAZZ0Y","either","5","531","","","","","","","1","0","0","0.8","","0.5","0.5","0.5","0.5","","","","","0.8","0.2","0.6","0.2","","","","","","","","","","72","H","0","img/none_selected.jpg","true","0","full_practice",""
"","bandit","67","570857","0.0-32.0-16.0","74466097","wem/bandit_party_1","A3PQ0KHESAZZ0Y","either","5","582","","","","","","","0","1","0","","0.8","0.5","0.5","0.5","0.5","0.8","0.2","0.6","0.2","","","","","","","","","","","","","","72","H","0","img/none_selected.jpg","true","0","full_practice",""
"","bandit","68","573674","0.0-32.0-17.0","74466097","wem/bandit_party_1","A3PQ0KHESAZZ0Y","either","5","1308","","","","","","","0","1","0","","0.8","0.5","0.5","0.5","0.5","0.8","0.2","0.6","0.2","","","","","","","","","","","","","","72","H","0","img/none_selected.jpg","true","0","full_practice",""
"","bandit","69","575776","0.0-32.0-18.0","74466097","wem/bandit_party_1","A3PQ0KHESAZZ0Y","either","5","596","","","","","","","0","1","0","","0.8","0.5","0.5","0.5","0.5","0.8","0.2","0.6","0.2","","","","","","","","","","","","","","72","H","0","img/none_selected.jpg","true","0","full_practice",""
"","bandit","70","577826","0.0-32.0-19.0","74466097","wem/bandit_party_1","A3PQ0KHESAZZ0Y","either","5","543","","","","","","","0","1","0","","0.8","0.5","0.5","0.5","0.5","0.8","0.2","0.6","0.2","","","","","","","","","","","","","","72","H","0","img/none_selected.jpg","true","0","full_practice",""
"","text","71","587698","0.0-33.0","74466097","wem/bandit_party_1","A3PQ0KHESAZZ0Y","either","5","9858","","","32","","","","","","","","","","","","","","","","","","","","","","","","","","","","","","","","","","","","",""
"","text-replacement","72","613937","0.0-34.0","74466097","wem/bandit_party_1","A3PQ0KHESAZZ0Y","either","5","25235","","","32","","","","","","","","","","","","","","","","","","","","","","","","","","","","","","","","","","","","",""
"","text-replacement","73","647942","0.0-35.0","74466097","wem/bandit_party_1","A3PQ0KHESAZZ0Y","either","5","34001","","","32","","","","","","","","","","","","","","","","","","","","","","","","","","","","","","","","","","","","",""
"","text-replacement","74","691218","0.0-36.0","74466097","wem/bandit_party_1","A3PQ0KHESAZZ0Y","either","5","43273","","","32","","","","","","","","","","","","","","","","","","","","","","","","","","","","","","","","","","","","",""
"","text-replacement","75","701509","0.0-37.0","74466097","wem/bandit_party_1","A3PQ0KHESAZZ0Y","either","5","10287","","","32","","","","","","","","","","","","","","","","","","","","","","","","","","","","","","","","","","","","",""
"","text-replacement","76","714785","0.0-38.0","74466097","wem/bandit_party_1","A3PQ0KHESAZZ0Y","either","5","13274","","","32","","","","","","","","","","","","","","","","","","","","","","","","","","","","","","","","","","","","",""
"","survey-multi-choice-replacement","77","726869","0.0-39.0-0.0","74466097","wem/bandit_party_1","A3PQ0KHESAZZ0Y","either","5","12068","","","","","","","","","","","","","","","","","","","","","","","","Money will be added to the pool for <span style='color:blue;'>DEMOCRATS</span>","","","","","","","attn_check","","","","","","","","","0"
"","survey-multi-choice-replacement","78","743409","0.0-40.0-0.0","74466097","wem/bandit_party_1","A3PQ0KHESAZZ0Y","either","5","15535","","","","","","","","","","","","","","","","","","","","","","","","Equal amounts of money will be added to the pool for <span style='color:blue;'>DEMOCRATS</span> and subtracted from the pool for <span style='color:red;'>REPUBLICANS</span>","","","","","","","attn_check","","","","","","","","","2"
"","survey-multi-choice-replacement","79","753955","0.0-41.0-0.0","74466097","wem/bandit_party_1","A3PQ0KHESAZZ0Y","either","5","9532","","","","","","","","","","","","","","","","","","","","","","","","No money will be added to either pool","","","","","","","attn_check","","","","","","","","","3"
"","bandit","80","761806","0.0-42.0-0.0","74466097","wem/bandit_party_1","A3PQ0KHESAZZ0Y","either","5","5335","","","","","","","0","0","1","0.3897275569","","0.4","0.8","0.6","0.2","","","","","0.3897275569","0.4265570961","0.1165465043","0.3340388524","","","","","","","","","","72","H","0","img/none_selected.jpg","","1","main_expt",""
"","bandit","81","765787","0.0-43.0-0.0","74466097","wem/bandit_party_1","A3PQ0KHESAZZ0Y","either","5","2470","","","","","","","0","0","1","0.4177099958","","0.4","0.8","0.6","0.2","","","","","0.3911966266","0.4177099958","0.08371899021","0.3223834482","","","","","","","","","","74","J","1","","","2","main_expt",""
"","bandit","82","772144","0.0-44.0-0.0","74466097","wem/bandit_party_1","A3PQ0KHESAZZ0Y","either","5","4846","","","","","","","0","0","1","","0.04339790364","0.4","0.8","0.6","0.2","0.4074861021","0.4192185534","0.04339790364","0.3585509001","","","","","","","","","","","","","","75","K","2","","","3","main_expt",""
"","bandit","83","774529","0.0-45.0-0.0","74466097","wem/bandit_party_1","A3PQ0KHESAZZ0Y","either","5","872","","","","","","","0","0","1","","0.3416436242","0.4","0.8","0.6","0.2","0.3965638453","0.4241610434","0.04073472785","0.3416436242","","","","","","","","","","","","","","76","L","3","","","4","main_expt",""
"","bandit","84","776688","0.0-46.0-0.0","74466097","wem/bandit_party_1","A3PQ0KHESAZZ0Y","either","5","649","","","","","","","0","0","1","0.4284837315","","0.4","0.8","0.6","0.2","","","","","0.3688269119","0.4284837315","0.04731773769","0.3444758892","","","","","","","","","","74","J","1","","","5","main_expt",""
"","bandit","85","778866","0.0-47.0-0.0","74466097","wem/bandit_party_1","A3PQ0KHESAZZ0Y","either","5","667","","","","","","","0","0","1","","0.3865867917","0.4","0.8","0.6","0.2","0.3865867917","0.4328708062","0.05617088868","0.3574177426","","","","","","","","","","","","","","72","H","0","img/none_selected.jpg","","6","main_expt",""
"","bandit","86","781359","0.0-48.0-0.0","74466097","wem/bandit_party_1","A3PQ0KHESAZZ0Y","either","5","983","","","","","","","0","0","1","0.05606577856","","0.4","0.8","0.6","0.2","","","","","0.4294719924","0.4176545671","0.05606577856","0.3634052143","","","","","","","","","","75","K","2","","","7","main_expt",""
"","bandit","87","783498","0.0-49.0-0.0","74466097","wem/bandit_party_1","A3PQ0KHESAZZ0Y","either","5","627","","","","","","","0","0","1","","0.3675420607","0.4","0.8","0.6","0.2","0.4210378118","0.4022395488","0.09244853328","0.3675420607","","","","","","","","","","","","","","76","L","3","","","8","main_expt",""
"","bandit","88","786145","0.0-50.0-0.0","74466097","wem/bandit_party_1","A3PQ0KHESAZZ0Y","either","5","1136","","","","","","","0","0","1","","0.4502112583","0.4","0.8","0.6","0.2","0.4502112583","0.3929004949","0.1271341085","0.3921196104","","","","","","","","","","","","","","72","H","0","img/none_selected.jpg","","9","main_expt",""
"","bandit","89","788211","0.0-51.0-0.0","74466097","wem/bandit_party_1","A3PQ0KHESAZZ0Y","either","5","549","","","","","","","0","0","1","","0.4452653155","0.4","0.8","0.6","0.2","0.4452653155","0.3863711448","0.1370717255","0.4026182126","","","","","","","","","","","","","","72","H","0","img/none_selected.jpg","","10","main_expt",""
"","bandit","90","790368","0.0-52.0-0.0","74466097","wem/bandit_party_1","A3PQ0KHESAZZ0Y","either","5","650","","","","","","","0","0","1","","0.1275050207","0.4","0.8","0.6","0.2","0.4352349267","0.4205849279","0.1275050207","0.3543069494","","","","","","","","","","","","","","75","K","2","","","11","main_expt",""
"","bandit","91","791967","0.0-53.0-0.0","74466097","wem/bandit_party_1","A3PQ0KHESAZZ0Y","either","5","88","","","","","","","0","0","1","0.4525069231","","0.4","0.8","0.6","0.2","","","","","0.4029030639","0.4525069231","0.122317004","0.3504097904","","","","","","","","","","74","J","1","","","12","main_expt",""
"","bandit","92","794033","0.0-54.0-0.0","74466097","wem/bandit_party_1","A3PQ0KHESAZZ0Y","either","5","561","","","","","","","0","1","0","","0.2787441393","0.4","0.8","0.6","0.2","0.4198147105","0.4485799753","0.1251711411","0.2787441393","","","","","","","","","","","","","","76","L","3","","","13","main_expt",""
"","bandit","93","796857","0.0-55.0-0.0","74466097","wem/bandit_party_1","A3PQ0KHESAZZ0Y","either","5","1314","","","","","","","0","0","1","","0.2723245106","0.4","0.8","0.6","0.2","0.3761312174","0.4504049656","0.1380641988","0.2723245106","","","","","","","","","","","","","","76","L","3","","","14","main_expt",""
"","bandit","94","799198","0.0-56.0-0.0","74466097","wem/bandit_party_1","A3PQ0KHESAZZ0Y","either","5","831","","","","","","","1","0","0","0.2010812313","","0.4","0.8","0.6","0.2","","","","","0.4017507227","0.4281165459","0.2010812313","0.3687644442","","","","","","","","","","75","K","2","","","15","main_expt",""
"","bandit","95","801412","0.0-57.0-0.0","74466097","wem/bandit_party_1","A3PQ0KHESAZZ0Y","either","5","704","","","","","","","0","0","1","0.1747275657","","0.4","0.8","0.6","0.2","","","","","0.3859888637","0.4035101098","0.1747275657","0.3992289848","","","","","","","","","","75","K","2","","","16","main_expt",""
"","bandit","96","803445","0.0-58.0-0.0","74466097","wem/bandit_party_1","A3PQ0KHESAZZ0Y","either","5","522","","","","","","","0","0","1","0.4063691663","","0.4","0.8","0.6","0.2","","","","","0.3706978481","0.4063691663","0.1816524112","0.4067061876","","","","","","","","","","74","J","1","","","17","main_expt",""
"","bandit","97","806101","0.0-59.0-0.0","74466097","wem/bandit_party_1","A3PQ0KHESAZZ0Y","either","5","1145","","","","","","","0","0","1","","0.3323991027","0.4","0.8","0.6","0.2","0.3323991027","0.4201618032","0.1700798448","0.3969002131","","","","","","","","","","","","","","72","H","0","img/none_selected.jpg","","18","main_expt",""
"","bandit","98","808341","0.0-60.0-0.0","74466097","wem/bandit_party_1","A3PQ0KHESAZZ0Y","either","5","728","","","","","","","0","1","0","","0.3930099592","0.4","0.8","0.6","0.2","0.3301718366","0.3868389751","0.1998500639","0.3930099592","","","","","","","","","","","","","","76","L","3","","","19","main_expt",""
"","bandit","99","810728","0.0-61.0-0.0","74466097","wem/bandit_party_1","A3PQ0KHESAZZ0Y","either","5","876","","","","","","","0","0","1","","0.3791602553","0.4","0.8","0.6","0.2","0.3714618997","0.3868875991","0.2418808817","0.3791602553","","","","","","","","","","","","","","76","L","3","","","20","main_expt",""
"","bandit","100","813918","0.0-62.0-0.0","74466097","wem/bandit_party_1","A3PQ0KHESAZZ0Y","either","5","1676","","","","","","","0","0","1","0.4127515201","","0.4","0.8","0.6","0.2","","","","","0.3621694591","0.4253770554","0.2293341009","0.4127515201","","","","","","","","","","76","L","3","","","21","main_expt",""
"","bandit","101","815870","0.0-63.0-0.0","74466097","wem/bandit_party_1","A3PQ0KHESAZZ0Y","either","5","445","","","","","","","0","1","0","","0.2074184163","0.4","0.8","0.6","0.2","0.3648829928","0.4285762007","0.2074184163","0.4164833055","","","","","","","","","","","","","","75","K","2","","","22","main_expt",""
"","bandit","102","818541","0.0-64.0-0.0","74466097","wem/bandit_party_1","A3PQ0KHESAZZ0Y","either","5","1165","","","","","","","0","0","1","","0.1832507358","0.4","0.8","0.6","0.2","0.2856994719","0.4082522222","0.1832507358","0.4143027846","","","","","","","","","","","","","","75","K","2","","","23","main_expt",""
"","bandit","103","820550","0.0-65.0-0.0","74466097","wem/bandit_party_1","A3PQ0KHESAZZ0Y","either","5","496","","","","","","","0","0","1","0.4027270218","","0.4","0.8","0.6","0.2","","","","","0.3152516524","0.4027270218","0.1469425149","0.3649270698","","","","","","","","","","74","J","1","","","24","main_expt",""
"","bandit","104","822539","0.0-66.0-0.0","74466097","wem/bandit_party_1","A3PQ0KHESAZZ0Y","either","5","479","","","","","","","0","0","1","","0.2778145345","0.4","0.8","0.6","0.2","0.2778145345","0.4100212433","0.102794739","0.392676409","","","","","","","","","","","","","","72","H","0","img/none_selected.jpg","","25","main_expt",""
"","bandit","105","824642","0.0-67.0-0.0","74466097","wem/bandit_party_1","A3PQ0KHESAZZ0Y","either","5","595","","","","","","","0","1","0","","0.4031565401","0.4","0.8","0.6","0.2","0.3170506137","0.4190791169","0.1173732637","0.4031565401","","","","","","","","","","","","","","76","L","3","","","26","main_expt",""
"","bandit","106","829624","0.0-68.0-0.0","74466097","wem/bandit_party_1","A3PQ0KHESAZZ0Y","either","5","3474","","","","","","","0","1","0","","0.4245959001","0.4","0.8","0.6","0.2","0.3223143746","0.4527212376","0.08835016803","0.4245959001","","","","","","","","","","","","","","76","L","3","","","27","main_expt",""
"","bandit","107","833427","0.0-69.0-0.0","74466097","wem/bandit_party_1","A3PQ0KHESAZZ0Y","either","5","2294","","","","","","","1","0","0","0.4232885055","","0.4","0.8","0.6","0.2","","","","","0.3234472479","0.4480998813","0.1134440288","0.4232885055","","","","","","","","","","76","L","3","","","28","main_expt",""
"","bandit","108","836931","0.0-70.0-0.0","74466097","wem/bandit_party_1","A3PQ0KHESAZZ0Y","either","5","1991","","","","","","","0","0","1","","0.4495512981","0.4","0.8","0.6","0.2","0.2881425904","0.4628669208","0.1982905849","0.4495512981","","","","","","","","","","","","","","76","L","3","","","29","main_expt",""
"","bandit","109","839378","0.0-71.0-0.0","74466097","wem/bandit_party_1","A3PQ0KHESAZZ0Y","either","5","936","","","","","","","0","1","0","","0.2366655967","0.4","0.8","0.6","0.2","0.2326555855","0.4565655028","0.2366655967","0.4485299892","","","","","","","","","","","","","","75","K","2","","","30","main_expt",""
"","bandit","110","842411","0.0-72.0-0.0","74466097","wem/bandit_party_1","A3PQ0KHESAZZ0Y","either","5","1518","","","","","","","1","0","0","0.1622470467","","0.4","0.8","0.6","0.2","","","","","0.2364604256","0.4686031056","0.1622470467","0.4599237238","","","","","","","","","","75","K","2","","","31","main_expt",""
"","bandit","111","845301","0.0-73.0-0.0","74466097","wem/bandit_party_1","A3PQ0KHESAZZ0Y","either","5","1379","","","","","","","0","0","1","0.1771911602","","0.4","0.8","0.6","0.2","","","","","0.2451982598","0.4659582456","0.1771911602","0.4508116693","","","","","","","","","","75","K","2","","","32","main_expt",""
"","bandit","112","847335","0.0-74.0-0.0","74466097","wem/bandit_party_1","A3PQ0KHESAZZ0Y","either","5","519","","","","","","","0","0","1","0.4810757035","","0.4","0.8","0.6","0.2","","","","","0.2360369815","0.4810757035","0.1622836308","0.45101727","","","","","","","","","","74","J","1","","","33","main_expt",""
"","bandit","113","849397","0.0-75.0-0.0","74466097","wem/bandit_party_1","A3PQ0KHESAZZ0Y","either","5","550","","","","","","","0","0","1","","0.2317763892","0.4","0.8","0.6","0.2","0.2317763892","0.4842727378","0.1655985557","0.4340174653","","","","","","","","","","","","","","72","H","0","img/none_selected.jpg","","34","main_expt",""
"","bandit","114","851461","0.0-76.0-0.0","74466097","wem/bandit_party_1","A3PQ0KHESAZZ0Y","either","5","545","","","","","","","0","1","0","","0.4040147441","0.4","0.8","0.6","0.2","0.2527891731","0.4745470136","0.1492797185","0.4040147441","","","","","","","","","","","","","","76","L","3","","","35","main_expt",""
"","bandit","115","854047","0.0-77.0-0.0","74466097","wem/bandit_party_1","A3PQ0KHESAZZ0Y","either","5","1073","","","","","","","0","0","1","0.4268829696","","0.4","0.8","0.6","0.2","","","","","0.2641283143","0.4440965139","0.1504543003","0.4268829696","","","","","","","","","","76","L","3","","","36","main_expt",""
"","bandit","116","856106","0.0-78.0-0.0","74466097","wem/bandit_party_1","A3PQ0KHESAZZ0Y","either","5","546","","","","","","","0","0","1","","0.1064249526","0.4","0.8","0.6","0.2","0.2309310423","0.4544425755","0.1064249526","0.4562327564","","","","","","","","","","","","","","75","K","2","","","37","main_expt",""
"","bandit","117","858069","0.0-79.0-0.0","74466097","wem/bandit_party_1","A3PQ0KHESAZZ0Y","either","5","451","","","","","","","1","0","0","0.4700138218","","0.4","0.8","0.6","0.2","","","","","0.2093170459","0.4700138218","0.1346530267","0.4481627861","","","","","","","","","","74","J","1","","","38","main_expt",""
"","bandit","118","860597","0.0-80.0-0.0","74466097","wem/bandit_party_1","A3PQ0KHESAZZ0Y","either","5","1017","","","","","","","0","0","1","0.466948448","","0.4","0.8","0.6","0.2","","","","","0.1398625959","0.466948448","0.1303494481","0.4475890948","","","","","","","","","","74","J","1","","","39","main_expt",""
"","bandit","119","862558","0.0-81.0-0.0","74466097","wem/bandit_party_1","A3PQ0KHESAZZ0Y","either","5","448","","","","","","","0","0","1","","0.09690087606","0.4","0.8","0.6","0.2","0.09690087606","0.4679256248","0.1492074344","0.4501575696","","","","","","","","","","","","","","72","H","0","img/none_selected.jpg","","40","main_expt",""
"","bandit","120","864661","0.0-82.0-0.0","74466097","wem/bandit_party_1","A3PQ0KHESAZZ0Y","either","5","592","","","","","","","0","0","1","","0.4121884666","0.4","0.8","0.6","0.2","0.1129569356","0.445537573","0.1370672299","0.4121884666","","","","","","","","","","","","","","76","L","3","","","41","main_expt",""
"","bandit","121","867444","0.0-83.0-0.0","74466097","wem/bandit_party_1","A3PQ0KHESAZZ0Y","either","5","1274","","","","","","","0","0","1","0.4379939247","","0.4","0.8","0.6","0.2","","","","","0.1227033228","0.4521531226","0.08144147181","0.4379939247","","","","","","","","","","76","L","3","","","42","main_expt",""
"","bandit","122","869407","0.0-84.0-0.0","74466097","wem/bandit_party_1","A3PQ0KHESAZZ0Y","either","5","454","","","","","","","0","0","1","","0.06793865388","0.4","0.8","0.6","0.2","0.08393287497","0.4695072217","0.06793865388","0.4271747655","","","","","","","","","","","","","","75","K","2","","","43","main_expt",""
"","bandit","123","871458","0.0-85.0-0.0","74466097","wem/bandit_party_1","A3PQ0KHESAZZ0Y","either","5","543","","","","","","","0","0","1","0.4807409838","","0.4","0.8","0.6","0.2","","","","","0.06260074275","0.4807409838","0.05295344446","0.4480494518","","","","","","","","","","74","J","1","","","44","main_expt",""
"","bandit","124","873352","0.0-86.0-0.0","74466097","wem/bandit_party_1","A3PQ0KHESAZZ0Y","either","5","383","","","","","","","0","0","1","0.08062123592","","0.4","0.8","0.6","0.2","","","","","0.08062123592","0.4507048108","0.02744239742","0.4269729589","","","","","","","","","","72","H","0","img/none_selected.jpg","","45","main_expt",""
"","bandit","125","875346","0.0-87.0-0.0","74466097","wem/bandit_party_1","A3PQ0KHESAZZ0Y","either","5","481","","","","","","","0","0","1","0.4475746277","","0.4","0.8","0.6","0.2","","","","","0.1110847749","0.4382321206","0.02347437243","0.4475746277","","","","","","","","","","76","L","3","","","46","main_expt",""
"","bandit","126","877272","0.0-88.0-0.0","74466097","wem/bandit_party_1","A3PQ0KHESAZZ0Y","either","5","414","","","","","","","0","0","1","0.02418160198","","0.4","0.8","0.6","0.2","","","","","0.05346849493","0.4393937913","0.02418160198","0.4295618238","","","","","","","","","","75","K","2","","","47","main_expt",""
"","bandit","127","879355","0.0-89.0-0.0","74466097","wem/bandit_party_1","A3PQ0KHESAZZ0Y","either","5","570","","","","","","","0","0","1","0.01182676654","","0.4","0.8","0.6","0.2","","","","","0.04499733497","0.440318131","0.01182676654","0.4431907244","","","","","","","","","","75","K","2","","","48","main_expt",""
"","bandit","128","881365","0.0-90.0-0.0","74466097","wem/bandit_party_1","A3PQ0KHESAZZ0Y","either","5","497","","","","","","","0","0","1","","0.4362102412","0.4","0.8","0.6","0.2","0.07378534534","0.4362102412","0.0186287842","0.4187732916","","","","","","","","","","","","","","74","J","1","","","49","main_expt",""
"","bandit","129","883248","0.0-91.0-0.0","74466097","wem/bandit_party_1","A3PQ0KHESAZZ0Y","either","5","370","","","","","","","0","0","1","","0.06168845619","0.4","0.8","0.6","0.2","0.06168845619","0.44488671","0.02550629551","0.356579213","","","","","","","","","","","","","","72","H","0","img/none_selected.jpg","","50","main_expt",""
"","bandit","130","887152","0.0-92.0-0.0","74466097","wem/bandit_party_1","A3PQ0KHESAZZ0Y","either","5","2394","","","","","","","0","0","1","0.2629404955","","0.4","0.8","0.6","0.2","","","","","0.1062028567","0.4633405548","0.04366809707","0.2629404955","","","","","","","","","","76","L","3","","","51","main_expt",""
"","bandit","131","889177","0.0-93.0-0.0","74466097","wem/bandit_party_1","A3PQ0KHESAZZ0Y","either","5","519","","","","","","","0","0","1","0.04357168116","","0.4","0.8","0.6","0.2","","","","","0.1379608546","0.4528043762","0.04357168116","0.2919747068","","","","","","","","","","75","K","2","","","52","main_expt",""
"","bandit","132","891190","0.0-94.0-0.0","74466097","wem/bandit_party_1","A3PQ0KHESAZZ0Y","either","5","499","","","","","","","1","0","0","0.4390431751","","0.4","0.8","0.6","0.2","","","","","0.1356826849","0.4390431751","0.03899227154","0.3809901122","","","","","","","","","","74","J","1","","","53","main_expt",""
"","bandit","133","893365","0.0-95.0-0.0","74466097","wem/bandit_party_1","A3PQ0KHESAZZ0Y","either","5","663","","","","","","","1","0","0","0.4549270822","","0.4","0.8","0.6","0.2","","","","","0.1038772241","0.4549270822","0.04009146386","0.3452518694","","","","","","","","","","74","J","1","","","54","main_expt",""
"","bandit","134","896396","0.0-96.0-0.0","74466097","wem/bandit_party_1","A3PQ0KHESAZZ0Y","either","5","1520","","","","","","","0","0","1","0.4710341864","","0.4","0.8","0.6","0.2","","","","","0.1689791829","0.4710341864","0.0155768565","0.3263112327","","","","","","","","","","74","J","1","","","55","main_expt",""
"","bandit","135","898375","0.0-97.0-0.0","74466097","wem/bandit_party_1","A3PQ0KHESAZZ0Y","either","5","470","","","","","","","0","0","1","0.1108888145","","0.4","0.8","0.6","0.2","","","","","0.1108888145","0.4745834276","0.02112461672","0.3308963945","","","","","","","","","","72","H","0","img/none_selected.jpg","","56","main_expt",""
"","bandit","136","900686","0.0-98.0-0.0","74466097","wem/bandit_party_1","A3PQ0KHESAZZ0Y","either","5","798","","","","","","","0","0","1","0.0126553198","","0.4","0.8","0.6","0.2","","","","","0.1206542402","0.489318572","0.0126553198","0.3150326571","","","","","","","","","","75","K","2","","","57","main_expt",""
"","bandit","137","902648","0.0-99.0-0.0","74466097","wem/bandit_party_1","A3PQ0KHESAZZ0Y","either","5","450","","","","","","","1","0","0","0.3049116772","","0.4","0.8","0.6","0.2","","","","","0.09707343937","0.480037986","0.01131359515","0.3049116772","","","","","","","","","","76","L","3","","","58","main_expt",""
"","bandit","138","905565","0.0-100.0-0.0","74466097","wem/bandit_party_1","A3PQ0KHESAZZ0Y","either","5","1404","","","","","","","1","0","0","0.3050987947","","0.4","0.8","0.6","0.2","","","","","0.1044384952","0.4593461039","0.01030075821","0.3050987947","","","","","","","","","","76","L","3","","","59","main_expt",""
"","bandit","139","908415","0.0-101.0-0.0","74466097","wem/bandit_party_1","A3PQ0KHESAZZ0Y","either","5","1337","","","","","","","0","1","0","","0.3274009355","0.4","0.8","0.6","0.2","0.08890369623","0.446051488","0.005868957973","0.3274009355","","","","","","","","","","","","","","76","L","3","","","60","main_expt",""
"","bandit","140","911517","0.0-102.0-0.0","74466097","wem/bandit_party_1","A3PQ0KHESAZZ0Y","either","5","1590","","","","","","","0","0","1","","0.3428943983","0.4","0.8","0.6","0.2","0.08921221942","0.4391285327","0.004361943215","0.3428943983","","","","","","","","","","","","","","76","L","3","","","61","main_expt",""
"","bandit","141","913601","0.0-103.0-0.0","74466097","wem/bandit_party_1","A3PQ0KHESAZZ0Y","either","5","573","","","","","","","0","0","1","","0.005208412743","0.4","0.8","0.6","0.2","0.09812025034","0.4063883723","0.005208412743","0.3549763931","","","","","","","","","","","","","","75","K","2","","","62","main_expt",""
"","bandit","142","915566","0.0-104.0-0.0","74466097","wem/bandit_party_1","A3PQ0KHESAZZ0Y","either","5","450","","","","","","","1","0","0","0.4330387396","","0.4","0.8","0.6","0.2","","","","","0.09006279409","0.4330387396","0.006461011255","0.3496678451","","","","","","","","","","74","J","1","","","63","main_expt",""
"","bandit","143","918334","0.0-105.0-0.0","74466097","wem/bandit_party_1","A3PQ0KHESAZZ0Y","either","5","1256","","","","","","","0","0","1","","0.4207902426","0.4","0.8","0.6","0.2","0.1118976224","0.4207902426","0.01267926231","0.3188537263","","","","","","","","","","","","","","74","J","1","","","64","main_expt",""
"","bandit","144","920368","0.0-106.0-0.0","74466097","wem/bandit_party_1","A3PQ0KHESAZZ0Y","either","5","519","","","","","","","0","0","1","0.1053817613","","0.4","0.8","0.6","0.2","","","","","0.1053817613","0.3719582347","0.009732787917","0.3191795336","","","","","","","","","","72","H","0","img/none_selected.jpg","","65","main_expt",""
"","bandit","145","922681","0.0-107.0-0.0","74466097","wem/bandit_party_1","A3PQ0KHESAZZ0Y","either","5","800","","","","","","","0","1","0","","0.1307356695","0.4","0.8","0.6","0.2","0.1307356695","0.3748569955","0.01092542651","0.268616347","","","","","","","","","","","","","","72","H","0","img/none_selected.jpg","","66","main_expt",""
"","bandit","146","925538","0.0-108.0-0.0","74466097","wem/bandit_party_1","A3PQ0KHESAZZ0Y","either","5","1344","","","","","","","0","0","1","","0.1418436428","0.4","0.8","0.6","0.2","0.1418436428","0.335252031","0.02125534741","0.259194563","","","","","","","","","","","","","","72","H","0","img/none_selected.jpg","","67","main_expt",""
"","bandit","147","927848","0.0-109.0-0.0","74466097","wem/bandit_party_1","A3PQ0KHESAZZ0Y","either","5","797","","","","","","","0","1","0","","0.2281204868","0.4","0.8","0.6","0.2","0.1459089566","0.3199157278","0.02360283027","0.2281204868","","","","","","","","","","","","","","76","L","3","","","68","main_expt",""
"","bandit","148","930018","0.0-110.0-0.0","74466097","wem/bandit_party_1","A3PQ0KHESAZZ0Y","either","5","662","","","","","","","0","0","1","0.2195844169","","0.4","0.8","0.6","0.2","","","","","0.1809721424","0.3068525281","0.02539305756","0.2195844169","","","","","","","","","","76","L","3","","","69","main_expt",""
"","bandit","149","932281","0.0-111.0-0.0","74466097","wem/bandit_party_1","A3PQ0KHESAZZ0Y","either","5","750","","","","","","","0","0","1","","0.05014388586","0.4","0.8","0.6","0.2","0.1784068974","0.3181076016","0.05014388586","0.1883338509","","","","","","","","","","","","","","75","K","2","","","70","main_expt",""
"","bandit","150","934410","0.0-112.0-0.0","74466097","wem/bandit_party_1","A3PQ0KHESAZZ0Y","either","5","615","","","","","","","0","0","1","0.2926426422","","0.4","0.8","0.6","0.2","","","","","0.1973023396","0.2926426422","0.04209054697","0.1639708178","","","","","","","","","","74","J","1","","","71","main_expt",""
"","bandit","151","936653","0.0-113.0-0.0","74466097","wem/bandit_party_1","A3PQ0KHESAZZ0Y","either","5","728","","","","","","","0","0","1","0.2436342847","","0.4","0.8","0.6","0.2","","","","","0.2436342847","0.2380263643","0.05611199342","0.1312842785","","","","","","","","","","72","H","0","img/none_selected.jpg","","72","main_expt",""
"","bandit","152","938589","0.0-114.0-0.0","74466097","wem/bandit_party_1","A3PQ0KHESAZZ0Y","either","5","424","","","","","","","0","1","0","","0.1805041857","0.4","0.8","0.6","0.2","0.1992173182","0.2407197948","0.05293238473","0.1805041857","","","","","","","","","","","","","","76","L","3","","","73","main_expt",""
"","bandit","153","941822","0.0-115.0-0.0","74466097","wem/bandit_party_1","A3PQ0KHESAZZ0Y","either","5","1719","","","","","","","0","0","1","","0.1739557812","0.4","0.8","0.6","0.2","0.2347098304","0.2317468449","0.0318456884","0.1739557812","","","","","","","","","","","","","","76","L","3","","","74","main_expt",""
"","bandit","154","943860","0.0-116.0-0.0","74466097","wem/bandit_party_1","A3PQ0KHESAZZ0Y","either","5","522","","","","","","","0","0","1","0.03873230677","","0.4","0.8","0.6","0.2","","","","","0.2641442137","0.2545997551","0.03873230677","0.2434916027","","","","","","","","","","75","K","2","","","75","main_expt",""
"","bandit","155","946268","0.0-117.0-0.0","74466097","wem/bandit_party_1","A3PQ0KHESAZZ0Y","either","5","903","","","","","","","1","0","0","0.2890845388","","0.4","0.8","0.6","0.2","","","","","0.3192644053","0.2890845388","0.03304947682","0.2438468568","","","","","","","","","","74","J","1","","","76","main_expt",""
"","bandit","156","948511","0.0-118.0-0.0","74466097","wem/bandit_party_1","A3PQ0KHESAZZ0Y","either","5","736","","","","","","","0","0","1","0.2386362654","","0.4","0.8","0.6","0.2","","","","","0.3351132613","0.2386362654","0.02607887458","0.2425324642","","","","","","","","","","74","J","1","","","77","main_expt",""
"","bandit","157","952166","0.0-119.0-0.0","74466097","wem/bandit_party_1","A3PQ0KHESAZZ0Y","either","5","2147","","","","","","","1","0","0","0.3086784207","","0.4","0.8","0.6","0.2","","","","","0.3086784207","0.2673679704","0.02492981692","0.205588479","","","","","","","","","","72","H","0","img/none_selected.jpg","","78","main_expt",""
"","bandit","158","955613","0.0-120.0-0.0","74466097","wem/bandit_party_1","A3PQ0KHESAZZ0Y","either","5","1934","","","","","","","0","0","1","","0.3076482073","0.4","0.8","0.6","0.2","0.3076482073","0.2813811921","0.01824110002","0.213062191","","","","","","","","","","","","","","72","H","0","img/none_selected.jpg","","79","main_expt",""
"","bandit","159","957711","0.0-121.0-0.0","74466097","wem/bandit_party_1","A3PQ0KHESAZZ0Y","either","5","583","","","","","","","0","1","0","","0.1852926048","0.4","0.8","0.6","0.2","0.3605025214","0.2419447949","0.0202176162","0.1852926048","","","","","","","","","","","","","","76","L","3","","","80","main_expt",""
"","bandit","160","960310","0.0-122.0-0.0","74466097","wem/bandit_party_1","A3PQ0KHESAZZ0Y","either","5","1087","","","","","","","0","0","1","","0.2332942271","0.4","0.8","0.6","0.2","0.3286166321","0.323481111","0.0252752587","0.2332942271","","","","","","","","","","","","","","76","L","3","","","81","main_expt",""
"","bandit","161","962311","0.0-123.0-0.0","74466097","wem/bandit_party_1","A3PQ0KHESAZZ0Y","either","5","488","","","","","","","0","0","1","","0.05668457717","0.4","0.8","0.6","0.2","0.3459677762","0.3097244961","0.05668457717","0.2087797338","","","","","","","","","","","","","","75","K","2","","","82","main_expt",""
"","bandit","162","964813","0.0-124.0-0.0","74466097","wem/bandit_party_1","A3PQ0KHESAZZ0Y","either","5","988","","","","","","","0","0","1","","0.2787498647","0.4","0.8","0.6","0.2","0.3092751195","0.2787498647","0.07760530004","0.2049979043","","","","","","","","","","","","","","74","J","1","","","83","main_expt",""
"","bandit","163","966863","0.0-125.0-0.0","74466097","wem/bandit_party_1","A3PQ0KHESAZZ0Y","either","5","535","","","","","","","0","1","0","","0.3044630387","0.4","0.8","0.6","0.2","0.3044630387","0.2589524449","0.03696005566","0.2151780091","","","","","","","","","","","","","","72","H","0","img/none_selected.jpg","","84","main_expt",""
"","bandit","164","969875","0.0-126.0-0.0","74466097","wem/bandit_party_1","A3PQ0KHESAZZ0Y","either","5","1497","","","","","","","0","0","1","","0.2812480587","0.4","0.8","0.6","0.2","0.2812480587","0.2769318636","0.04177257934","0.1497615914","","","","","","","","","","","","","","72","H","0","img/none_selected.jpg","","85","main_expt",""
"","bandit","165","972309","0.0-127.0-0.0","74466097","wem/bandit_party_1","A3PQ0KHESAZZ0Y","either","5","919","","","","","","","1","0","0","0.2849222391","","0.4","0.8","0.6","0.2","","","","","0.2506532223","0.2849222391","0.0385770192","0.1223687677","","","","","","","","","","74","J","1","","","86","main_expt",""
"","bandit","166","975378","0.0-128.0-0.0","74466097","wem/bandit_party_1","A3PQ0KHESAZZ0Y","either","5","1554","","","","","","","0","0","1","0.3131087309","","0.4","0.8","0.6","0.2","","","","","0.2269900387","0.3131087309","0.03720252147","0.1472857413","","","","","","","","","","74","J","1","","","87","main_expt",""
"","bandit","167","977521","0.0-129.0-0.0","74466097","wem/bandit_party_1","A3PQ0KHESAZZ0Y","either","5","629","","","","","","","1","0","0","0.06746059371","","0.4","0.8","0.6","0.2","","","","","0.1504729919","0.3038587512","0.06746059371","0.1252586248","","","","","","","","","","75","K","2","","","88","main_expt",""
"","bandit","168","980704","0.0-130.0-0.0","74466097","wem/bandit_party_1","A3PQ0KHESAZZ0Y","either","5","1670","","","","","","","0","0","1","0.1194927994","","0.4","0.8","0.6","0.2","","","","","0.1382070302","0.3308022157","0.04069757945","0.1194927994","","","","","","","","","","76","L","3","","","89","main_expt",""
"","bandit","169","982714","0.0-131.0-0.0","74466097","wem/bandit_party_1","A3PQ0KHESAZZ0Y","either","5","503","","","","","","","0","0","1","","0.07325379503","0.4","0.8","0.6","0.2","0.1364765349","0.3574922351","0.07325379503","0.1589750007","","","","","","","","","","","","","","75","K","2","","","90","main_expt",""
"","bandit","170","984826","0.0-132.0-0.0","74466097","wem/bandit_party_1","A3PQ0KHESAZZ0Y","either","5","596","","","","","","","0","0","1","0.3729517688","","0.4","0.8","0.6","0.2","","","","","0.09318196272","0.3729517688","0.06877471811","0.1859960426","","","","","","","","","","74","J","1","","","91","main_expt",""
"","bandit","171","988617","0.0-133.0-0.0","74466097","wem/bandit_party_1","A3PQ0KHESAZZ0Y","either","5","2269","","","","","","","0","0","1","0.06946097624","","0.4","0.8","0.6","0.2","","","","","0.06946097624","0.398352994","0.04115987362","0.192419488","","","","","","","","","","72","H","0","img/none_selected.jpg","","92","main_expt",""
"","bandit","172","991347","0.0-134.0-0.0","74466097","wem/bandit_party_1","A3PQ0KHESAZZ0Y","either","5","1216","","","","","","","0","0","1","","0.1716033463","0.4","0.8","0.6","0.2","0.08102832817","0.4135860398","0.07078892783","0.1716033463","","","","","","","","","","","","","","76","L","3","","","93","main_expt",""
"","bandit","173","993476","0.0-135.0-0.0","74466097","wem/bandit_party_1","A3PQ0KHESAZZ0Y","either","5","612","","","","","","","0","0","1","","0.05572868433","0.4","0.8","0.6","0.2","0.1271360848","0.3786880174","0.05572868433","0.1935897604","","","","","","","","","","","","","","75","K","2","","","94","main_expt",""
"","bandit","174","995546","0.0-136.0-0.0","74466097","wem/bandit_party_1","A3PQ0KHESAZZ0Y","either","5","556","","","","","","","0","0","1","","0.05056929995","0.4","0.8","0.6","0.2","0.1097592989","0.3823424718","0.05056929995","0.2193228015","","","","","","","","","","","","","","75","K","2","","","95","main_expt",""
"","bandit","175","997574","0.0-137.0-0.0","74466097","wem/bandit_party_1","A3PQ0KHESAZZ0Y","either","5","520","","","","","","","0","0","1","0.3642725552","","0.4","0.8","0.6","0.2","","","","","0.1085490834","0.3642725552","0.04159874267","0.3262643469","","","","","","","","","","74","J","1","","","96","main_expt",""
"","bandit","176","999526","0.0-138.0-0.0","74466097","wem/bandit_party_1","A3PQ0KHESAZZ0Y","either","5","437","","","","","","","0","1","0","","0.1049812554","0.4","0.8","0.6","0.2","0.1049812554","0.3197717944","0.03654451862","0.3207405496","","","","","","","","","","","","","","72","H","0","img/none_selected.jpg","","97","main_expt",""
"","bandit","177","1002445","0.0-139.0-0.0","74466097","wem/bandit_party_1","A3PQ0KHESAZZ0Y","either","5","1406","","","","","","","0","0","1","","0.08177978443","0.4","0.8","0.6","0.2","0.08177978443","0.2514424369","0.04190300095","0.3712856991","","","","","","","","","","","","","","72","H","0","img/none_selected.jpg","","98","main_expt",""
"","bandit","178","1004816","0.0-140.0-0.0","74466097","wem/bandit_party_1","A3PQ0KHESAZZ0Y","either","5","857","","","","","","","0","0","1","","0.3740145378","0.4","0.8","0.6","0.2","0.07574087804","0.2926772137","0.08742990617","0.3740145378","","","","","","","","","","","","","","76","L","3","","","99","main_expt",""
"","bandit","179","1007327","0.0-141.0-0.0","74466097","wem/bandit_party_1","A3PQ0KHESAZZ0Y","either","5","997","","","","","","","0","0","1","0.3776295542","","0.4","0.8","0.6","0.2","","","","","0.07829319678","0.234485335","0.08966523481","0.3776295542","","","","","","","","","","76","L","3","","","100","main_expt",""
"","bandit","180","1009421","0.0-142.0-0.0","74466097","wem/bandit_party_1","A3PQ0KHESAZZ0Y","either","5","581","","","","","","","0","0","1","0.07849065771","","0.4","0.8","0.6","0.2","","","","","0.07919243683","0.250352175","0.07849065771","0.3592666398","","","","","","","","","","75","K","2","","","101","main_expt",""
"","bandit","181","1011422","0.0-143.0-0.0","74466097","wem/bandit_party_1","A3PQ0KHESAZZ0Y","either","5","487","","","","","","","0","0","1","","0.2139972863","0.4","0.8","0.6","0.2","0.1052753188","0.2139972863","0.1054267613","0.3412191773","","","","","","","","","","","","","","74","J","1","","","102","main_expt",""
"","bandit","182","1013429","0.0-144.0-0.0","74466097","wem/bandit_party_1","A3PQ0KHESAZZ0Y","either","5","498","","","","","","","0","0","1","","0.1248526142","0.4","0.8","0.6","0.2","0.1248526142","0.20092706","0.1120981937","0.3133100433","","","","","","","","","","","","","","72","H","0","img/none_selected.jpg","","103","main_expt",""
"","bandit","183","1015305","0.0-145.0-0.0","74466097","wem/bandit_party_1","A3PQ0KHESAZZ0Y","either","5","362","","","","","","","1","0","0","0.3219148419","","0.4","0.8","0.6","0.2","","","","","0.142969925","0.2305366804","0.1034740879","0.3219148419","","","","","","","","","","76","L","3","","","104","main_expt",""
"","bandit","184","1018199","0.0-146.0-0.0","74466097","wem/bandit_party_1","A3PQ0KHESAZZ0Y","either","5","1378","","","","","","","0","1","0","","0.3300892518","0.4","0.8","0.6","0.2","0.13947254","0.2102135581","0.07597240327","0.3300892518","","","","","","","","","","","","","","76","L","3","","","105","main_expt",""
"","bandit","185","1020785","0.0-147.0-0.0","74466097","wem/bandit_party_1","A3PQ0KHESAZZ0Y","either","5","1072","","","","","","","0","0","1","","0.3401839058","0.4","0.8","0.6","0.2","0.1329526997","0.2219457329","0.1124257427","0.3401839058","","","","","","","","","","","","","","76","L","3","","","106","main_expt",""
"","bandit","186","1023498","0.0-148.0-0.0","74466097","wem/bandit_party_1","A3PQ0KHESAZZ0Y","either","5","1198","","","","","","","0","0","1","0.1133168519","","0.4","0.8","0.6","0.2","","","","","0.1727290233","0.3048423019","0.1133168519","0.3784706915","","","","","","","","","","75","K","2","","","107","main_expt",""
"","bandit","187","1025732","0.0-149.0-0.0","74466097","wem/bandit_party_1","A3PQ0KHESAZZ0Y","either","5","721","","","","","","","0","0","1","0.1864487031","","0.4","0.8","0.6","0.2","","","","","0.1864487031","0.258150515","0.1752395656","0.3945753887","","","","","","","","","","72","H","0","img/none_selected.jpg","","108","main_expt",""
"","bandit","188","1027761","0.0-150.0-0.0","74466097","wem/bandit_party_1","A3PQ0KHESAZZ0Y","either","5","514","","","","","","","1","0","0","0.1859129148","","0.4","0.8","0.6","0.2","","","","","0.2463216238","0.1859129148","0.1862973424","0.356827327","","","","","","","","","","74","J","1","","","109","main_expt",""
"","bandit","189","1030106","0.0-151.0-0.0","74466097","wem/bandit_party_1","A3PQ0KHESAZZ0Y","either","5","839","","","","","","","0","0","1","0.1371624404","","0.4","0.8","0.6","0.2","","","","","0.2431522628","0.1371624404","0.2015845776","0.2344179837","","","","","","","","","","74","J","1","","","110","main_expt",""
"","bandit","190","1033520","0.0-152.0-0.0","74466097","wem/bandit_party_1","A3PQ0KHESAZZ0Y","either","5","1900","","","","","","","0","1","0","","0.2003651753","0.4","0.8","0.6","0.2","0.1757476643","0.1258232978","0.2003651753","0.2644823096","","","","","","","","","","","","","","75","K","2","","","111","main_expt",""
"","bandit","191","1036573","0.0-153.0-0.0","74466097","wem/bandit_party_1","A3PQ0KHESAZZ0Y","either","5","1546","","","","","","","0","0","1","","0.21392293","0.4","0.8","0.6","0.2","0.2451518953","0.1529967373","0.21392293","0.28311182","","","","","","","","","","","","","","75","K","2","","","112","main_expt",""
"","bandit","192","1038593","0.0-154.0-0.0","74466097","wem/bandit_party_1","A3PQ0KHESAZZ0Y","either","5","505","","","","","","","0","1","0","","0.2413269532","0.4","0.8","0.6","0.2","0.2407836715","0.148248117","0.1606798039","0.2413269532","","","","","","","","","","","","","","76","L","3","","","113","main_expt",""
"","bandit","193","1041210","0.0-155.0-0.0","74466097","wem/bandit_party_1","A3PQ0KHESAZZ0Y","either","5","1104","","","","","","","0","0","1","","0.3100969134","0.4","0.8","0.6","0.2","0.3099317417","0.1562208239","0.2095980235","0.3100969134","","","","","","","","","","","","","","76","L","3","","","114","main_expt",""
"","bandit","194","1043273","0.0-156.0-0.0","74466097","wem/bandit_party_1","A3PQ0KHESAZZ0Y","either","5","548","","","","","","","0","0","1","0.2138032898","","0.4","0.8","0.6","0.2","","","","","0.3180754701","0.2138032898","0.2550279667","0.329842252","","","","","","","","","","74","J","1","","","115","main_expt",""
"","bandit","195","1045333","0.0-157.0-0.0","74466097","wem/bandit_party_1","A3PQ0KHESAZZ0Y","either","5","546","","","","","","","1","0","0","0.2919742107","","0.4","0.8","0.6","0.2","","","","","0.2919742107","0.2331260325","0.2471764387","0.3223706096","","","","","","","","","","72","H","0","img/none_selected.jpg","","116","main_expt",""
"","bandit","196","1048129","0.0-158.0-0.0","74466097","wem/bandit_party_1","A3PQ0KHESAZZ0Y","either","5","1280","","","","","","","0","1","0","","0.2799774295","0.4","0.8","0.6","0.2","0.2799774295","0.1826309729","0.2730878341","0.3098408215","","","","","","","","","","","","","","72","H","0","img/none_selected.jpg","","117","main_expt",""
"","bandit","197","1051494","0.0-159.0-0.0","74466097","wem/bandit_party_1","A3PQ0KHESAZZ0Y","either","5","1850","","","","","","","0","0","1","0.2646714695","","0.4","0.8","0.6","0.2","","","","","0.2646714695","0.1511269107","0.2071462199","0.2974554567","","","","","","","","","","72","H","0","img/none_selected.jpg","","118","main_expt",""
"","bandit","198","1053582","0.0-160.0-0.0","74466097","wem/bandit_party_1","A3PQ0KHESAZZ0Y","either","5","571","","","","","","","0","0","1","0.2275232499","","0.4","0.8","0.6","0.2","","","","","0.3179839519","0.1559979654","0.2275232499","0.3598468986","","","","","","","","","","75","K","2","","","119","main_expt",""
"","bandit","199","1055624","0.0-161.0-0.0","74466097","wem/bandit_party_1","A3PQ0KHESAZZ0Y","either","5","525","","","","","","","0","0","1","0.1463004055","","0.4","0.8","0.6","0.2","","","","","0.3302262658","0.1463004055","0.2767559596","0.2984373086","","","","","","","","","","74","J","1","","","120","main_expt",""
"","bandit","200","1058505","0.0-162.0-0.0","74466097","wem/bandit_party_1","A3PQ0KHESAZZ0Y","either","5","1364","","","","","","","0","0","1","0.2973090059","","0.4","0.8","0.6","0.2","","","","","0.3500549905","0.1418195479","0.3448590315","0.2973090059","","","","","","","","","","76","L","3","","","121","main_expt",""
"","bandit","201","1060652","0.0-163.0-0.0","74466097","wem/bandit_party_1","A3PQ0KHESAZZ0Y","either","5","633","","","","","","","0","0","1","0.2686616284","","0.4","0.8","0.6","0.2","","","","","0.2686616284","0.1270782113","0.3593301016","0.3382791822","","","","","","","","","","72","H","0","img/none_selected.jpg","","122","main_expt",""
"","bandit","202","1063094","0.0-164.0-0.0","74466097","wem/bandit_party_1","A3PQ0KHESAZZ0Y","either","5","925","","","","","","","0","0","1","0.1207154071","","0.4","0.8","0.6","0.2","","","","","0.2277230314","0.1207154071","0.3680529171","0.3154347028","","","","","","","","","","74","J","1","","","123","main_expt",""
"","bandit","203","1065310","0.0-165.0-0.0","74466097","wem/bandit_party_1","A3PQ0KHESAZZ0Y","either","5","700","","","","","","","0","0","1","0.3476523483","","0.4","0.8","0.6","0.2","","","","","0.3287090939","0.1229329119","0.3476523483","0.2966737815","","","","","","","","","","75","K","2","","","124","main_expt",""
"","bandit","204","1068024","0.0-166.0-0.0","74466097","wem/bandit_party_1","A3PQ0KHESAZZ0Y","either","5","1199","","","","","","","0","0","1","","0.3094831126","0.4","0.8","0.6","0.2","0.3687339586","0.09241122996","0.3564603465","0.3094831126","","","","","","","","","","","","","","76","L","3","","","125","main_expt",""
"","bandit","205","1070818","0.0-167.0-0.0","74466097","wem/bandit_party_1","A3PQ0KHESAZZ0Y","either","5","1287","","","","","","","0","0","1","","0.3836195774","0.4","0.8","0.6","0.2","0.3836195774","0.08418962236","0.3550684458","0.2488993205","","","","","","","","","","","","","","72","H","0","img/none_selected.jpg","","126","main_expt",""
"","bandit","206","1073868","0.0-168.0-0.0","74466097","wem/bandit_party_1","A3PQ0KHESAZZ0Y","either","5","1525","","","","","","","0","0","1","0.154715772","","0.4","0.8","0.6","0.2","","","","","0.3617365958","0.154715772","0.3235559827","0.1953487027","","","","","","","","","","74","J","1","","","127","main_expt",""
"","bandit","207","1076035","0.0-169.0-0.0","74466097","wem/bandit_party_1","A3PQ0KHESAZZ0Y","either","5","648","","","","","","","0","0","1","0.312087491","","0.4","0.8","0.6","0.2","","","","","0.3235283493","0.1556709078","0.312087491","0.2171889907","","","","","","","","","","75","K","2","","","128","main_expt",""
"","bandit","208","1079306","0.0-170.0-0.0","74466097","wem/bandit_party_1","A3PQ0KHESAZZ0Y","either","5","1764","","","","","","","0","0","1","","0.2467699801","0.4","0.8","0.6","0.2","0.3453830546","0.1214200615","0.2843272188","0.2467699801","","","","","","","","","","","","","","76","L","3","","","129","main_expt",""
"","bandit","209","1081443","0.0-171.0-0.0","74466097","wem/bandit_party_1","A3PQ0KHESAZZ0Y","either","5","628","","","","","","","0","1","0","","0.3242747857","0.4","0.8","0.6","0.2","0.3242747857","0.1377283829","0.2128416856","0.2814443482","","","","","","","","","","","","","","72","H","0","img/none_selected.jpg","","130","main_expt",""
"","bandit","210","1083938","0.0-172.0-0.0","74466097","wem/bandit_party_1","A3PQ0KHESAZZ0Y","either","5","980","","","","","","","0","1","0","","0.3417201858","0.4","0.8","0.6","0.2","0.3417201858","0.1397421628","0.2403879813","0.2834176508","","","","","","","","","","","","","","72","H","0","img/none_selected.jpg","","131","main_expt",""
"","bandit","211","1086331","0.0-173.0-0.0","74466097","wem/bandit_party_1","A3PQ0KHESAZZ0Y","either","5","884","","","","","","","0","1","0","","0.3498614837","0.4","0.8","0.6","0.2","0.3498614837","0.1061875113","0.2811421594","0.2429908031","","","","","","","","","","","","","","72","H","0","img/none_selected.jpg","","132","main_expt",""
"","bandit","212","1089595","0.0-174.0-0.0","74466097","wem/bandit_party_1","A3PQ0KHESAZZ0Y","either","5","1739","","","","","","","1","0","0","0.3134828643","","0.4","0.8","0.6","0.2","","","","","0.3134828643","0.07774811701","0.3002858371","0.3053559495","","","","","","","","","","72","H","0","img/none_selected.jpg","","133","main_expt",""
"","bandit","213","1092532","0.0-175.0-0.0","74466097","wem/bandit_party_1","A3PQ0KHESAZZ0Y","either","5","1422","","","","","","","0","0","1","","0.3554593188","0.4","0.8","0.6","0.2","0.3554593188","0.08211281178","0.277406375","0.2693478067","","","","","","","","","","","","","","72","H","0","img/none_selected.jpg","","134","main_expt",""
"","bandit","214","1094707","0.0-176.0-0.0","74466097","wem/bandit_party_1","A3PQ0KHESAZZ0Y","either","5","658","","","","","","","0","0","1","0.2897147582","","0.4","0.8","0.6","0.2","","","","","0.3150900126","0.1123817552","0.2897147582","0.3369166079","","","","","","","","","","75","K","2","","","135","main_expt",""
"","bandit","215","1096895","0.0-177.0-0.0","74466097","wem/bandit_party_1","A3PQ0KHESAZZ0Y","either","5","672","","","","","","","0","0","1","0.1478339482","","0.4","0.8","0.6","0.2","","","","","0.3199395785","0.1478339482","0.3590576628","0.268603144","","","","","","","","","","74","J","1","","","136","main_expt",""
"","bandit","216","1099174","0.0-178.0-0.0","74466097","wem/bandit_party_1","A3PQ0KHESAZZ0Y","either","5","764","","","","","","","0","0","1","","0.2373427956","0.4","0.8","0.6","0.2","0.33362357","0.1374936615","0.3822427384","0.2373427956","","","","","","","","","","","","","","76","L","3","","","137","main_expt",""
"","bandit","217","1101477","0.0-179.0-0.0","74466097","wem/bandit_party_1","A3PQ0KHESAZZ0Y","either","5","788","","","","","","","1","0","0","0.3611324022","","0.4","0.8","0.6","0.2","","","","","0.3611324022","0.159761955","0.3410071165","0.2206869265","","","","","","","","","","72","H","0","img/none_selected.jpg","","138","main_expt",""
"","bandit","218","1104009","0.0-180.0-0.0","74466097","wem/bandit_party_1","A3PQ0KHESAZZ0Y","either","5","1017","","","","","","","1","0","0","0.3504145086","","0.4","0.8","0.6","0.2","","","","","0.3504145086","0.1363721132","0.3738014659","0.2177966349","","","","","","","","","","72","H","0","img/none_selected.jpg","","139","main_expt",""
"","bandit","219","1106901","0.0-181.0-0.0","74466097","wem/bandit_party_1","A3PQ0KHESAZZ0Y","either","5","1386","","","","","","","0","0","1","","0.309774603","0.4","0.8","0.6","0.2","0.309774603","0.1031445192","0.422575493","0.2387685432","","","","","","","","","","","","","","72","H","0","img/none_selected.jpg","","140","main_expt",""
"","bandit","220","1108895","0.0-182.0-0.0","74466097","wem/bandit_party_1","A3PQ0KHESAZZ0Y","either","5","477","","","","","","","0","0","1","0.4439129864","","0.4","0.8","0.6","0.2","","","","","0.3506531288","0.09805286369","0.4439129864","0.2575087366","","","","","","","","","","75","K","2","","","141","main_expt",""
"","bandit","221","1111430","0.0-183.0-0.0","74466097","wem/bandit_party_1","A3PQ0KHESAZZ0Y","either","5","1019","","","","","","","0","0","1","","0.1149002948","0.4","0.8","0.6","0.2","0.2965027242","0.1149002948","0.4323802182","0.2392038972","","","","","","","","","","","","","","74","J","1","","","142","main_expt",""
"","bandit","222","1113607","0.0-184.0-0.0","74466097","wem/bandit_party_1","A3PQ0KHESAZZ0Y","either","5","660","","","","","","","0","0","1","0.2216470548","","0.4","0.8","0.6","0.2","","","","","0.2087517366","0.1209542099","0.4358412593","0.2216470548","","","","","","","","","","76","L","3","","","143","main_expt",""
"","bandit","223","1115745","0.0-185.0-0.0","74466097","wem/bandit_party_1","A3PQ0KHESAZZ0Y","either","5","623","","","","","","","0","0","1","","0.2313605626","0.4","0.8","0.6","0.2","0.2313605626","0.1202521083","0.4407373256","0.2224896139","","","","","","","","","","","","","","72","H","0","img/none_selected.jpg","","144","main_expt",""
"","bandit","224","1118601","0.0-186.0-0.0","74466097","wem/bandit_party_1","A3PQ0KHESAZZ0Y","either","5","1349","","","","","","","0","0","1","0.1619743669","","0.4","0.8","0.6","0.2","","","","","0.1785565547","0.1619743669","0.4661091035","0.1925605464","","","","","","","","","","74","J","1","","","145","main_expt",""
"","bandit","225","1121748","0.0-187.0-0.0","74466097","wem/bandit_party_1","A3PQ0KHESAZZ0Y","either","5","1635","","","","","","","0","0","1","0.4637097668","","0.4","0.8","0.6","0.2","","","","","0.1770660648","0.1664631043","0.4637097668","0.2069800611","","","","","","","","","","75","K","2","","","146","main_expt",""
"","bandit","226","1123927","0.0-188.0-0.0","74466097","wem/bandit_party_1","A3PQ0KHESAZZ0Y","either","5","664","","","","","","","0","1","0","","0.2489662189","0.4","0.8","0.6","0.2","0.1063371611","0.1669241763","0.4700491642","0.2489662189","","","","","","","","","","","","","","76","L","3","","","147","main_expt",""
"","bandit","227","1126531","0.0-189.0-0.0","74466097","wem/bandit_party_1","A3PQ0KHESAZZ0Y","either","5","1096","","","","","","","0","0","1","","0.1946464158","0.4","0.8","0.6","0.2","0.1216370817","0.1581456949","0.4648109734","0.1946464158","","","","","","","","","","","","","","76","L","3","","","148","main_expt",""
"","bandit","228","1128648","0.0-190.0-0.0","74466097","wem/bandit_party_1","A3PQ0KHESAZZ0Y","either","5","602","","","","","","","0","0","1","","0.4635511513","0.4","0.8","0.6","0.2","0.1024256959","0.1698392466","0.4635511513","0.1826562491","","","","","","","","","","","","","","75","K","2","","","149","main_expt",""
"","bandit","229","1131355","0.0-191.0-0.0","74466097","wem/bandit_party_1","A3PQ0KHESAZZ0Y","either","5","1198","","","","","","","0","0","1","0.2140114634","","0.4","0.8","0.6","0.2","","","","","0.1371094633","0.2140114634","0.4445017148","0.1750473563","","","","","","","","","","74","J","1","","","150","main_expt",""
"","bandit","230","1133537","0.0-192.0-0.0","74466097","wem/bandit_party_1","A3PQ0KHESAZZ0Y","either","5","666","","","","","","","0","0","1","","0.1702433702","0.4","0.8","0.6","0.2","0.1702433702","0.2392960001","0.4434799742","0.1109536645","","","","","","","","","","","","","","72","H","0","img/none_selected.jpg","","151","main_expt",""
"","bandit","231","1135812","0.0-193.0-0.0","74466097","wem/bandit_party_1","A3PQ0KHESAZZ0Y","either","5","761","","","","","","","0","0","1","","0.1143086707","0.4","0.8","0.6","0.2","0.1860489046","0.2095863317","0.4451665291","0.1143086707","","","","","","","","","","","","","","76","L","3","","","152","main_expt",""
"","bandit","232","1137916","0.0-194.0-0.0","74466097","wem/bandit_party_1","A3PQ0KHESAZZ0Y","either","5","595","","","","","","","1","0","0","0.4401532833","","0.4","0.8","0.6","0.2","","","","","0.2117094388","0.2543258611","0.4401532833","0.1236290712","","","","","","","","","","75","K","2","","","153","main_expt",""
"","bandit","233","1140649","0.0-195.0-0.0","74466097","wem/bandit_party_1","A3PQ0KHESAZZ0Y","either","5","1215","","","","","","","0","1","0","","0.4516855879","0.4","0.8","0.6","0.2","0.2072389033","0.2602259906","0.4516855879","0.1600695342","","","","","","","","","","","","","","75","K","2","","","154","main_expt",""
"","bandit","234","1143749","0.0-196.0-0.0","74466097","wem/bandit_party_1","A3PQ0KHESAZZ0Y","either","5","1583","","","","","","","0","0","1","0.4480264808","","0.4","0.8","0.6","0.2","","","","","0.1986333914","0.2750581274","0.4480264808","0.1770288166","","","","","","","","","","75","K","2","","","155","main_expt",""
"","bandit","235","1146125","0.0-197.0-0.0","74466097","wem/bandit_party_1","A3PQ0KHESAZZ0Y","either","5","868","","","","","","","0","0","1","0.2438045727","","0.4","0.8","0.6","0.2","","","","","0.2054640346","0.2438045727","0.4260414265","0.1761817894","","","","","","","","","","74","J","1","","","156","main_expt",""
"","bandit","236","1148072","0.0-198.0-0.0","74466097","wem/bandit_party_1","A3PQ0KHESAZZ0Y","either","5","430","","","","","","","0","0","1","","0.1810715383","0.4","0.8","0.6","0.2","0.1810715383","0.2857025143","0.4365201507","0.1998830888","","","","","","","","","","","","","","72","H","0","img/none_selected.jpg","","157","main_expt",""
"","bandit","237","1150845","0.0-199.0-0.0","74466097","wem/bandit_party_1","A3PQ0KHESAZZ0Y","either","5","1258","","","","","","","0","0","1","","0.2150354531","0.4","0.8","0.6","0.2","0.2118906364","0.2887719476","0.4076244479","0.2150354531","","","","","","","","","","","","","","76","L","3","","","158","main_expt",""
"","bandit","238","1153362","0.0-200.0-0.0","74466097","wem/bandit_party_1","A3PQ0KHESAZZ0Y","either","5","1003","","","","","","","1","0","0","0.403953851","","0.4","0.8","0.6","0.2","","","","","0.2293976715","0.2859462397","0.403953851","0.2221069796","","","","","","","","","","75","K","2","","","159","main_expt",""
"","bandit","239","1156044","0.0-201.0-0.0","74466097","wem/bandit_party_1","A3PQ0KHESAZZ0Y","either","5","1176","","","","","","","0","0","1","","0.4282135537","0.4","0.8","0.6","0.2","0.2186051381","0.207432816","0.4282135537","0.2627335039","","","","","","","","","","","","","","75","K","2","","","160","main_expt",""
"","bandit","240","1158143","0.0-202.0-0.0","74466097","wem/bandit_party_1","A3PQ0KHESAZZ0Y","either","5","592","","","","","","","0","0","1","0.1611694724","","0.4","0.8","0.6","0.2","","","","","0.2175927206","0.1611694724","0.4479073124","0.2922457848","","","","","","","","","","74","J","1","","","161","main_expt",""
"","bandit","241","1160245","0.0-203.0-0.0","74466097","wem/bandit_party_1","A3PQ0KHESAZZ0Y","either","5","587","","","","","","","0","0","1","","0.2370404117","0.4","0.8","0.6","0.2","0.2370404117","0.14378348","0.4456201243","0.3040212123","","","","","","","","","","","","","","72","H","0","img/none_selected.jpg","","162","main_expt",""
"","bandit","242","1162422","0.0-204.0-0.0","74466097","wem/bandit_party_1","A3PQ0KHESAZZ0Y","either","5","666","","","","","","","0","0","1","","0.2778780432","0.4","0.8","0.6","0.2","0.2778780432","0.1707099899","0.4384930657","0.2933359027","","","","","","","","","","","","","","72","H","0","img/none_selected.jpg","","163","main_expt",""
"","bandit","243","1165573","0.0-205.0-0.0","74466097","wem/bandit_party_1","A3PQ0KHESAZZ0Y","either","5","1635","","","","","","","1","0","0","0.4231568034","","0.4","0.8","0.6","0.2","","","","","0.2643388611","0.1933693166","0.4231568034","0.2388203062","","","","","","","","","","75","K","2","","","164","main_expt",""
"","bandit","244","1168427","0.0-206.0-0.0","74466097","wem/bandit_party_1","A3PQ0KHESAZZ0Y","either","5","1338","","","","","","","1","0","0","0.4412535734","","0.4","0.8","0.6","0.2","","","","","0.1967204453","0.2406324952","0.4412535734","0.2646204916","","","","","","","","","","75","K","2","","","165","main_expt",""
"","bandit","245","1171556","0.0-207.0-0.0","74466097","wem/bandit_party_1","A3PQ0KHESAZZ0Y","either","5","1606","","","","","","","1","0","0","0.438364003","","0.4","0.8","0.6","0.2","","","","","0.1567937345","0.2650462377","0.438364003","0.2591758032","","","","","","","","","","75","K","2","","","166","main_expt",""
"","bandit","246","1174361","0.0-208.0-0.0","74466097","wem/bandit_party_1","A3PQ0KHESAZZ0Y","either","5","1289","","","","","","","0","1","0","","0.4290991351","0.4","0.8","0.6","0.2","0.1201482918","0.245875583","0.4290991351","0.1955934818","","","","","","","","","","","","","","75","K","2","","","167","main_expt",""
"","bandit","247","1177204","0.0-209.0-0.0","74466097","wem/bandit_party_1","A3PQ0KHESAZZ0Y","either","5","1326","","","","","","","0","0","1","","0.4510860662","0.4","0.8","0.6","0.2","0.0936051119","0.257303599","0.4510860662","0.2090603634","","","","","","","","","","","","","","75","K","2","","","168","main_expt",""
"","bandit","248","1179321","0.0-210.0-0.0","74466097","wem/bandit_party_1","A3PQ0KHESAZZ0Y","either","5","606","","","","","","","0","0","1","","0.2678479696","0.4","0.8","0.6","0.2","0.08775096918","0.2993732043","0.4491424364","0.2678479696","","","","","","","","","","","","","","76","L","3","","","169","main_expt",""
"","bandit","249","1181834","0.0-211.0-0.0","74466097","wem/bandit_party_1","A3PQ0KHESAZZ0Y","either","5","997","","","","","","","0","0","1","","0.2532125956","0.4","0.8","0.6","0.2","0.06743429675","0.3388977639","0.4332244901","0.2532125956","","","","","","","","","","","","","","76","L","3","","","170","main_expt",""
"","bandit","250","1184355","0.0-212.0-0.0","74466097","wem/bandit_party_1","A3PQ0KHESAZZ0Y","either","5","1002","","","","","","","0","1","0","","0.2947926635","0.4","0.8","0.6","0.2","0.05979118822","0.2947926635","0.4405036994","0.2568627054","","","","","","","","","","","","","","74","J","1","","","171","main_expt",""
"","bandit","251","1186609","0.0-213.0-0.0","74466097","wem/bandit_party_1","A3PQ0KHESAZZ0Y","either","5","737","","","","","","","0","0","1","","0.2892529657","0.4","0.8","0.6","0.2","0.03200499914","0.2892529657","0.4358521759","0.2451563353","","","","","","","","","","","","","","74","J","1","","","172","main_expt",""
"","bandit","252","1188519","0.0-214.0-0.0","74466097","wem/bandit_party_1","A3PQ0KHESAZZ0Y","either","5","401","","","","","","","0","0","1","","0.04613358223","0.4","0.8","0.6","0.2","0.04613358223","0.2571917514","0.4471617722","0.3003395367","","","","","","","","","","","","","","72","H","0","img/none_selected.jpg","","173","main_expt",""
"","bandit","253","1191420","0.0-215.0-0.0","74466097","wem/bandit_party_1","A3PQ0KHESAZZ0Y","either","5","1392","","","","","","","0","1","0","","0.4560251174","0.4","0.8","0.6","0.2","0.05969677181","0.244173221","0.4560251174","0.2545998681","","","","","","","","","","","","","","75","K","2","","","174","main_expt",""
"","bandit","254","1193779","0.0-216.0-0.0","74466097","wem/bandit_party_1","A3PQ0KHESAZZ0Y","either","5","845","","","","","","","0","0","1","0.4379349024","","0.4","0.8","0.6","0.2","","","","","0.05930066603","0.2038098688","0.4379349024","0.3383135611","","","","","","","","","","75","K","2","","","175","main_expt",""
"","bandit","255","1195836","0.0-217.0-0.0","74466097","wem/bandit_party_1","A3PQ0KHESAZZ0Y","either","5","539","","","","","","","0","0","1","","0.3880627729","0.4","0.8","0.6","0.2","0.08110879181","0.2053823003","0.4328841116","0.3880627729","","","","","","","","","","","","","","76","L","3","","","176","main_expt",""
"","bandit","256","1197918","0.0-218.0-0.0","74466097","wem/bandit_party_1","A3PQ0KHESAZZ0Y","either","5","573","","","","","","","0","0","1","0.2193083282","","0.4","0.8","0.6","0.2","","","","","0.07611568943","0.2193083282","0.3965365967","0.3920994557","","","","","","","","","","74","J","1","","","177","main_expt",""
"","bandit","257","1200317","0.0-219.0-0.0","74466097","wem/bandit_party_1","A3PQ0KHESAZZ0Y","either","5","882","","","","","","","0","0","1","","0.1220467165","0.4","0.8","0.6","0.2","0.1220467165","0.1904263594","0.3899234309","0.3882277994","","","","","","","","","","","","","","72","H","0","img/none_selected.jpg","","178","main_expt",""
"","bandit","258","1203293","0.0-220.0-0.0","74466097","wem/bandit_party_1","A3PQ0KHESAZZ0Y","either","5","1458","","","","","","","0","0","1","0.4238443777","","0.4","0.8","0.6","0.2","","","","","0.1698853315","0.2212788648","0.4238443777","0.3939691408","","","","","","","","","","75","K","2","","","179","main_expt",""
"","bandit","259","1205257","0.0-221.0-0.0","74466097","wem/bandit_party_1","A3PQ0KHESAZZ0Y","either","5","446","","","","","","","0","0","1","","0.1374762061","0.4","0.8","0.6","0.2","0.1374762061","0.2640717145","0.4487400994","0.4074656662","","","","","","","","","","","","","","72","H","0","img/none_selected.jpg","","180","main_expt",""
"","bandit","260","1207277","0.0-222.0-0.0","74466097","wem/bandit_party_1","A3PQ0KHESAZZ0Y","either","5","502","","","","","","","0","0","1","","0.2426483564","0.4","0.8","0.6","0.2","0.09961924189","0.2426483564","0.4314573438","0.3724421945","","","","","","","","","","","","","","74","J","1","","","181","main_expt",""
"","bandit","261","1209384","0.0-223.0-0.0","74466097","wem/bandit_party_1","A3PQ0KHESAZZ0Y","either","5","589","","","","","","","0","0","1","0.2998177931","","0.4","0.8","0.6","0.2","","","","","0.1391043194","0.2001563476","0.4458059303","0.2998177931","","","","","","","","","","76","L","3","","","182","main_expt",""
"","bandit","262","1211524","0.0-224.0-0.0","74466097","wem/bandit_party_1","A3PQ0KHESAZZ0Y","either","5","622","","","","","","","0","0","1","0.4485460149","","0.4","0.8","0.6","0.2","","","","","0.1336424596","0.2167094124","0.4485460149","0.3629728763","","","","","","","","","","75","K","2","","","183","main_expt",""
"","bandit","263","1214608","0.0-225.0-0.0","74466097","wem/bandit_party_1","A3PQ0KHESAZZ0Y","either","5","1576","","","","","","","0","1","0","","0.115911235","0.4","0.8","0.6","0.2","0.115911235","0.2402813617","0.4078350507","0.3763603645","","","","","","","","","","","","","","72","H","0","img/none_selected.jpg","","184","main_expt",""
"","bandit","264","1217630","0.0-226.0-0.0","74466097","wem/bandit_party_1","A3PQ0KHESAZZ0Y","either","5","1513","","","","","","","0","0","1","","0.1394203739","0.4","0.8","0.6","0.2","0.1394203739","0.2745112141","0.3805788675","0.3472982705","","","","","","","","","","","","","","72","H","0","img/none_selected.jpg","","185","main_expt",""
"","bandit","265","1220567","0.0-227.0-0.0","74466097","wem/bandit_party_1","A3PQ0KHESAZZ0Y","either","5","1420","","","","","","","0","0","1","0.2774566956","","0.4","0.8","0.6","0.2","","","","","0.1557479742","0.2774566956","0.4236809331","0.3095995051","","","","","","","","","","74","J","1","","","186","main_expt",""
"","bandit","266","1223082","0.0-228.0-0.0","74466097","wem/bandit_party_1","A3PQ0KHESAZZ0Y","either","5","1005","","","","","","","0","0","1","","0.2567332284","0.4","0.8","0.6","0.2","0.1823611596","0.2876011691","0.4058627081","0.2567332284","","","","","","","","","","","","","","76","L","3","","","187","main_expt",""
"","bandit","267","1226043","0.0-229.0-0.0","74466097","wem/bandit_party_1","A3PQ0KHESAZZ0Y","either","5","1443","","","","","","","1","0","0","0.3913346521","","0.4","0.8","0.6","0.2","","","","","0.1854179297","0.2947112378","0.3913346521","0.2555256861","","","","","","","","","","75","K","2","","","188","main_expt",""
"","bandit","268","1228752","0.0-230.0-0.0","74466097","wem/bandit_party_1","A3PQ0KHESAZZ0Y","either","5","1190","","","","","","","0","0","1","0.3760164219","","0.4","0.8","0.6","0.2","","","","","0.1875645599","0.2581494","0.3760164219","0.2009875262","","","","","","","","","","75","K","2","","","189","main_expt",""
"","bandit","269","1230969","0.0-231.0-0.0","74466097","wem/bandit_party_1","A3PQ0KHESAZZ0Y","either","5","709","","","","","","","0","0","1","0.1756323468","","0.4","0.8","0.6","0.2","","","","","0.2018323604","0.1756323468","0.3327352817","0.2055488595","","","","","","","","","","74","J","1","","","190","main_expt",""
"","bandit","270","1233017","0.0-232.0-0.0","74466097","wem/bandit_party_1","A3PQ0KHESAZZ0Y","either","5","528","","","","","","","0","0","1","0.221094727","","0.4","0.8","0.6","0.2","","","","","0.221094727","0.2521570866","0.3015177445","0.1506387864","","","","","","","","","","72","H","0","img/none_selected.jpg","","191","main_expt",""
"","bandit","271","1236533","0.0-233.0-0.0","74466097","wem/bandit_party_1","A3PQ0KHESAZZ0Y","either","5","1996","","","","","","","0","0","1","0.2027442266","","0.4","0.8","0.6","0.2","","","","","0.2320570195","0.2964739449","0.2773298268","0.2027442266","","","","","","","","","","76","L","3","","","192","main_expt",""
"","bandit","272","1239074","0.0-234.0-0.0","74466097","wem/bandit_party_1","A3PQ0KHESAZZ0Y","either","5","1022","","","","","","","0","0","1","0.2612966838","","0.4","0.8","0.6","0.2","","","","","0.2948950962","0.2612966838","0.2836613797","0.1969137872","","","","","","","","","","74","J","1","","","193","main_expt",""
"","bandit","273","1242106","0.0-235.0-0.0","74466097","wem/bandit_party_1","A3PQ0KHESAZZ0Y","either","5","1514","","","","","","","1","0","0","0.2799350415","","0.4","0.8","0.6","0.2","","","","","0.2602906927","0.3292914436","0.2799350415","0.2114994946","","","","","","","","","","75","K","2","","","194","main_expt",""
"","bandit","274","1244872","0.0-236.0-0.0","74466097","wem/bandit_party_1","A3PQ0KHESAZZ0Y","either","5","1248","","","","","","","0","0","1","","0.2068597772","0.4","0.8","0.6","0.2","0.1771499101","0.4070308407","0.2068597772","0.2467939011","","","","","","","","","","","","","","75","K","2","","","195","main_expt",""
"","bandit","275","1247450","0.0-237.0-0.0","74466097","wem/bandit_party_1","A3PQ0KHESAZZ0Y","either","5","1057","","","","","","","0","0","1","0.1746274925","","0.4","0.8","0.6","0.2","","","","","0.1746274925","0.3494820729","0.2679469531","0.2731811988","","","","","","","","","","72","H","0","img/none_selected.jpg","","196","main_expt",""
"","bandit","276","1249790","0.0-238.0-0.0","74466097","wem/bandit_party_1","A3PQ0KHESAZZ0Y","either","5","821","","","","","","","0","0","1","0.2512114903","","0.4","0.8","0.6","0.2","","","","","0.193224684","0.3571939809","0.2448078588","0.2512114903","","","","","","","","","","76","L","3","","","197","main_expt",""
"","bandit","277","1252477","0.0-239.0-0.0","74466097","wem/bandit_party_1","A3PQ0KHESAZZ0Y","either","5","1180","","","","","","","1","0","0","0.382430028","","0.4","0.8","0.6","0.2","","","","","0.1771509929","0.382430028","0.2433987968","0.190651112","","","","","","","","","","74","J","1","","","198","main_expt",""
"","bandit","278","1254845","0.0-240.0-0.0","74466097","wem/bandit_party_1","A3PQ0KHESAZZ0Y","either","5","849","","","","","","","1","0","0","0.3353474301","","0.4","0.8","0.6","0.2","","","","","0.2466668772","0.3353474301","0.2653624242","0.1701189695","","","","","","","","","","74","J","1","","","199","main_expt",""
"","bandit","279","1257609","0.0-241.0-0.0","74466097","wem/bandit_party_1","A3PQ0KHESAZZ0Y","either","5","1244","","","","","","","0","0","1","0.3321976498","","0.4","0.8","0.6","0.2","","","","","0.2477816141","0.3321976498","0.2551376492","0.1656975488","","","","","","","","","","74","J","1","","","200","main_expt",""
"","bandit","280","1259943","0.0-242.0-0.0","74466097","wem/bandit_party_1","A3PQ0KHESAZZ0Y","either","5","814","","","","","","","1","0","0","0.2660639347","","0.4","0.8","0.6","0.2","","","","","0.2744817861","0.3218117355","0.2660639347","0.1647298582","","","","","","","","","","75","K","2","","","201","main_expt",""
"","bandit","281","1262663","0.0-243.0-0.0","74466097","wem/bandit_party_1","A3PQ0KHESAZZ0Y","either","5","1210","","","","","","","0","0","1","","0.2220900594","0.4","0.8","0.6","0.2","0.3043062986","0.2949214693","0.2220900594","0.1242041815","","","","","","","","","","","","","","75","K","2","","","202","main_expt",""
"","bandit","282","1264838","0.0-244.0-0.0","74466097","wem/bandit_party_1","A3PQ0KHESAZZ0Y","either","5","655","","","","","","","0","0","1","","0.1684487429","0.4","0.8","0.6","0.2","0.272185569","0.300077299","0.1543353204","0.1684487429","","","","","","","","","","","","","","76","L","3","","","203","main_expt",""
"","bandit","283","1267027","0.0-245.0-0.0","74466097","wem/bandit_party_1","A3PQ0KHESAZZ0Y","either","5","669","","","","","","","1","0","0","0.2866085977","","0.4","0.8","0.6","0.2","","","","","0.2610767704","0.2866085977","0.1605482003","0.1666409686","","","","","","","","","","74","J","1","","","204","main_expt",""
"","bandit","284","1269366","0.0-246.0-0.0","74466097","wem/bandit_party_1","A3PQ0KHESAZZ0Y","either","5","820","","","","","","","0","0","1","0.2695546272","","0.4","0.8","0.6","0.2","","","","","0.2832615928","0.2695546272","0.1406914754","0.2197286508","","","","","","","","","","74","J","1","","","205","main_expt",""
"","bandit","285","1271443","0.0-247.0-0.0","74466097","wem/bandit_party_1","A3PQ0KHESAZZ0Y","either","5","556","","","","","","","0","0","1","","0.300913322","0.4","0.8","0.6","0.2","0.300913322","0.2622178416","0.1138947463","0.2754509052","","","","","","","","","","","","","","72","H","0","img/none_selected.jpg","","206","main_expt",""
"","bandit","286","1274044","0.0-248.0-0.0","74466097","wem/bandit_party_1","A3PQ0KHESAZZ0Y","either","5","1079","","","","","","","1","0","0","0.3260258847","","0.4","0.8","0.6","0.2","","","","","0.3260258847","0.2498186578","0.1096702189","0.2664869377","","","","","","","","","","72","H","0","img/none_selected.jpg","","207","main_expt",""
"","bandit","287","1276434","0.0-249.0-0.0","74466097","wem/bandit_party_1","A3PQ0KHESAZZ0Y","either","5","870","","","","","","","0","0","1","","0.3173829003","0.4","0.8","0.6","0.2","0.3173829003","0.2335358635","0.09922356593","0.2686565688","","","","","","","","","","","","","","72","H","0","img/none_selected.jpg","","208","main_expt",""
"","bandit","288","1278490","0.0-250.0-0.0","74466097","wem/bandit_party_1","A3PQ0KHESAZZ0Y","either","5","537","","","","","","","0","1","0","","0.2380255957","0.4","0.8","0.6","0.2","0.3153846937","0.2638942681","0.101567507","0.2380255957","","","","","","","","","","","","","","76","L","3","","","209","main_expt",""
"","bandit","289","1280637","0.0-251.0-0.0","74466097","wem/bandit_party_1","A3PQ0KHESAZZ0Y","either","5","627","","","","","","","0","0","1","","0.2507768727","0.4","0.8","0.6","0.2","0.3010876552","0.2526926237","0.08675379402","0.2507768727","","","","","","","","","","","","","","76","L","3","","","210","main_expt",""
"","bandit","290","1282737","0.0-252.0-0.0","74466097","wem/bandit_party_1","A3PQ0KHESAZZ0Y","either","5","580","","","","","","","0","0","1","0.07512021269","","0.4","0.8","0.6","0.2","","","","","0.2864900033","0.2740367769","0.07512021269","0.2685142319","","","","","","","","","","75","K","2","","","211","main_expt",""
"","bandit","291","1284888","0.0-253.0-0.0","74466097","wem/bandit_party_1","A3PQ0KHESAZZ0Y","either","5","630","","","","","","","0","1","0","","0.2440836191","0.4","0.8","0.6","0.2","0.3163372434","0.2440836191","0.08144254236","0.260511483","","","","","","","","","","","","","","74","J","1","","","212","main_expt",""
"","bandit","292","1287011","0.0-254.0-0.0","74466097","wem/bandit_party_1","A3PQ0KHESAZZ0Y","either","5","602","","","","","","","0","0","1","","0.2341903104","0.4","0.8","0.6","0.2","0.2701305136","0.2341903104","0.06585574052","0.2579605047","","","","","","","","","","","","","","74","J","1","","","213","main_expt",""
"","bandit","293","1289051","0.0-255.0-0.0","74466097","wem/bandit_party_1","A3PQ0KHESAZZ0Y","either","5","520","","","","","","","0","1","0","","0.302599165","0.4","0.8","0.6","0.2","0.302599165","0.2097526345","0.08686614453","0.2470456849","","","","","","","","","","","","","","72","H","0","img/none_selected.jpg","","214","main_expt",""
"","bandit","294","1291293","0.0-256.0-0.0","74466097","wem/bandit_party_1","A3PQ0KHESAZZ0Y","either","5","721","","","","","","","0","0","1","","0.2968005471","0.4","0.8","0.6","0.2","0.2968005471","0.1796882487","0.1068548489","0.3285383036","","","","","","","","","","","","","","72","H","0","img/none_selected.jpg","","215","main_expt",""
"","bandit","295","1293870","0.0-257.0-0.0","74466097","wem/bandit_party_1","A3PQ0KHESAZZ0Y","either","5","1056","","","","","","","1","0","0","0.3780044773","","0.4","0.8","0.6","0.2","","","","","0.2835536598","0.2237900511","0.1211736082","0.3780044773","","","","","","","","","","76","L","3","","","216","main_expt",""
"","bandit","296","1296068","0.0-258.0-0.0","74466097","wem/bandit_party_1","A3PQ0KHESAZZ0Y","either","5","679","","","","","","","0","0","1","0.3939228946","","0.4","0.8","0.6","0.2","","","","","0.2520762718","0.2265358539","0.09343701815","0.3939228946","","","","","","","","","","76","L","3","","","217","main_expt",""
"","bandit","297","1299310","0.0-259.0-0.0","74466097","wem/bandit_party_1","A3PQ0KHESAZZ0Y","either","5","1733","","","","","","","0","0","1","","0.1001055386","0.4","0.8","0.6","0.2","0.2562699476","0.2364013437","0.1001055386","0.3198270803","","","","","","","","","","","","","","75","K","2","","","218","main_expt",""
"","bandit","298","1301421","0.0-260.0-0.0","74466097","wem/bandit_party_1","A3PQ0KHESAZZ0Y","either","5","604","","","","","","","0","0","1","","0.2810560361","0.4","0.8","0.6","0.2","0.3002431464","0.2810560361","0.09524874014","0.3502502288","","","","","","","","","","","","","","74","J","1","","","219","main_expt",""
"","bandit","299","1303965","0.0-261.0-0.0","74466097","wem/bandit_party_1","A3PQ0KHESAZZ0Y","either","5","1025","","","","","","","0","0","1","","0.3365413303","0.4","0.8","0.6","0.2","0.3365413303","0.3027429446","0.1304899995","0.3402456168","","","","","","","","","","","","","","72","H","0","img/none_selected.jpg","","220","main_expt",""
"","bandit","300","1306351","0.0-262.0-0.0","74466097","wem/bandit_party_1","A3PQ0KHESAZZ0Y","either","5","877","","","","","","","0","0","1","0.1272814923","","0.4","0.8","0.6","0.2","","","","","0.2946103072","0.3132134988","0.1272814923","0.3770059732","","","","","","","","","","75","K","2","","","221","main_expt",""
"","bandit","301","1308454","0.0-263.0-0.0","74466097","wem/bandit_party_1","A3PQ0KHESAZZ0Y","either","5","583","","","","","","","0","0","1","0.2424821827","","0.4","0.8","0.6","0.2","","","","","0.3267284332","0.2424821827","0.1654407056","0.3864421123","","","","","","","","","","74","J","1","","","222","main_expt",""
"","bandit","302","1311374","0.0-264.0-0.0","74466097","wem/bandit_party_1","A3PQ0KHESAZZ0Y","either","5","1400","","","","","","","0","1","0","","0.4205211408","0.4","0.8","0.6","0.2","0.3175152631","0.2595367495","0.1788325852","0.4205211408","","","","","","","","","","","","","","76","L","3","","","223","main_expt",""
"","bandit","303","1313993","0.0-265.0-0.0","74466097","wem/bandit_party_1","A3PQ0KHESAZZ0Y","either","5","1098","","","","","","","0","0","1","","0.4131889957","0.4","0.8","0.6","0.2","0.3192400935","0.328819141","0.1736623033","0.4131889957","","","","","","","","","","","","","","76","L","3","","","224","main_expt",""
"","bandit","304","1316837","0.0-266.0-0.0","74466097","wem/bandit_party_1","A3PQ0KHESAZZ0Y","either","5","1336","","","","","","","0","0","1","0.1721911447","","0.4","0.8","0.6","0.2","","","","","0.3096750449","0.356121412","0.1721911447","0.4001513574","","","","","","","","","","75","K","2","","","225","main_expt",""
"","bandit","305","1320033","0.0-267.0-0.0","74466097","wem/bandit_party_1","A3PQ0KHESAZZ0Y","either","5","1676","","","","","","","0","0","1","0.3142833063","","0.4","0.8","0.6","0.2","","","","","0.3142833063","0.3394019192","0.2133818582","0.3963688582","","","","","","","","","","72","H","0","img/none_selected.jpg","","226","main_expt",""
"","bandit","306","1321673","0.0-268.0-0.0","74466097","wem/bandit_party_1","A3PQ0KHESAZZ0Y","either","5","133","","","","","","","0","0","1","0.2860553004","","0.4","0.8","0.6","0.2","","","","","0.3096885674","0.2860553004","0.2620007467","0.3979714495","","","","","","","","","","74","J","1","","","227","main_expt",""
"","bandit","307","1324301","0.0-269.0-0.0","74466097","wem/bandit_party_1","A3PQ0KHESAZZ0Y","either","5","1116","","","","","","","0","1","0","","0.3811043637","0.4","0.8","0.6","0.2","0.3048295172","0.2967856672","0.2961930455","0.3811043637","","","","","","","","","","","","","","76","L","3","","","228","main_expt",""
"","bandit","308","1327353","0.0-270.0-0.0","74466097","wem/bandit_party_1","A3PQ0KHESAZZ0Y","either","5","1532","","","","","","","1","0","0","0.3488149186","","0.4","0.8","0.6","0.2","","","","","0.2553920021","0.2857745529","0.3081123415","0.3488149186","","","","","","","","","","76","L","3","","","229","main_expt",""
"","bandit","309","1329833","0.0-271.0-0.0","74466097","wem/bandit_party_1","A3PQ0KHESAZZ0Y","either","5","961","","","","","","","1","0","0","0.2883621188","","0.4","0.8","0.6","0.2","","","","","0.2783794412","0.2589404948","0.3027177586","0.2883621188","","","","","","","","","","76","L","3","","","230","main_expt",""
"","bandit","310","1332498","0.0-272.0-0.0","74466097","wem/bandit_party_1","A3PQ0KHESAZZ0Y","either","5","1154","","","","","","","0","1","0","","0.2444465504","0.4","0.8","0.6","0.2","0.2735536708","0.2628441024","0.2495346478","0.2444465504","","","","","","","","","","","","","","76","L","3","","","231","main_expt",""
"","bandit","311","1335045","0.0-273.0-0.0","74466097","wem/bandit_party_1","A3PQ0KHESAZZ0Y","either","5","1026","","","","","","","0","0","1","","0.2996930955","0.4","0.8","0.6","0.2","0.2262440502","0.276537748","0.2185872191","0.2996930955","","","","","","","","","","","","","","76","L","3","","","232","main_expt",""
"","bandit","312","1337746","0.0-274.0-0.0","74466097","wem/bandit_party_1","A3PQ0KHESAZZ0Y","either","5","1181","","","","","","","0","1","0","","0.1874863907","0.4","0.8","0.6","0.2","0.2171974885","0.2485723575","0.1874863907","0.3103031796","","","","","","","","","","","","","","75","K","2","","","233","main_expt",""
"","bandit","313","1340099","0.0-275.0-0.0","74466097","wem/bandit_party_1","A3PQ0KHESAZZ0Y","either","5","844","","","","","","","0","0","1","0.2165838284","","0.4","0.8","0.6","0.2","","","","","0.2951485073","0.2172766866","0.2165838284","0.2971988612","","","","","","","","","","75","K","2","","","234","main_expt",""
"","bandit","314","1342231","0.0-276.0-0.0","74466097","wem/bandit_party_1","A3PQ0KHESAZZ0Y","either","5","610","","","","","","","1","0","0","0.221542824","","0.4","0.8","0.6","0.2","","","","","0.3135740045","0.221542824","0.1791302586","0.3266576642","","","","","","","","","","74","J","1","","","235","main_expt",""
"","bandit","315","1344782","0.0-277.0-0.0","74466097","wem/bandit_party_1","A3PQ0KHESAZZ0Y","either","5","1031","","","","","","","0","0","1","","0.2200573756","0.4","0.8","0.6","0.2","0.2945285262","0.2200573756","0.2463713802","0.3596878827","","","","","","","","","","","","","","74","J","1","","","236","main_expt",""
