"consent","trial_type","trial_index","time_elapsed","internal_node_id","subjID","study","MID","cond","drift","rt","responses","button_pressed","key_press","like","value","connected","gems","bombs","no_reward","GemPrChosen","BombPrChosen","GainOverPainPr_0","GainOverPainPr_1","GainOverPainPr_2","GainOverPainPr_3","LosePr_0","LosePr_1","LosePr_2","LosePr_3","WinPr_0","WinPr_1","WinPr_2","WinPr_3","Q0","Q1","Q2","gender","age","ethnicity","label","expt_phase","target","respCharCode","respKey","respChoiceNum","respChoice","practice","trial_counter","trial_label","Q0_index"
"GDM/GDM_behavioral_consent_30min_online.html","consent","0","35626","0.0-0.0","75080970","wem/bandit_party_1","A98E8M4QLI9RS","either","2","","","","","","","","","","","","","","","","","","","","","","","","","","","","","","","","","","","","","","","","",""
"","survey-text","1","45475","0.0-1.0","75080970","wem/bandit_party_1","A98E8M4QLI9RS","either","2","8782","{""Q0"":""A98E8M4QLI9RS""}","","","","","","","","","","","","","","","","","","","","","","","","","","","","","","","","","","","","","","",""
"","button-response","2","48956","0.0-2.0","75080970","wem/bandit_party_1","A98E8M4QLI9RS","either","2","2470","","1","","","","","","","","","","","","","","","","","","","","","","","","","","","","","","","","","","","","","",""
"","text-replacement","3","71928","0.0-3.0","75080970","wem/bandit_party_1","A98E8M4QLI9RS","either","2","21964","","","32","","","","","","","","","","","","","","","","","","","","","","","","","","","","","","","","","","","","",""
"","text-replacement","4","85134","0.0-4.0","75080970","wem/bandit_party_1","A98E8M4QLI9RS","either","2","13200","","","32","","","","","","","","","","","","","","","","","","","","","","","","","","","","","","","","","","","","",""
"","identification","5","94517","0.0-6.0-0.0","75080970","wem/bandit_party_1","A98E8M4QLI9RS","either","2","9332","","","","1","1","0","","","","","","","","","","","","","","","","","","","","","","","","pre","identification_pre","the Republican party","","","","","","","",""
"","identification","6","102634","0.0-6.0-1.0","75080970","wem/bandit_party_1","A98E8M4QLI9RS","either","2","7072","","","","5","5","5","","","","","","","","","","","","","","","","","","","","","","","","pre","identification_pre","the Democratic Party","","","","","","","",""
"","text-replacement","7","113324","0.0-7.0","75080970","wem/bandit_party_1","A98E8M4QLI9RS","either","2","9683","","","32","","","","","","","","","","","","","","","","","","","","","","","","","","","","","","","","","","","","",""
"","text-replacement","8","124380","0.0-8.0","75080970","wem/bandit_party_1","A98E8M4QLI9RS","either","2","11049","","","32","","","","","","","","","","","","","","","","","","","","","","","","","","","","","","","","","","","","",""
"","text-replacement","9","135827","0.0-9.0","75080970","wem/bandit_party_1","A98E8M4QLI9RS","either","2","11441","","","32","","","","","","","","","","","","","","","","","","","","","","","","","","","","","","","","","","","","",""
"","text-replacement","10","141069","0.0-10.0","75080970","wem/bandit_party_1","A98E8M4QLI9RS","either","2","5238","","","32","","","","","","","","","","","","","","","","","","","","","","","","","","","","","","","","","","","","",""
"","text-replacement","11","149972","0.0-11.0","75080970","wem/bandit_party_1","A98E8M4QLI9RS","either","2","8897","","","32","","","","","","","","","","","","","","","","","","","","","","","","","","","","","","","","","","","","",""
"","bandit","12","152969","0.0-12.0-0.0","75080970","wem/bandit_party_1","A98E8M4QLI9RS","either","2","1475","","","","","","","0","0","1","0","0","","","","","0","","","","0","","","","","","","","","","","","","74","J","0","img/none_selected_demo.jpg","true","0","",""
"","bandit","13","155132","0.0-13.0-0.0","75080970","wem/bandit_party_1","A98E8M4QLI9RS","either","2","647","","","","","","","0","0","1","0","0","","","","","0","","","","0","","","","","","","","","","","","","75","K","0","img/none_selected_demo.jpg","true","0","",""
"","text-replacement","14","181491","0.0-14.0","75080970","wem/bandit_party_1","A98E8M4QLI9RS","either","2","26354","","","32","","","","","","","","","","","","","","","","","","","","","","","","","","","","","","","","","","","","",""
"","text-replacement","15","188484","0.0-15.0","75080970","wem/bandit_party_1","A98E8M4QLI9RS","either","2","6987","","","32","","","","","","","","","","","","","","","","","","","","","","","","","","","","","","","","","","","","",""
"","text-replacement","16","200121","0.0-16.0","75080970","wem/bandit_party_1","A98E8M4QLI9RS","either","2","11632","","","32","","","","","","","","","","","","","","","","","","","","","","","","","","","","","","","","","","","","",""
"","text-replacement","17","204177","0.0-17.0","75080970","wem/bandit_party_1","A98E8M4QLI9RS","either","2","4051","","","32","","","","","","","","","","","","","","","","","","","","","","","","","","","","","","","","","","","","",""
"","bandit","18","206445","0.0-18.0-0.0","75080970","wem/bandit_party_1","A98E8M4QLI9RS","either","2","752","","","","","","","0","1","0","","0.8","0.5","0.5","","","0.8","0.2","","","","","","","","","","","","","","","","74","J","0","img/none_selected_demo.jpg","true","0","80_20_practice",""
"","bandit","19","208778","0.0-18.0-1.0","75080970","wem/bandit_party_1","A98E8M4QLI9RS","either","2","820","","","","","","","0","0","1","","0.2","0.5","0.5","","","0.8","0.2","","","","","","","","","","","","","","","","75","K","1","","true","0","80_20_practice",""
"","bandit","20","210335","0.0-18.0-2.0","75080970","wem/bandit_party_1","A98E8M4QLI9RS","either","2","42","","","","","","","0","1","0","","0.8","0.5","0.5","","","0.8","0.2","","","","","","","","","","","","","","","","74","J","0","img/none_selected_demo.jpg","true","0","80_20_practice",""
"","bandit","21","212281","0.0-18.0-3.0","75080970","wem/bandit_party_1","A98E8M4QLI9RS","either","2","432","","","","","","","0","1","0","","0.8","0.5","0.5","","","0.8","0.2","","","","","","","","","","","","","","","","74","J","0","img/none_selected_demo.jpg","true","0","80_20_practice",""
"","bandit","22","214299","0.0-18.0-4.0","75080970","wem/bandit_party_1","A98E8M4QLI9RS","either","2","506","","","","","","","0","0","1","","0.2","0.5","0.5","","","0.8","0.2","","","","","","","","","","","","","","","","75","K","1","","true","0","80_20_practice",""
"","bandit","23","215832","0.0-18.0-5.0","75080970","wem/bandit_party_1","A98E8M4QLI9RS","either","2","20","","","","","","","1","0","0","0.8","","0.5","0.5","","","","","","","0.8","0.2","","","","","","","","","","","","74","J","0","img/none_selected_demo.jpg","true","0","80_20_practice",""
"","bandit","24","217378","0.0-18.0-6.0","75080970","wem/bandit_party_1","A98E8M4QLI9RS","either","2","27","","","","","","","1","0","0","0.8","","0.5","0.5","","","","","","","0.8","0.2","","","","","","","","","","","","74","J","0","img/none_selected_demo.jpg","true","0","80_20_practice",""
"","bandit","25","219187","0.0-18.0-7.0","75080970","wem/bandit_party_1","A98E8M4QLI9RS","either","2","295","","","","","","","0","1","0","","0.8","0.5","0.5","","","0.8","0.2","","","","","","","","","","","","","","","","74","J","0","img/none_selected_demo.jpg","true","0","80_20_practice",""
"","bandit","26","221579","0.0-18.0-8.0","75080970","wem/bandit_party_1","A98E8M4QLI9RS","either","2","878","","","","","","","0","0","1","","0.2","0.5","0.5","","","0.8","0.2","","","","","","","","","","","","","","","","75","K","1","","true","0","80_20_practice",""
"","bandit","27","223428","0.0-18.0-9.0","75080970","wem/bandit_party_1","A98E8M4QLI9RS","either","2","333","","","","","","","0","1","0","","0.8","0.5","0.5","","","0.8","0.2","","","","","","","","","","","","","","","","74","J","0","img/none_selected_demo.jpg","true","0","80_20_practice",""
"","bandit","28","225299","0.0-18.0-10.0","75080970","wem/bandit_party_1","A98E8M4QLI9RS","either","2","355","","","","","","","1","0","0","0.8","","0.5","0.5","","","","","","","0.8","0.2","","","","","","","","","","","","74","J","0","img/none_selected_demo.jpg","true","0","80_20_practice",""
"","bandit","29","227138","0.0-18.0-11.0","75080970","wem/bandit_party_1","A98E8M4QLI9RS","either","2","325","","","","","","","0","1","0","","0.8","0.5","0.5","","","0.8","0.2","","","","","","","","","","","","","","","","74","J","0","img/none_selected_demo.jpg","true","0","80_20_practice",""
"","bandit","30","228939","0.0-18.0-12.0","75080970","wem/bandit_party_1","A98E8M4QLI9RS","either","2","286","","","","","","","1","0","0","0.8","","0.5","0.5","","","","","","","0.8","0.2","","","","","","","","","","","","74","J","0","img/none_selected_demo.jpg","true","0","80_20_practice",""
"","bandit","31","232322","0.0-18.0-13.0","75080970","wem/bandit_party_1","A98E8M4QLI9RS","either","2","1866","","","","","","","1","0","0","0.8","","0.5","0.5","","","","","","","0.8","0.2","","","","","","","","","","","","74","J","0","img/none_selected_demo.jpg","true","0","80_20_practice",""
"","bandit","32","234156","0.0-18.0-14.0","75080970","wem/bandit_party_1","A98E8M4QLI9RS","either","2","316","","","","","","","0","0","1","","0.8","0.5","0.5","","","0.8","0.2","","","","","","","","","","","","","","","","74","J","0","img/none_selected_demo.jpg","true","0","80_20_practice",""
"","bandit","33","236139","0.0-18.0-15.0","75080970","wem/bandit_party_1","A98E8M4QLI9RS","either","2","467","","","","","","","0","0","1","0.2","","0.5","0.5","","","","","","","0.8","0.2","","","","","","","","","","","","75","K","1","","true","0","80_20_practice",""
"","bandit","34","238181","0.0-18.0-16.0","75080970","wem/bandit_party_1","A98E8M4QLI9RS","either","2","524","","","","","","","0","1","0","","0.8","0.5","0.5","","","0.8","0.2","","","","","","","","","","","","","","","","74","J","0","img/none_selected_demo.jpg","true","0","80_20_practice",""
"","bandit","35","239866","0.0-18.0-17.0","75080970","wem/bandit_party_1","A98E8M4QLI9RS","either","2","170","","","","","","","1","0","0","0.8","","0.5","0.5","","","","","","","0.8","0.2","","","","","","","","","","","","74","J","0","img/none_selected_demo.jpg","true","0","80_20_practice",""
"","bandit","36","241442","0.0-18.0-18.0","75080970","wem/bandit_party_1","A98E8M4QLI9RS","either","2","62","","","","","","","0","1","0","","0.8","0.5","0.5","","","0.8","0.2","","","","","","","","","","","","","","","","74","J","0","img/none_selected_demo.jpg","true","0","80_20_practice",""
"","bandit","37","243091","0.0-18.0-19.0","75080970","wem/bandit_party_1","A98E8M4QLI9RS","either","2","133","","","","","","","0","1","0","","0.8","0.5","0.5","","","0.8","0.2","","","","","","","","","","","","","","","","74","J","0","img/none_selected_demo.jpg","true","0","80_20_practice",""
"","text-replacement","38","247850","0.0-19.0","75080970","wem/bandit_party_1","A98E8M4QLI9RS","either","2","4751","","","32","","","","","","","","","","","","","","","","","","","","","","","","","","","","","","","","","","","","",""
"","bandit","39","251124","0.0-20.0-0.0","75080970","wem/bandit_party_1","A98E8M4QLI9RS","either","2","1757","","","","","","","1","0","0","1","0","","","","","0","1","","","1","0","","","","","","","","","","","","74","J","0","img/none_selected_demo.jpg","true","0","",""
"","text-replacement","40","259154","0.0-21.0","75080970","wem/bandit_party_1","A98E8M4QLI9RS","either","2","8022","","","32","","","","","","","","","","","","","","","","","","","","","","","","","","","","","","","","","","","","",""
"","text-replacement","41","266256","0.0-22.0","75080970","wem/bandit_party_1","A98E8M4QLI9RS","either","2","7096","","","32","","","","","","","","","","","","","","","","","","","","","","","","","","","","","","","","","","","","",""
"","text-replacement","42","271410","0.0-23.0","75080970","wem/bandit_party_1","A98E8M4QLI9RS","either","2","5149","","","32","","","","","","","","","","","","","","","","","","","","","","","","","","","","","","","","","","","","",""
"","text-replacement","43","277411","0.0-24.0","75080970","wem/bandit_party_1","A98E8M4QLI9RS","either","2","5993","","","32","","","","","","","","","","","","","","","","","","","","","","","","","","","","","","","","","","","","",""
"","text-replacement","44","288042","0.0-25.0","75080970","wem/bandit_party_1","A98E8M4QLI9RS","either","2","10623","","","32","","","","","","","","","","","","","","","","","","","","","","","","","","","","","","","","","","","","",""
"","text-replacement","45","292714","0.0-26.0","75080970","wem/bandit_party_1","A98E8M4QLI9RS","either","2","4665","","","32","","","","","","","","","","","","","","","","","","","","","","","","","","","","","","","","","","","","",""
"","text-replacement","46","298178","0.0-27.0","75080970","wem/bandit_party_1","A98E8M4QLI9RS","either","2","5457","","","32","","","","","","","","","","","","","","","","","","","","","","","","","","","","","","","","","","","","",""
"","text-replacement","47","302626","0.0-28.0","75080970","wem/bandit_party_1","A98E8M4QLI9RS","either","2","4441","","","32","","","","","","","","","","","","","","","","","","","","","","","","","","","","","","","","","","","","",""
"","text-replacement","48","308435","0.0-29.0","75080970","wem/bandit_party_1","A98E8M4QLI9RS","either","2","5801","","","32","","","","","","","","","","","","","","","","","","","","","","","","","","","","","","","","","","","","",""
"","text-replacement","49","311779","0.0-30.0","75080970","wem/bandit_party_1","A98E8M4QLI9RS","either","2","3337","","","32","","","","","","","","","","","","","","","","","","","","","","","","","","","","","","","","","","","","",""
"","text-replacement","50","317747","0.0-31.0","75080970","wem/bandit_party_1","A98E8M4QLI9RS","either","2","5959","","","32","","","","","","","","","","","","","","","","","","","","","","","","","","","","","","","","","","","","",""
"","bandit","51","320350","0.0-32.0-0.0","75080970","wem/bandit_party_1","A98E8M4QLI9RS","either","2","1085","","","","","","","0","1","0","","0.8","0.5","0.5","0.5","0.5","0.8","0.2","0.6","0.2","","","","","","","","","","","","","","72","H","0","img/none_selected.jpg","true","0","full_practice",""
"","bandit","52","322296","0.0-32.0-1.0","75080970","wem/bandit_party_1","A98E8M4QLI9RS","either","2","410","","","","","","","0","0","1","","0.2","0.5","0.5","0.5","0.5","0.8","0.2","0.6","0.2","","","","","","","","","","","","","","74","J","1","","true","0","full_practice",""
"","bandit","53","325181","0.0-32.0-2.0","75080970","wem/bandit_party_1","A98E8M4QLI9RS","either","2","1372","","","","","","","0","1","0","","0.6","0.5","0.5","0.5","0.5","0.8","0.2","0.6","0.2","","","","","","","","","","","","","","75","K","2","","true","0","full_practice",""
"","bandit","54","327197","0.0-32.0-3.0","75080970","wem/bandit_party_1","A98E8M4QLI9RS","either","2","498","","","","","","","0","0","1","0.2","","0.5","0.5","0.5","0.5","","","","","0.8","0.2","0.6","0.2","","","","","","","","","","76","L","3","","true","0","full_practice",""
"","bandit","55","329253","0.0-32.0-4.0","75080970","wem/bandit_party_1","A98E8M4QLI9RS","either","2","537","","","","","","","0","0","1","0.2","","0.5","0.5","0.5","0.5","","","","","0.8","0.2","0.6","0.2","","","","","","","","","","74","J","1","","true","0","full_practice",""
"","bandit","56","331916","0.0-32.0-5.0","75080970","wem/bandit_party_1","A98E8M4QLI9RS","either","2","1147","","","","","","","1","0","0","0.8","","0.5","0.5","0.5","0.5","","","","","0.8","0.2","0.6","0.2","","","","","","","","","","72","H","0","img/none_selected.jpg","true","0","full_practice",""
"","bandit","57","333845","0.0-32.0-6.0","75080970","wem/bandit_party_1","A98E8M4QLI9RS","either","2","409","","","","","","","1","0","0","0.6","","0.5","0.5","0.5","0.5","","","","","0.8","0.2","0.6","0.2","","","","","","","","","","75","K","2","","true","0","full_practice",""
"","bandit","58","336350","0.0-32.0-7.0","75080970","wem/bandit_party_1","A98E8M4QLI9RS","either","2","986","","","","","","","0","0","1","0.2","","0.5","0.5","0.5","0.5","","","","","0.8","0.2","0.6","0.2","","","","","","","","","","76","L","3","","true","0","full_practice",""
"","bandit","59","338318","0.0-32.0-8.0","75080970","wem/bandit_party_1","A98E8M4QLI9RS","either","2","450","","","","","","","0","1","0","","0.8","0.5","0.5","0.5","0.5","0.8","0.2","0.6","0.2","","","","","","","","","","","","","","72","H","0","img/none_selected.jpg","true","0","full_practice",""
"","bandit","60","340276","0.0-32.0-9.0","75080970","wem/bandit_party_1","A98E8M4QLI9RS","either","2","439","","","","","","","0","0","1","","0.6","0.5","0.5","0.5","0.5","0.8","0.2","0.6","0.2","","","","","","","","","","","","","","75","K","2","","true","0","full_practice",""
"","bandit","61","342323","0.0-32.0-10.0","75080970","wem/bandit_party_1","A98E8M4QLI9RS","either","2","529","","","","","","","0","0","1","","0.2","0.5","0.5","0.5","0.5","0.8","0.2","0.6","0.2","","","","","","","","","","","","","","74","J","1","","true","0","full_practice",""
"","bandit","62","344276","0.0-32.0-11.0","75080970","wem/bandit_party_1","A98E8M4QLI9RS","either","2","438","","","","","","","1","0","0","0.8","","0.5","0.5","0.5","0.5","","","","","0.8","0.2","0.6","0.2","","","","","","","","","","72","H","0","img/none_selected.jpg","true","0","full_practice",""
"","bandit","63","346404","0.0-32.0-12.0","75080970","wem/bandit_party_1","A98E8M4QLI9RS","either","2","611","","","","","","","0","0","1","","0.8","0.5","0.5","0.5","0.5","0.8","0.2","0.6","0.2","","","","","","","","","","","","","","72","H","0","img/none_selected.jpg","true","0","full_practice",""
"","bandit","64","348317","0.0-32.0-13.0","75080970","wem/bandit_party_1","A98E8M4QLI9RS","either","2","398","","","","","","","0","1","0","","0.6","0.5","0.5","0.5","0.5","0.8","0.2","0.6","0.2","","","","","","","","","","","","","","75","K","2","","true","0","full_practice",""
"","bandit","65","350597","0.0-32.0-14.0","75080970","wem/bandit_party_1","A98E8M4QLI9RS","either","2","762","","","","","","","0","0","1","","0.2","0.5","0.5","0.5","0.5","0.8","0.2","0.6","0.2","","","","","","","","","","","","","","76","L","3","","true","0","full_practice",""
"","bandit","66","352635","0.0-32.0-15.0","75080970","wem/bandit_party_1","A98E8M4QLI9RS","either","2","521","","","","","","","0","0","1","0.6","","0.5","0.5","0.5","0.5","","","","","0.8","0.2","0.6","0.2","","","","","","","","","","75","K","2","","true","0","full_practice",""
"","bandit","67","354364","0.0-32.0-16.0","75080970","wem/bandit_party_1","A98E8M4QLI9RS","either","2","211","","","","","","","1","0","0","0.8","","0.5","0.5","0.5","0.5","","","","","0.8","0.2","0.6","0.2","","","","","","","","","","72","H","0","img/none_selected.jpg","true","0","full_practice",""
"","bandit","68","356749","0.0-32.0-17.0","75080970","wem/bandit_party_1","A98E8M4QLI9RS","either","2","866","","","","","","","0","1","0","","0.8","0.5","0.5","0.5","0.5","0.8","0.2","0.6","0.2","","","","","","","","","","","","","","72","H","0","img/none_selected.jpg","true","0","full_practice",""
"","bandit","69","358806","0.0-32.0-18.0","75080970","wem/bandit_party_1","A98E8M4QLI9RS","either","2","538","","","","","","","1","0","0","0.8","","0.5","0.5","0.5","0.5","","","","","0.8","0.2","0.6","0.2","","","","","","","","","","72","H","0","img/none_selected.jpg","true","0","full_practice",""
"","bandit","70","360757","0.0-32.0-19.0","75080970","wem/bandit_party_1","A98E8M4QLI9RS","either","2","434","","","","","","","0","1","0","","0.8","0.5","0.5","0.5","0.5","0.8","0.2","0.6","0.2","","","","","","","","","","","","","","72","H","0","img/none_selected.jpg","true","0","full_practice",""
"","text","71","364941","0.0-33.0","75080970","wem/bandit_party_1","A98E8M4QLI9RS","either","2","4161","","","32","","","","","","","","","","","","","","","","","","","","","","","","","","","","","","","","","","","","",""
"","text-replacement","72","384446","0.0-34.0","75080970","wem/bandit_party_1","A98E8M4QLI9RS","either","2","18494","","","32","","","","","","","","","","","","","","","","","","","","","","","","","","","","","","","","","","","","",""
"","text-replacement","73","401695","0.0-35.0","75080970","wem/bandit_party_1","A98E8M4QLI9RS","either","2","17238","","","32","","","","","","","","","","","","","","","","","","","","","","","","","","","","","","","","","","","","",""
"","text-replacement","74","408311","0.0-36.0","75080970","wem/bandit_party_1","A98E8M4QLI9RS","either","2","6606","","","32","","","","","","","","","","","","","","","","","","","","","","","","","","","","","","","","","","","","",""
"","text-replacement","75","417327","0.0-37.0","75080970","wem/bandit_party_1","A98E8M4QLI9RS","either","2","9003","","","32","","","","","","","","","","","","","","","","","","","","","","","","","","","","","","","","","","","","",""
"","text-replacement","76","423063","0.0-38.0","75080970","wem/bandit_party_1","A98E8M4QLI9RS","either","2","5726","","","32","","","","","","","","","","","","","","","","","","","","","","","","","","","","","","","","","","","","",""
"","survey-multi-choice-replacement","77","430187","0.0-39.0-0.0","75080970","wem/bandit_party_1","A98E8M4QLI9RS","either","2","7084","","","","","","","","","","","","","","","","","","","","","","","","Money will be added to the pool for <span style='color:blue;'>DEMOCRATS</span>","","","","","","","attn_check","","","","","","","","","0"
"","survey-multi-choice-replacement","78","447721","0.0-40.0-0.0","75080970","wem/bandit_party_1","A98E8M4QLI9RS","either","2","16488","","","","","","","","","","","","","","","","","","","","","","","","Equal amounts of money will be added to the pool for <span style='color:blue;'>DEMOCRATS</span> and subtracted from the pool for <span style='color:red;'>REPUBLICANS</span>","","","","","","","attn_check","","","","","","","","","2"
"","survey-multi-choice-replacement","79","454075","0.0-41.0-0.0","75080970","wem/bandit_party_1","A98E8M4QLI9RS","either","2","5307","","","","","","","","","","","","","","","","","","","","","","","","No money will be added to either pool","","","","","","","attn_check","","","","","","","","","3"
"","bandit","80","460540","0.0-42.0-0.0","75080970","wem/bandit_party_1","A98E8M4QLI9RS","either","2","3935","","","","","","","0","0","1","0.3653736811","","0.4","0.6","0.2","0.8","","","","","0.326135308","0.3653736811","0.362799796","0.4781977867","","","","","","","","","","74","J","1","","","1","main_expt",""
"","bandit","81","462938","0.0-43.0-0.0","75080970","wem/bandit_party_1","A98E8M4QLI9RS","either","2","878","","","","","","","0","0","1","","0.3891507205","0.4","0.6","0.2","0.8","0.3564958201","0.3999069229","0.3891507205","0.4765481994","","","","","","","","","","","","","","75","K","2","","","2","main_expt",""
"","bandit","82","464714","0.0-44.0-0.0","75080970","wem/bandit_party_1","A98E8M4QLI9RS","either","2","256","","","","","","","1","0","0","0.4722158263","","0.4","0.6","0.2","0.8","","","","","0.3309056029","0.4363582421","0.3151339382","0.4722158263","","","","","","","","","","76","L","3","","","3","main_expt",""
"","bandit","83","466804","0.0-45.0-0.0","75080970","wem/bandit_party_1","A98E8M4QLI9RS","either","2","568","","","","","","","0","0","1","0.308467875","","0.4","0.6","0.2","0.8","","","","","0.308467875","0.4300921111","0.250648122","0.4609570051","","","","","","","","","","72","H","0","img/none_selected.jpg","","4","main_expt",""
"","bandit","84","468802","0.0-46.0-0.0","75080970","wem/bandit_party_1","A98E8M4QLI9RS","either","2","479","","","","","","","0","0","1","0.4707799186","","0.4","0.6","0.2","0.8","","","","","0.3349995635","0.3863220662","0.2382585344","0.4707799186","","","","","","","","","","76","L","3","","","5","main_expt",""
"","bandit","85","470715","0.0-47.0-0.0","75080970","wem/bandit_party_1","A98E8M4QLI9RS","either","2","392","","","","","","","1","0","0","0.3743101545","","0.4","0.6","0.2","0.8","","","","","0.3743101545","0.4192648028","0.2088101903","0.4676743975","","","","","","","","","","72","H","0","img/none_selected.jpg","","6","main_expt",""
"","bandit","86","472802","0.0-48.0-0.0","75080970","wem/bandit_party_1","A98E8M4QLI9RS","either","2","567","","","","","","","0","1","0","","0.377506125","0.4","0.6","0.2","0.8","0.377506125","0.4218548145","0.1884279889","0.4767364015","","","","","","","","","","","","","","72","H","0","img/none_selected.jpg","","7","main_expt",""
"","bandit","87","474899","0.0-49.0-0.0","75080970","wem/bandit_party_1","A98E8M4QLI9RS","either","2","576","","","","","","","0","0","1","","0.3452849142","0.4","0.6","0.2","0.8","0.3452849142","0.4298914749","0.2297930851","0.4837409877","","","","","","","","","","","","","","72","H","0","img/none_selected.jpg","","8","main_expt",""
"","bandit","88","477047","0.0-50.0-0.0","75080970","wem/bandit_party_1","A98E8M4QLI9RS","either","2","550","","","","","","","0","0","1","0.4825212187","","0.4","0.6","0.2","0.8","","","","","0.2713567333","0.4215440671","0.2219539873","0.4825212187","","","","","","","","","","76","L","3","","","9","main_expt",""
"","bandit","89","479435","0.0-51.0-0.0","75080970","wem/bandit_party_1","A98E8M4QLI9RS","either","2","867","","","","","","","0","1","0","","0.2712708503","0.4","0.6","0.2","0.8","0.2712708503","0.3991616263","0.2398128751","0.4791264729","","","","","","","","","","","","","","72","H","0","img/none_selected.jpg","","10","main_expt",""
"","bandit","90","481835","0.0-52.0-0.0","75080970","wem/bandit_party_1","A98E8M4QLI9RS","either","2","878","","","","","","","0","0","1","0.2635531688","","0.4","0.6","0.2","0.8","","","","","0.2635531688","0.4002673883","0.2551733424","0.4762013833","","","","","","","","","","72","H","0","img/none_selected.jpg","","11","main_expt",""
"","bandit","91","484043","0.0-53.0-0.0","75080970","wem/bandit_party_1","A98E8M4QLI9RS","either","2","687","","","","","","","0","0","1","","0.2669056975","0.4","0.6","0.2","0.8","0.2669056975","0.368629831","0.2593424883","0.4729837645","","","","","","","","","","","","","","72","H","0","img/none_selected.jpg","","12","main_expt",""
"","bandit","92","486130","0.0-54.0-0.0","75080970","wem/bandit_party_1","A98E8M4QLI9RS","either","2","567","","","","","","","0","0","1","","0.4189726289","0.4","0.6","0.2","0.8","0.3204456557","0.4189726289","0.2493591627","0.4749786695","","","","","","","","","","","","","","74","J","1","","","13","main_expt",""
"","bandit","93","488051","0.0-55.0-0.0","75080970","wem/bandit_party_1","A98E8M4QLI9RS","either","2","399","","","","","","","1","0","0","0.2686446846","","0.4","0.6","0.2","0.8","","","","","0.3466526728","0.4352425359","0.2686446846","0.4810115094","","","","","","","","","","75","K","2","","","14","main_expt",""
"","bandit","94","490080","0.0-56.0-0.0","75080970","wem/bandit_party_1","A98E8M4QLI9RS","either","2","509","","","","","","","0","0","1","0.2690169042","","0.4","0.6","0.2","0.8","","","","","0.3736671224","0.3819090161","0.2690169042","0.4705329286","","","","","","","","","","75","K","2","","","15","main_expt",""
"","bandit","95","492164","0.0-57.0-0.0","75080970","wem/bandit_party_1","A98E8M4QLI9RS","either","2","564","","","","","","","0","1","0","","0.3778143907","0.4","0.6","0.2","0.8","0.3778143907","0.3737760256","0.2518303543","0.4687419894","","","","","","","","","","","","","","72","H","0","img/none_selected.jpg","","16","main_expt",""
"","bandit","96","494512","0.0-58.0-0.0","75080970","wem/bandit_party_1","A98E8M4QLI9RS","either","2","827","","","","","","","0","1","0","","0.3845750066","0.4","0.6","0.2","0.8","0.3845750066","0.4151791473","0.2406549936","0.4594180265","","","","","","","","","","","","","","72","H","0","img/none_selected.jpg","","17","main_expt",""
"","bandit","97","497708","0.0-59.0-0.0","75080970","wem/bandit_party_1","A98E8M4QLI9RS","either","2","1674","","","","","","","0","0","1","","0.4041286345","0.4","0.6","0.2","0.8","0.4041286345","0.4137363134","0.2670149403","0.425397146","","","","","","","","","","","","","","72","H","0","img/none_selected.jpg","","18","main_expt",""
"","bandit","98","500033","0.0-60.0-0.0","75080970","wem/bandit_party_1","A98E8M4QLI9RS","either","2","806","","","","","","","0","0","1","","0.2658482338","0.4","0.6","0.2","0.8","0.4127350431","0.4084056464","0.2658482338","0.4201246927","","","","","","","","","","","","","","75","K","2","","","19","main_expt",""
"","bandit","99","502250","0.0-61.0-0.0","75080970","wem/bandit_party_1","A98E8M4QLI9RS","either","2","667","","","","","","","0","1","0","","0.4107359536","0.4","0.6","0.2","0.8","0.4107359536","0.4129175496","0.2452433766","0.3954271328","","","","","","","","","","","","","","72","H","0","img/none_selected.jpg","","20","main_expt",""
"","bandit","100","504635","0.0-62.0-0.0","75080970","wem/bandit_party_1","A98E8M4QLI9RS","either","2","867","","","","","","","0","0","1","","0.3954861765","0.4","0.6","0.2","0.8","0.3954861765","0.3888488162","0.2298761452","0.4196431029","","","","","","","","","","","","","","72","H","0","img/none_selected.jpg","","21","main_expt",""
"","bandit","101","506739","0.0-63.0-0.0","75080970","wem/bandit_party_1","A98E8M4QLI9RS","either","2","582","","","","","","","0","0","1","","0.3805979297","0.4","0.6","0.2","0.8","0.3805979297","0.3873149631","0.266827693","0.3843335182","","","","","","","","","","","","","","72","H","0","img/none_selected.jpg","","22","main_expt",""
"","bandit","102","508731","0.0-64.0-0.0","75080970","wem/bandit_party_1","A98E8M4QLI9RS","either","2","470","","","","","","","1","0","0","0.425451992","","0.4","0.6","0.2","0.8","","","","","0.425451992","0.3659772031","0.2519769849","0.3839977458","","","","","","","","","","72","H","0","img/none_selected.jpg","","23","main_expt",""
"","bandit","103","510867","0.0-65.0-0.0","75080970","wem/bandit_party_1","A98E8M4QLI9RS","either","2","615","","","","","","","0","0","1","","0.4699447661","0.4","0.6","0.2","0.8","0.4699447661","0.3594327093","0.2447613107","0.3338939571","","","","","","","","","","","","","","72","H","0","img/none_selected.jpg","","24","main_expt",""
"","bandit","104","512923","0.0-66.0-0.0","75080970","wem/bandit_party_1","A98E8M4QLI9RS","either","2","534","","","","","","","0","0","1","0.324486952","","0.4","0.6","0.2","0.8","","","","","0.4484050393","0.3719143394","0.2350413847","0.324486952","","","","","","","","","","76","L","3","","","25","main_expt",""
"","bandit","105","514829","0.0-67.0-0.0","75080970","wem/bandit_party_1","A98E8M4QLI9RS","either","2","382","","","","","","","0","0","1","","0.3690014044","0.4","0.6","0.2","0.8","0.4190234423","0.3690014044","0.207774486","0.3095710384","","","","","","","","","","","","","","74","J","1","","","26","main_expt",""
"","bandit","106","516891","0.0-68.0-0.0","75080970","wem/bandit_party_1","A98E8M4QLI9RS","either","2","539","","","","","","","1","0","0","0.4251478254","","0.4","0.6","0.2","0.8","","","","","0.4251478254","0.3940030818","0.2164182795","0.3355629191","","","","","","","","","","72","H","0","img/none_selected.jpg","","27","main_expt",""
"","bandit","107","519100","0.0-69.0-0.0","75080970","wem/bandit_party_1","A98E8M4QLI9RS","either","2","685","","","","","","","0","0","1","","0.4287328697","0.4","0.6","0.2","0.8","0.4287328697","0.4111080327","0.2164031865","0.3668681485","","","","","","","","","","","","","","72","H","0","img/none_selected.jpg","","28","main_expt",""
"","bandit","108","522163","0.0-70.0-0.0","75080970","wem/bandit_party_1","A98E8M4QLI9RS","either","2","1540","","","","","","","0","0","1","0.4106025245","","0.4","0.6","0.2","0.8","","","","","0.4106025245","0.41290056","0.2770000278","0.343198694","","","","","","","","","","72","H","0","img/none_selected.jpg","","29","main_expt",""
"","bandit","109","524564","0.0-71.0-0.0","75080970","wem/bandit_party_1","A98E8M4QLI9RS","either","2","878","","","","","","","0","0","1","","0.2354797847","0.4","0.6","0.2","0.8","0.3942494676","0.3937480262","0.2354797847","0.326069126","","","","","","","","","","","","","","75","K","2","","","30","main_expt",""
"","bandit","110","526692","0.0-72.0-0.0","75080970","wem/bandit_party_1","A98E8M4QLI9RS","either","2","605","","","","","","","0","0","1","0.4285056211","","0.4","0.6","0.2","0.8","","","","","0.4285056211","0.3997016236","0.2692030882","0.3390127419","","","","","","","","","","72","H","0","img/none_selected.jpg","","31","main_expt",""
"","bandit","111","528780","0.0-73.0-0.0","75080970","wem/bandit_party_1","A98E8M4QLI9RS","either","2","561","","","","","","","1","0","0","0.3574295763","","0.4","0.6","0.2","0.8","","","","","0.4249454459","0.3574295763","0.2471118655","0.3360649894","","","","","","","","","","74","J","1","","","32","main_expt",""
"","bandit","112","531325","0.0-74.0-0.0","75080970","wem/bandit_party_1","A98E8M4QLI9RS","either","2","1021","","","","","","","0","0","1","0.3877818659","","0.4","0.6","0.2","0.8","","","","","0.416417765","0.3877818659","0.2879199001","0.3052602024","","","","","","","","","","74","J","1","","","33","main_expt",""
"","bandit","113","533556","0.0-75.0-0.0","75080970","wem/bandit_party_1","A98E8M4QLI9RS","either","2","706","","","","","","","0","0","1","","0.3594788954","0.4","0.6","0.2","0.8","0.4623714429","0.3799496232","0.3180115212","0.3594788954","","","","","","","","","","","","","","76","L","3","","","34","main_expt",""
"","bandit","114","535564","0.0-76.0-0.0","75080970","wem/bandit_party_1","A98E8M4QLI9RS","either","2","485","","","","","","","0","0","1","","0.2524306687","0.4","0.6","0.2","0.8","0.4591977302","0.3577573403","0.2524306687","0.380235832","","","","","","","","","","","","","","75","K","2","","","35","main_expt",""
"","bandit","115","537661","0.0-77.0-0.0","75080970","wem/bandit_party_1","A98E8M4QLI9RS","either","2","573","","","","","","","0","0","1","0.3895375856","","0.4","0.6","0.2","0.8","","","","","0.4686235256","0.3895375856","0.2351869563","0.3459989602","","","","","","","","","","74","J","1","","","36","main_expt",""
"","bandit","116","539780","0.0-78.0-0.0","75080970","wem/bandit_party_1","A98E8M4QLI9RS","either","2","597","","","","","","","0","0","1","","0.4571547709","0.4","0.6","0.2","0.8","0.4571547709","0.3783527007","0.2629170466","0.3320905149","","","","","","","","","","","","","","72","H","0","img/none_selected.jpg","","37","main_expt",""
"","bandit","117","541811","0.0-79.0-0.0","75080970","wem/bandit_party_1","A98E8M4QLI9RS","either","2","507","","","","","","","0","0","1","","0.3090194305","0.4","0.6","0.2","0.8","0.4688430709","0.284076782","0.3090194305","0.3471020919","","","","","","","","","","","","","","75","K","2","","","38","main_expt",""
"","bandit","118","543804","0.0-80.0-0.0","75080970","wem/bandit_party_1","A98E8M4QLI9RS","either","2","469","","","","","","","0","0","1","0.4612923778","","0.4","0.6","0.2","0.8","","","","","0.4612923778","0.3388972186","0.2845371228","0.3401763967","","","","","","","","","","72","H","0","img/none_selected.jpg","","39","main_expt",""
"","bandit","119","545780","0.0-81.0-0.0","75080970","wem/bandit_party_1","A98E8M4QLI9RS","either","2","453","","","","","","","0","0","1","","0.3076259244","0.4","0.6","0.2","0.8","0.4576194683","0.2663655232","0.3076259244","0.3260487483","","","","","","","","","","","","","","75","K","2","","","40","main_expt",""
"","bandit","120","547699","0.0-82.0-0.0","75080970","wem/bandit_party_1","A98E8M4QLI9RS","either","2","397","","","","","","","0","0","1","0.3390218734","","0.4","0.6","0.2","0.8","","","","","0.4473921051","0.2608266697","0.2888769276","0.3390218734","","","","","","","","","","76","L","3","","","41","main_expt",""
"","bandit","121","549708","0.0-83.0-0.0","75080970","wem/bandit_party_1","A98E8M4QLI9RS","either","2","486","","","","","","","0","1","0","","0.2287676803","0.4","0.6","0.2","0.8","0.425470286","0.2287676803","0.2639198141","0.2889680017","","","","","","","","","","","","","","74","J","1","","","42","main_expt",""
"","bandit","122","551941","0.0-84.0-0.0","75080970","wem/bandit_party_1","A98E8M4QLI9RS","either","2","708","","","","","","","0","0","1","0.2043112358","","0.4","0.6","0.2","0.8","","","","","0.4030522017","0.2043112358","0.2255441472","0.2784828801","","","","","","","","","","74","J","1","","","43","main_expt",""
"","bandit","123","554100","0.0-85.0-0.0","75080970","wem/bandit_party_1","A98E8M4QLI9RS","either","2","634","","","","","","","0","0","1","0.1957049551","","0.4","0.6","0.2","0.8","","","","","0.4106315797","0.1957049551","0.2050272072","0.2805729819","","","","","","","","","","74","J","1","","","44","main_expt",""
"","bandit","124","556165","0.0-86.0-0.0","75080970","wem/bandit_party_1","A98E8M4QLI9RS","either","2","540","","","","","","","0","0","1","","0.4258527362","0.4","0.6","0.2","0.8","0.4258527362","0.2207366272","0.239455925","0.2195119073","","","","","","","","","","","","","","72","H","0","img/none_selected.jpg","","45","main_expt",""
"","bandit","125","558141","0.0-87.0-0.0","75080970","wem/bandit_party_1","A98E8M4QLI9RS","either","2","451","","","","","","","0","0","1","0.1727988076","","0.4","0.6","0.2","0.8","","","","","0.4425966235","0.1727988076","0.2414778298","0.2657932304","","","","","","","","","","74","J","1","","","46","main_expt",""
"","bandit","126","560101","0.0-88.0-0.0","75080970","wem/bandit_party_1","A98E8M4QLI9RS","either","2","434","","","","","","","0","0","1","","0.1884211613","0.4","0.6","0.2","0.8","0.4428977597","0.1446735631","0.1884211613","0.2678398397","","","","","","","","","","","","","","75","K","2","","","47","main_expt",""
"","bandit","127","562054","0.0-89.0-0.0","75080970","wem/bandit_party_1","A98E8M4QLI9RS","either","2","427","","","","","","","0","0","1","0.2866904938","","0.4","0.6","0.2","0.8","","","","","0.4479964269","0.1681765936","0.1755274282","0.2866904938","","","","","","","","","","76","L","3","","","48","main_expt",""
"","bandit","128","563935","0.0-90.0-0.0","75080970","wem/bandit_party_1","A98E8M4QLI9RS","either","2","355","","","","","","","0","1","0","","0.1473883531","0.4","0.6","0.2","0.8","0.4660387519","0.1473883531","0.1646396384","0.2803848884","","","","","","","","","","","","","","74","J","1","","","49","main_expt",""
"","bandit","129","566116","0.0-91.0-0.0","75080970","wem/bandit_party_1","A98E8M4QLI9RS","either","2","655","","","","","","","0","0","1","","0.1378170987","0.4","0.6","0.2","0.8","0.4345757832","0.1378170987","0.2024226619","0.2587411269","","","","","","","","","","","","","","74","J","1","","","50","main_expt",""
"","bandit","130","568142","0.0-92.0-0.0","75080970","wem/bandit_party_1","A98E8M4QLI9RS","either","2","499","","","","","","","0","0","1","","0.1430360168","0.4","0.6","0.2","0.8","0.4450950844","0.1430360168","0.1976760068","0.2212901065","","","","","","","","","","","","","","74","J","1","","","51","main_expt",""
"","bandit","131","570036","0.0-93.0-0.0","75080970","wem/bandit_party_1","A98E8M4QLI9RS","either","2","368","","","","","","","0","0","1","","0.4475354499","0.4","0.6","0.2","0.8","0.4475354499","0.1731798725","0.1796352224","0.236006857","","","","","","","","","","","","","","72","H","0","img/none_selected.jpg","","52","main_expt",""
"","bandit","132","571949","0.0-94.0-0.0","75080970","wem/bandit_party_1","A98E8M4QLI9RS","either","2","386","","","","","","","0","0","1","0.1312409056","","0.4","0.6","0.2","0.8","","","","","0.4627294295","0.1312409056","0.2451732725","0.2660825342","","","","","","","","","","74","J","1","","","53","main_expt",""
"","bandit","133","573820","0.0-95.0-0.0","75080970","wem/bandit_party_1","A98E8M4QLI9RS","either","2","346","","","","","","","0","0","1","0.1862053218","","0.4","0.6","0.2","0.8","","","","","0.44829207","0.1862053218","0.2621482643","0.2458345041","","","","","","","","","","74","J","1","","","54","main_expt",""
"","bandit","134","575885","0.0-96.0-0.0","75080970","wem/bandit_party_1","A98E8M4QLI9RS","either","2","540","","","","","","","0","0","1","","0.1733563037","0.4","0.6","0.2","0.8","0.4505537928","0.1733563037","0.2441780383","0.2265690781","","","","","","","","","","","","","","74","J","1","","","55","main_expt",""
"","bandit","135","577853","0.0-97.0-0.0","75080970","wem/bandit_party_1","A98E8M4QLI9RS","either","2","443","","","","","","","0","0","1","","0.199729785","0.4","0.6","0.2","0.8","0.4686400132","0.1728369204","0.199729785","0.2741820357","","","","","","","","","","","","","","75","K","2","","","56","main_expt",""
"","bandit","136","579733","0.0-98.0-0.0","75080970","wem/bandit_party_1","A98E8M4QLI9RS","either","2","356","","","","","","","0","0","1","0.2937641054","","0.4","0.6","0.2","0.8","","","","","0.4572679106","0.09176359954","0.1945085845","0.2937641054","","","","","","","","","","76","L","3","","","57","main_expt",""
"","bandit","137","581716","0.0-99.0-0.0","75080970","wem/bandit_party_1","A98E8M4QLI9RS","either","2","459","","","","","","","1","0","0","0.4300169527","","0.4","0.6","0.2","0.8","","","","","0.4300169527","0.04991422033","0.2614759052","0.2949827607","","","","","","","","","","72","H","0","img/none_selected.jpg","","58","main_expt",""
"","bandit","138","583771","0.0-100.0-0.0","75080970","wem/bandit_party_1","A98E8M4QLI9RS","either","2","531","","","","","","","0","0","1","0.4050829606","","0.4","0.6","0.2","0.8","","","","","0.4050829606","0.053239915","0.2426118991","0.2710075273","","","","","","","","","","72","H","0","img/none_selected.jpg","","59","main_expt",""
"","bandit","139","586470","0.0-101.0-0.0","75080970","wem/bandit_party_1","A98E8M4QLI9RS","either","2","1174","","","","","","","0","0","1","0.06994226662","","0.4","0.6","0.2","0.8","","","","","0.4070720156","0.06994226662","0.2623750897","0.2766623035","","","","","","","","","","74","J","1","","","60","main_expt",""
"","bandit","140","588514","0.0-102.0-0.0","75080970","wem/bandit_party_1","A98E8M4QLI9RS","either","2","521","","","","","","","0","0","1","","0.3895400789","0.4","0.6","0.2","0.8","0.3895400789","0.07064832373","0.2139103784","0.2574592035","","","","","","","","","","","","","","72","H","0","img/none_selected.jpg","","61","main_expt",""
"","bandit","141","590661","0.0-103.0-0.0","75080970","wem/bandit_party_1","A98E8M4QLI9RS","either","2","622","","","","","","","0","0","1","","0.4050708951","0.4","0.6","0.2","0.8","0.4050708951","0.08925217872","0.2566580444","0.2425209234","","","","","","","","","","","","","","72","H","0","img/none_selected.jpg","","62","main_expt",""
"","bandit","142","592653","0.0-104.0-0.0","75080970","wem/bandit_party_1","A98E8M4QLI9RS","either","2","468","","","","","","","0","0","1","0.08505035955","","0.4","0.6","0.2","0.8","","","","","0.3765761212","0.08505035955","0.2393402704","0.2294211584","","","","","","","","","","74","J","1","","","63","main_expt",""
"","bandit","143","594589","0.0-105.0-0.0","75080970","wem/bandit_party_1","A98E8M4QLI9RS","either","2","411","","","","","","","0","1","0","","0.300105392","0.4","0.6","0.2","0.8","0.3859881554","0.09892528285","0.300105392","0.2350173232","","","","","","","","","","","","","","75","K","2","","","64","main_expt",""
"","bandit","144","596766","0.0-106.0-0.0","75080970","wem/bandit_party_1","A98E8M4QLI9RS","either","2","651","","","","","","","0","0","1","0.2775473173","","0.4","0.6","0.2","0.8","","","","","0.3817039273","0.1428545766","0.2584268813","0.2775473173","","","","","","","","","","76","L","3","","","65","main_expt",""
"","bandit","145","598678","0.0-107.0-0.0","75080970","wem/bandit_party_1","A98E8M4QLI9RS","either","2","385","","","","","","","0","0","1","0.2536378703","","0.4","0.6","0.2","0.8","","","","","0.3622232449","0.120440259","0.2536378703","0.298861572","","","","","","","","","","75","K","2","","","66","main_expt",""
"","bandit","146","600629","0.0-108.0-0.0","75080970","wem/bandit_party_1","A98E8M4QLI9RS","either","2","427","","","","","","","0","0","1","","0.2548884231","0.4","0.6","0.2","0.8","0.3768721334","0.2019700983","0.2548884231","0.3043747659","","","","","","","","","","","","","","75","K","2","","","67","main_expt",""
"","bandit","147","602556","0.0-109.0-0.0","75080970","wem/bandit_party_1","A98E8M4QLI9RS","either","2","401","","","","","","","0","0","1","0.1467862533","","0.4","0.6","0.2","0.8","","","","","0.3826604183","0.1467862533","0.2105458193","0.2533072519","","","","","","","","","","74","J","1","","","68","main_expt",""
"","bandit","148","604477","0.0-110.0-0.0","75080970","wem/bandit_party_1","A98E8M4QLI9RS","either","2","397","","","","","","","0","0","1","","0.3981811202","0.4","0.6","0.2","0.8","0.3981811202","0.09022805221","0.2901666962","0.2451677402","","","","","","","","","","","","","","72","H","0","img/none_selected.jpg","","69","main_expt",""
"","bandit","149","606333","0.0-111.0-0.0","75080970","wem/bandit_party_1","A98E8M4QLI9RS","either","2","331","","","","","","","0","1","0","","0.2973761433","0.4","0.6","0.2","0.8","0.3936557204","0.1128827508","0.2973761433","0.2403061491","","","","","","","","","","","","","","75","K","2","","","70","main_expt",""
"","bandit","150","608414","0.0-112.0-0.0","75080970","wem/bandit_party_1","A98E8M4QLI9RS","either","2","554","","","","","","","0","1","0","","0.2737706179","0.4","0.6","0.2","0.8","0.3949471057","0.1184182172","0.2737706179","0.1917576795","","","","","","","","","","","","","","75","K","2","","","71","main_expt",""
"","bandit","151","610308","0.0-113.0-0.0","75080970","wem/bandit_party_1","A98E8M4QLI9RS","either","2","367","","","","","","","0","0","1","0.3005227265","","0.4","0.6","0.2","0.8","","","","","0.3888869603","0.1038133506","0.3005227265","0.1894079546","","","","","","","","","","75","K","2","","","72","main_expt",""
"","bandit","152","612188","0.0-114.0-0.0","75080970","wem/bandit_party_1","A98E8M4QLI9RS","either","2","353","","","","","","","0","0","1","","0.3205676235","0.4","0.6","0.2","0.8","0.4015056825","0.07830871569","0.3205676235","0.235909594","","","","","","","","","","","","","","75","K","2","","","73","main_expt",""
"","bandit","153","614029","0.0-115.0-0.0","75080970","wem/bandit_party_1","A98E8M4QLI9RS","either","2","313","","","","","","","0","1","0","","0.3040473008","0.4","0.6","0.2","0.8","0.4200542591","0.09226686474","0.3040473008","0.2772030277","","","","","","","","","","","","","","75","K","2","","","74","main_expt",""
"","bandit","154","616101","0.0-116.0-0.0","75080970","wem/bandit_party_1","A98E8M4QLI9RS","either","2","544","","","","","","","1","0","0","0.2686744794","","0.4","0.6","0.2","0.8","","","","","0.4353174817","0.07948082514","0.2686744794","0.2237268092","","","","","","","","","","75","K","2","","","75","main_expt",""
"","bandit","155","618012","0.0-117.0-0.0","75080970","wem/bandit_party_1","A98E8M4QLI9RS","either","2","387","","","","","","","0","0","1","0.258707356","","0.4","0.6","0.2","0.8","","","","","0.4196821318","0.1279570505","0.258707356","0.1739375455","","","","","","","","","","75","K","2","","","76","main_expt",""
"","bandit","156","619878","0.0-118.0-0.0","75080970","wem/bandit_party_1","A98E8M4QLI9RS","either","2","345","","","","","","","0","1","0","","0.3010070056","0.4","0.6","0.2","0.8","0.3787369199","0.1202820049","0.3010070056","0.1648796623","","","","","","","","","","","","","","75","K","2","","","77","main_expt",""
"","bandit","157","621973","0.0-119.0-0.0","75080970","wem/bandit_party_1","A98E8M4QLI9RS","either","2","568","","","","","","","0","0","1","0.2648586626","","0.4","0.6","0.2","0.8","","","","","0.4314930014","0.1054071572","0.2648586626","0.1637798684","","","","","","","","","","75","K","2","","","78","main_expt",""
"","bandit","158","623844","0.0-120.0-0.0","75080970","wem/bandit_party_1","A98E8M4QLI9RS","either","2","342","","","","","","","0","0","1","","0.1984114041","0.4","0.6","0.2","0.8","0.4155078174","0.1403095361","0.1984114041","0.1490076182","","","","","","","","","","","","","","75","K","2","","","79","main_expt",""
"","bandit","159","625814","0.0-121.0-0.0","75080970","wem/bandit_party_1","A98E8M4QLI9RS","either","2","442","","","","","","","0","0","1","0.1891235553","","0.4","0.6","0.2","0.8","","","","","0.4226243671","0.1891235553","0.180325551","0.1093198388","","","","","","","","","","74","J","1","","","80","main_expt",""
"","bandit","160","627736","0.0-122.0-0.0","75080970","wem/bandit_party_1","A98E8M4QLI9RS","either","2","393","","","","","","","0","0","1","","0.4474166549","0.4","0.6","0.2","0.8","0.4474166549","0.1858030354","0.224531153","0.08868186825","","","","","","","","","","","","","","72","H","0","img/none_selected.jpg","","81","main_expt",""
"","bandit","161","629687","0.0-123.0-0.0","75080970","wem/bandit_party_1","A98E8M4QLI9RS","either","2","422","","","","","","","0","0","1","0.1073880826","","0.4","0.6","0.2","0.8","","","","","0.4636297045","0.2476542501","0.221125015","0.1073880826","","","","","","","","","","76","L","3","","","82","main_expt",""
"","bandit","162","631612","0.0-124.0-0.0","75080970","wem/bandit_party_1","A98E8M4QLI9RS","either","2","399","","","","","","","0","0","1","0.2143237207","","0.4","0.6","0.2","0.8","","","","","0.467509749","0.2188241074","0.2143237207","0.1022587498","","","","","","","","","","75","K","2","","","83","main_expt",""
"","bandit","163","633557","0.0-125.0-0.0","75080970","wem/bandit_party_1","A98E8M4QLI9RS","either","2","419","","","","","","","0","0","1","","0.2097367537","0.4","0.6","0.2","0.8","0.4551111531","0.2754771977","0.2097367537","0.1085807699","","","","","","","","","","","","","","75","K","2","","","84","main_expt",""
"","bandit","164","635627","0.0-126.0-0.0","75080970","wem/bandit_party_1","A98E8M4QLI9RS","either","2","544","","","","","","","0","0","1","0.1263918358","","0.4","0.6","0.2","0.8","","","","","0.4621419017","0.2965575968","0.1661536269","0.1263918358","","","","","","","","","","76","L","3","","","85","main_expt",""
"","bandit","165","637515","0.0-127.0-0.0","75080970","wem/bandit_party_1","A98E8M4QLI9RS","either","2","362","","","","","","","0","0","1","","0.257129161","0.4","0.6","0.2","0.8","0.4612050897","0.257129161","0.1364458955","0.1481941301","","","","","","","","","","","","","","74","J","1","","","86","main_expt",""
"","bandit","166","639669","0.0-128.0-0.0","75080970","wem/bandit_party_1","A98E8M4QLI9RS","either","2","628","","","","","","","1","0","0","0.4334675206","","0.4","0.6","0.2","0.8","","","","","0.4334675206","0.2338967043","0.08235553135","0.1447872846","","","","","","","","","","72","H","0","img/none_selected.jpg","","87","main_expt",""
"","bandit","167","641816","0.0-129.0-0.0","75080970","wem/bandit_party_1","A98E8M4QLI9RS","either","2","617","","","","","","","0","1","0","","0.4397617206","0.4","0.6","0.2","0.8","0.4397617206","0.2161535794","0.0754832669","0.1391637727","","","","","","","","","","","","","","72","H","0","img/none_selected.jpg","","88","main_expt",""
"","bandit","168","645454","0.0-130.0-0.0","75080970","wem/bandit_party_1","A98E8M4QLI9RS","either","2","2111","","","","","","","0","0","1","","0.4635478967","0.4","0.6","0.2","0.8","0.4635478967","0.2043146745","0.109361408","0.1476089376","","","","","","","","","","","","","","72","H","0","img/none_selected.jpg","","89","main_expt",""
"","bandit","169","647662","0.0-131.0-0.0","75080970","wem/bandit_party_1","A98E8M4QLI9RS","either","2","681","","","","","","","0","0","1","0.4234969579","","0.4","0.6","0.2","0.8","","","","","0.4234969579","0.2346009907","0.07391079866","0.2081489191","","","","","","","","","","72","H","0","img/none_selected.jpg","","90","main_expt",""
"","bandit","170","649598","0.0-132.0-0.0","75080970","wem/bandit_party_1","A98E8M4QLI9RS","either","2","409","","","","","","","0","0","1","","0.4267507071","0.4","0.6","0.2","0.8","0.4267507071","0.2333967219","0.1164594673","0.1834039029","","","","","","","","","","","","","","72","H","0","img/none_selected.jpg","","91","main_expt",""
"","bandit","171","651703","0.0-133.0-0.0","75080970","wem/bandit_party_1","A98E8M4QLI9RS","either","2","576","","","","","","","0","0","1","0.2027314649","","0.4","0.6","0.2","0.8","","","","","0.4089505196","0.2150480475","0.113043345","0.2027314649","","","","","","","","","","76","L","3","","","92","main_expt",""
"","bandit","172","654157","0.0-134.0-0.0","75080970","wem/bandit_party_1","A98E8M4QLI9RS","either","2","927","","","","","","","0","1","0","","0.1714352716","0.4","0.6","0.2","0.8","0.4112501448","0.2588080464","0.1714352716","0.1738894496","","","","","","","","","","","","","","75","K","2","","","93","main_expt",""
"","bandit","173","656228","0.0-135.0-0.0","75080970","wem/bandit_party_1","A98E8M4QLI9RS","either","2","545","","","","","","","0","0","1","","0.1253024032","0.4","0.6","0.2","0.8","0.452415855","0.2748849181","0.1253024032","0.2484708832","","","","","","","","","","","","","","75","K","2","","","94","main_expt",""
"","bandit","174","658215","0.0-136.0-0.0","75080970","wem/bandit_party_1","A98E8M4QLI9RS","either","2","457","","","","","","","1","0","0","0.2791739054","","0.4","0.6","0.2","0.8","","","","","0.4589197587","0.2791739054","0.1401284447","0.2914685715","","","","","","","","","","74","J","1","","","95","main_expt",""
"","bandit","175","660254","0.0-137.0-0.0","75080970","wem/bandit_party_1","A98E8M4QLI9RS","either","2","506","","","","","","","0","0","1","","0.3149564315","0.4","0.6","0.2","0.8","0.4481870348","0.3149564315","0.1320491369","0.2417524935","","","","","","","","","","","","","","74","J","1","","","96","main_expt",""
"","bandit","176","662142","0.0-138.0-0.0","75080970","wem/bandit_party_1","A98E8M4QLI9RS","either","2","360","","","","","","","0","0","1","","0.4597072186","0.4","0.6","0.2","0.8","0.4597072186","0.372564007","0.1518453759","0.2492821404","","","","","","","","","","","","","","72","H","0","img/none_selected.jpg","","97","main_expt",""
"","bandit","177","663878","0.0-139.0-0.0","75080970","wem/bandit_party_1","A98E8M4QLI9RS","either","2","207","","","","","","","0","0","1","","0.2173959583","0.4","0.6","0.2","0.8","0.4705619112","0.393328365","0.2173959583","0.3002958449","","","","","","","","","","","","","","75","K","2","","","98","main_expt",""
"","bandit","178","665758","0.0-140.0-0.0","75080970","wem/bandit_party_1","A98E8M4QLI9RS","either","2","350","","","","","","","0","1","0","","0.3544832656","0.4","0.6","0.2","0.8","0.4800968761","0.421239771","0.2618725657","0.3544832656","","","","","","","","","","","","","","76","L","3","","","99","main_expt",""
"","bandit","179","667712","0.0-141.0-0.0","75080970","wem/bandit_party_1","A98E8M4QLI9RS","either","2","424","","","","","","","0","0","1","0.3810954338","","0.4","0.6","0.2","0.8","","","","","0.4780143146","0.4130759476","0.2487788848","0.3810954338","","","","","","","","","","76","L","3","","","100","main_expt",""
"","bandit","180","669558","0.0-142.0-0.0","75080970","wem/bandit_party_1","A98E8M4QLI9RS","either","2","316","","","","","","","1","0","0","0.4042362267","","0.4","0.6","0.2","0.8","","","","","0.4849002763","0.4089462913","0.2890792313","0.4042362267","","","","","","","","","","76","L","3","","","101","main_expt",""
"","bandit","181","671559","0.0-143.0-0.0","75080970","wem/bandit_party_1","A98E8M4QLI9RS","either","2","472","","","","","","","0","0","1","0.4594696392","","0.4","0.6","0.2","0.8","","","","","0.4886078379","0.370330464","0.3136369757","0.4594696392","","","","","","","","","","76","L","3","","","102","main_expt",""
"","bandit","182","673506","0.0-144.0-0.0","75080970","wem/bandit_party_1","A98E8M4QLI9RS","either","2","418","","","","","","","1","0","0","0.4588766667","","0.4","0.6","0.2","0.8","","","","","0.47121906","0.3306315663","0.2364671533","0.4588766667","","","","","","","","","","76","L","3","","","103","main_expt",""
"","bandit","183","675456","0.0-145.0-0.0","75080970","wem/bandit_party_1","A98E8M4QLI9RS","either","2","421","","","","","","","0","0","1","0.4372785745","","0.4","0.6","0.2","0.8","","","","","0.4760763377","0.354634178","0.2202486688","0.4372785745","","","","","","","","","","76","L","3","","","104","main_expt",""
"","bandit","184","677470","0.0-146.0-0.0","75080970","wem/bandit_party_1","A98E8M4QLI9RS","either","2","484","","","","","","","1","0","0","0.4063887309","","0.4","0.6","0.2","0.8","","","","","0.4701389446","0.3896605338","0.1854418088","0.4063887309","","","","","","","","","","76","L","3","","","105","main_expt",""
"","bandit","185","679335","0.0-147.0-0.0","75080970","wem/bandit_party_1","A98E8M4QLI9RS","either","2","339","","","","","","","0","0","1","0.3778019321","","0.4","0.6","0.2","0.8","","","","","0.471324938","0.414339711","0.1596754559","0.3778019321","","","","","","","","","","76","L","3","","","106","main_expt",""
"","bandit","186","681287","0.0-148.0-0.0","75080970","wem/bandit_party_1","A98E8M4QLI9RS","either","2","424","","","","","","","0","0","1","0.3614143111","","0.4","0.6","0.2","0.8","","","","","0.4786694594","0.4164239898","0.137099288","0.3614143111","","","","","","","","","","76","L","3","","","107","main_expt",""
"","bandit","187","683224","0.0-149.0-0.0","75080970","wem/bandit_party_1","A98E8M4QLI9RS","either","2","407","","","","","","","0","0","1","","0.3836571442","0.4","0.6","0.2","0.8","0.4810065258","0.3836571442","0.1443984823","0.3681250399","","","","","","","","","","","","","","74","J","1","","","108","main_expt",""
"","bandit","188","685054","0.0-150.0-0.0","75080970","wem/bandit_party_1","A98E8M4QLI9RS","either","2","303","","","","","","","0","0","1","","0.1409511773","0.4","0.6","0.2","0.8","0.4816764674","0.3881214568","0.1409511773","0.3446081275","","","","","","","","","","","","","","75","K","2","","","109","main_expt",""
"","bandit","189","687735","0.0-151.0-0.0","75080970","wem/bandit_party_1","A98E8M4QLI9RS","either","2","1151","","","","","","","0","0","1","0.1787750665","","0.4","0.6","0.2","0.8","","","","","0.4882082215","0.4266873791","0.1787750665","0.3681270965","","","","","","","","","","75","K","2","","","110","main_expt",""
"","bandit","190","689706","0.0-152.0-0.0","75080970","wem/bandit_party_1","A98E8M4QLI9RS","either","2","431","","","","","","","0","0","1","0.391379093","","0.4","0.6","0.2","0.8","","","","","0.478642168","0.4475699482","0.1862786225","0.391379093","","","","","","","","","","76","L","3","","","111","main_expt",""
"","bandit","191","691543","0.0-153.0-0.0","75080970","wem/bandit_party_1","A98E8M4QLI9RS","either","2","275","","","","","","","0","0","1","0.4131544452","","0.4","0.6","0.2","0.8","","","","","0.4841415165","0.4190314983","0.1654620982","0.4131544452","","","","","","","","","","76","L","3","","","112","main_expt",""
"","bandit","192","693662","0.0-154.0-0.0","75080970","wem/bandit_party_1","A98E8M4QLI9RS","either","2","590","","","","","","","0","0","1","0.3963985948","","0.4","0.6","0.2","0.8","","","","","0.4883212127","0.3666128881","0.1582981878","0.3963985948","","","","","","","","","","76","L","3","","","113","main_expt",""
"","bandit","193","695680","0.0-155.0-0.0","75080970","wem/bandit_party_1","A98E8M4QLI9RS","either","2","488","","","","","","","0","0","1","0.3866259854","","0.4","0.6","0.2","0.8","","","","","0.4883790739","0.3866259854","0.1922757069","0.4117985871","","","","","","","","","","74","J","1","","","114","main_expt",""
"","bandit","194","697815","0.0-156.0-0.0","75080970","wem/bandit_party_1","A98E8M4QLI9RS","either","2","604","","","","","","","0","1","0","","0.185618385","0.4","0.6","0.2","0.8","0.4902011966","0.354161152","0.185618385","0.394381103","","","","","","","","","","","","","","75","K","2","","","115","main_expt",""
"","bandit","195","699853","0.0-157.0-0.0","75080970","wem/bandit_party_1","A98E8M4QLI9RS","either","2","510","","","","","","","0","0","1","","0.2057277395","0.4","0.6","0.2","0.8","0.4844723045","0.3170745426","0.2057277395","0.3762408663","","","","","","","","","","","","","","75","K","2","","","116","main_expt",""
"","bandit","196","701894","0.0-158.0-0.0","75080970","wem/bandit_party_1","A98E8M4QLI9RS","either","2","512","","","","","","","0","0","1","","0.2288411079","0.4","0.6","0.2","0.8","0.4895589844","0.304536318","0.2288411079","0.3823674378","","","","","","","","","","","","","","75","K","2","","","117","main_expt",""
"","bandit","197","703790","0.0-159.0-0.0","75080970","wem/bandit_party_1","A98E8M4QLI9RS","either","2","367","","","","","","","1","0","0","0.2207517482","","0.4","0.6","0.2","0.8","","","","","0.4899729034","0.3411026949","0.2207517482","0.4050195855","","","","","","","","","","75","K","2","","","118","main_expt",""
"","bandit","198","705968","0.0-160.0-0.0","75080970","wem/bandit_party_1","A98E8M4QLI9RS","either","2","647","","","","","","","0","0","1","0.1955286499","","0.4","0.6","0.2","0.8","","","","","0.4947041593","0.3447942488","0.1955286499","0.4227562767","","","","","","","","","","75","K","2","","","119","main_expt",""
"","bandit","199","707983","0.0-161.0-0.0","75080970","wem/bandit_party_1","A98E8M4QLI9RS","either","2","482","","","","","","","0","0","1","","0.2427950695","0.4","0.6","0.2","0.8","0.4916865355","0.3686185352","0.2427950695","0.4163810796","","","","","","","","","","","","","","75","K","2","","","120","main_expt",""
"","bandit","200","710000","0.0-162.0-0.0","75080970","wem/bandit_party_1","A98E8M4QLI9RS","either","2","483","","","","","","","0","1","0","","0.2479682904","0.4","0.6","0.2","0.8","0.4860386064","0.3547669752","0.2479682904","0.406821829","","","","","","","","","","","","","","75","K","2","","","121","main_expt",""
"","bandit","201","712005","0.0-163.0-0.0","75080970","wem/bandit_party_1","A98E8M4QLI9RS","either","2","482","","","","","","","0","1","0","","0.3081985406","0.4","0.6","0.2","0.8","0.483083859","0.365994073","0.3081985406","0.3999449125","","","","","","","","","","","","","","75","K","2","","","122","main_expt",""
"","bandit","202","714048","0.0-164.0-0.0","75080970","wem/bandit_party_1","A98E8M4QLI9RS","either","2","517","","","","","","","1","0","0","0.3089359708","","0.4","0.6","0.2","0.8","","","","","0.4791491275","0.3120596142","0.3089359708","0.366626489","","","","","","","","","","75","K","2","","","123","main_expt",""
"","bandit","203","716040","0.0-165.0-0.0","75080970","wem/bandit_party_1","A98E8M4QLI9RS","either","2","461","","","","","","","0","1","0","","0.3298338218","0.4","0.6","0.2","0.8","0.4776777384","0.302161917","0.3298338218","0.3706278578","","","","","","","","","","","","","","75","K","2","","","124","main_expt",""
"","bandit","204","717967","0.0-166.0-0.0","75080970","wem/bandit_party_1","A98E8M4QLI9RS","either","2","397","","","","","","","0","0","1","","0.2795250441","0.4","0.6","0.2","0.8","0.478983255","0.2794370347","0.2795250441","0.3545504723","","","","","","","","","","","","","","75","K","2","","","125","main_expt",""
"","bandit","205","719879","0.0-167.0-0.0","75080970","wem/bandit_party_1","A98E8M4QLI9RS","either","2","379","","","","","","","0","0","1","","0.2184127205","0.4","0.6","0.2","0.8","0.4724726719","0.2466154908","0.2184127205","0.3106298006","","","","","","","","","","","","","","75","K","2","","","126","main_expt",""
"","bandit","206","721828","0.0-168.0-0.0","75080970","wem/bandit_party_1","A98E8M4QLI9RS","either","2","419","","","","","","","0","1","0","","0.2488858907","0.4","0.6","0.2","0.8","0.4796244369","0.2712823261","0.2488858907","0.3351405197","","","","","","","","","","","","","","75","K","2","","","127","main_expt",""
"","bandit","207","723919","0.0-169.0-0.0","75080970","wem/bandit_party_1","A98E8M4QLI9RS","either","2","560","","","","","","","0","1","0","","0.2850827173","0.4","0.6","0.2","0.8","0.4825212971","0.2095517986","0.2850827173","0.2984422464","","","","","","","","","","","","","","75","K","2","","","128","main_expt",""
"","bandit","208","725983","0.0-170.0-0.0","75080970","wem/bandit_party_1","A98E8M4QLI9RS","either","2","533","","","","","","","0","0","1","","0.2867242009","0.4","0.6","0.2","0.8","0.4877535013","0.1986866195","0.2867242009","0.2027892291","","","","","","","","","","","","","","75","K","2","","","129","main_expt",""
"","bandit","209","727935","0.0-171.0-0.0","75080970","wem/bandit_party_1","A98E8M4QLI9RS","either","2","418","","","","","","","0","1","0","","0.2509552002","0.4","0.6","0.2","0.8","0.4833646461","0.172959111","0.2509552002","0.13768179","","","","","","","","","","","","","","75","K","2","","","130","main_expt",""
"","bandit","210","729898","0.0-172.0-0.0","75080970","wem/bandit_party_1","A98E8M4QLI9RS","either","2","430","","","","","","","0","0","1","","0.2172434631","0.4","0.6","0.2","0.8","0.4790990265","0.163172462","0.2172434631","0.1352832961","","","","","","","","","","","","","","75","K","2","","","131","main_expt",""
"","bandit","211","731913","0.0-173.0-0.0","75080970","wem/bandit_party_1","A98E8M4QLI9RS","either","2","482","","","","","","","0","0","1","","0.158295755","0.4","0.6","0.2","0.8","0.4882311922","0.161148659","0.158295755","0.08660982753","","","","","","","","","","","","","","75","K","2","","","132","main_expt",""
"","bandit","212","733815","0.0-174.0-0.0","75080970","wem/bandit_party_1","A98E8M4QLI9RS","either","2","371","","","","","","","0","1","0","","0.185310911","0.4","0.6","0.2","0.8","0.4889625365","0.1735641072","0.185310911","0.1020907376","","","","","","","","","","","","","","75","K","2","","","133","main_expt",""
"","bandit","213","735999","0.0-175.0-0.0","75080970","wem/bandit_party_1","A98E8M4QLI9RS","either","2","653","","","","","","","0","0","1","0.1966535246","","0.4","0.6","0.2","0.8","","","","","0.4916783795","0.1597390633","0.1966535246","0.1231499397","","","","","","","","","","75","K","2","","","134","main_expt",""
"","bandit","214","737975","0.0-176.0-0.0","75080970","wem/bandit_party_1","A98E8M4QLI9RS","either","2","450","","","","","","","0","0","1","","0.2290191974","0.4","0.6","0.2","0.8","0.4904315354","0.1460070414","0.2290191974","0.1524236556","","","","","","","","","","","","","","75","K","2","","","135","main_expt",""
"","bandit","215","739981","0.0-177.0-0.0","75080970","wem/bandit_party_1","A98E8M4QLI9RS","either","2","465","","","","","","","0","0","1","","0.105474526","0.4","0.6","0.2","0.8","0.491666595","0.105474526","0.2929229053","0.1954247664","","","","","","","","","","","","","","74","J","1","","","136","main_expt",""
"","bandit","216","742103","0.0-178.0-0.0","75080970","wem/bandit_party_1","A98E8M4QLI9RS","either","2","585","","","","","","","0","1","0","","0.4917142499","0.4","0.6","0.2","0.8","0.4917142499","0.08835118593","0.2780805385","0.1833989084","","","","","","","","","","","","","","72","H","0","img/none_selected.jpg","","137","main_expt",""
"","bandit","217","744178","0.0-179.0-0.0","75080970","wem/bandit_party_1","A98E8M4QLI9RS","either","2","540","","","","","","","0","0","1","","0.4870170403","0.4","0.6","0.2","0.8","0.4870170403","0.06418360449","0.217224157","0.1490533902","","","","","","","","","","","","","","72","H","0","img/none_selected.jpg","","138","main_expt",""
"","bandit","218","746192","0.0-180.0-0.0","75080970","wem/bandit_party_1","A98E8M4QLI9RS","either","2","482","","","","","","","0","1","0","","0.4834992155","0.4","0.6","0.2","0.8","0.4834992155","0.03554325754","0.2323391466","0.1318817547","","","","","","","","","","","","","","72","H","0","img/none_selected.jpg","","139","main_expt",""
"","bandit","219","748184","0.0-181.0-0.0","75080970","wem/bandit_party_1","A98E8M4QLI9RS","either","2","457","","","","","","","1","0","0","0.4927392517","","0.4","0.6","0.2","0.8","","","","","0.4927392517","0.04477370895","0.244475209","0.1877412345","","","","","","","","","","72","H","0","img/none_selected.jpg","","140","main_expt",""
"","bandit","220","750178","0.0-182.0-0.0","75080970","wem/bandit_party_1","A98E8M4QLI9RS","either","2","460","","","","","","","0","1","0","","0.4872377518","0.4","0.6","0.2","0.8","0.4872377518","0.03780119019","0.232604034","0.2363671377","","","","","","","","","","","","","","72","H","0","img/none_selected.jpg","","141","main_expt",""
"","bandit","221","752680","0.0-183.0-0.0","75080970","wem/bandit_party_1","A98E8M4QLI9RS","either","2","969","","","","","","","0","0","1","","0.4846254936","0.4","0.6","0.2","0.8","0.4846254936","0.03149913875","0.2447345556","0.2546402356","","","","","","","","","","","","","","72","H","0","img/none_selected.jpg","","142","main_expt",""
"","bandit","222","755433","0.0-184.0-0.0","75080970","wem/bandit_party_1","A98E8M4QLI9RS","either","2","1220","","","","","","","0","0","1","","0.4815328815","0.4","0.6","0.2","0.8","0.4815328815","0.04191513266","0.26413271","0.2825544685","","","","","","","","","","","","","","72","H","0","img/none_selected.jpg","","143","main_expt",""
"","bandit","223","758095","0.0-185.0-0.0","75080970","wem/bandit_party_1","A98E8M4QLI9RS","either","2","1130","","","","","","","0","0","1","0.4854048375","","0.4","0.6","0.2","0.8","","","","","0.4854048375","0.05613120157","0.1988203511","0.2731230023","","","","","","","","","","72","H","0","img/none_selected.jpg","","144","main_expt",""
"","bandit","224","761880","0.0-186.0-0.0","75080970","wem/bandit_party_1","A98E8M4QLI9RS","either","2","2252","","","","","","","0","0","1","","0.4813029389","0.4","0.6","0.2","0.8","0.4813029389","0.03827589539","0.217822638","0.2943814715","","","","","","","","","","","","","","72","H","0","img/none_selected.jpg","","145","main_expt",""
"","bandit","225","764568","0.0-187.0-0.0","75080970","wem/bandit_party_1","A98E8M4QLI9RS","either","2","1155","","","","","","","0","0","1","0.02861175853","","0.4","0.6","0.2","0.8","","","","","0.4884824202","0.02861175853","0.2009042904","0.328634005","","","","","","","","","","74","J","1","","","146","main_expt",""
"","bandit","226","772832","0.0-188.0-0.0","75080970","wem/bandit_party_1","A98E8M4QLI9RS","either","2","6732","","","","","","","0","0","1","0.02140640811","","0.4","0.6","0.2","0.8","","","","","0.4835291327","0.02140640811","0.2080446297","0.3511209141","","","","","","","","","","74","J","1","","","147","main_expt",""
"","bandit","227","778481","0.0-189.0-0.0","75080970","wem/bandit_party_1","A98E8M4QLI9RS","either","2","4115","","","","","","","0","1","0","","0.1536700415","0.4","0.6","0.2","0.8","0.4716003481","0.0202041473","0.1536700415","0.3874996206","","","","","","","","","","","","","","75","K","2","","","148","main_expt",""
"","bandit","228","780969","0.0-190.0-0.0","75080970","wem/bandit_party_1","A98E8M4QLI9RS","either","2","956","","","","","","","0","0","1","","0.1593661633","0.4","0.6","0.2","0.8","0.4341886607","0.01154190459","0.1593661633","0.3476646045","","","","","","","","","","","","","","75","K","2","","","149","main_expt",""
"","bandit","229","783402","0.0-191.0-0.0","75080970","wem/bandit_party_1","A98E8M4QLI9RS","either","2","896","","","","","","","0","0","1","","0.144955896","0.4","0.6","0.2","0.8","0.4014438172","0.01291237021","0.144955896","0.3323010919","","","","","","","","","","","","","","75","K","2","","","150","main_expt",""
"","bandit","230","786930","0.0-192.0-0.0","75080970","wem/bandit_party_1","A98E8M4QLI9RS","either","2","1994","","","","","","","0","0","1","","0.2123564028","0.4","0.6","0.2","0.8","0.3980713407","0.0137789916","0.2123564028","0.3954477196","","","","","","","","","","","","","","75","K","2","","","151","main_expt",""
"","bandit","231","789553","0.0-193.0-0.0","75080970","wem/bandit_party_1","A98E8M4QLI9RS","either","2","1091","","","","","","","0","0","1","","0.2301890466","0.4","0.6","0.2","0.8","0.4002357887","0.01985271471","0.2301890466","0.4186327087","","","","","","","","","","","","","","75","K","2","","","152","main_expt",""
"","bandit","232","791217","0.0-194.0-0.0","75080970","wem/bandit_party_1","A98E8M4QLI9RS","either","2","133","","","","","","","0","0","1","0.4029566754","","0.4","0.6","0.2","0.8","","","","","0.388677987","0.02951100453","0.2295153641","0.4029566754","","","","","","","","","","76","L","3","","","153","main_expt",""
"","bandit","233","793609","0.0-195.0-0.0","75080970","wem/bandit_party_1","A98E8M4QLI9RS","either","2","859","","","","","","","0","0","1","","0.02325572033","0.4","0.6","0.2","0.8","0.3817747688","0.02325572033","0.2163321136","0.4037751878","","","","","","","","","","","","","","74","J","1","","","154","main_expt",""
"","bandit","234","795553","0.0-196.0-0.0","75080970","wem/bandit_party_1","A98E8M4QLI9RS","either","2","411","","","","","","","0","1","0","","0.327727533","0.4","0.6","0.2","0.8","0.327727533","0.03925092562","0.2257858177","0.4078727314","","","","","","","","","","","","","","72","H","0","img/none_selected.jpg","","155","main_expt",""
"","bandit","235","797801","0.0-197.0-0.0","75080970","wem/bandit_party_1","A98E8M4QLI9RS","either","2","715","","","","","","","0","0","1","","0.2821504166","0.4","0.6","0.2","0.8","0.2821504166","0.05532081832","0.2077891775","0.3941681487","","","","","","","","","","","","","","72","H","0","img/none_selected.jpg","","156","main_expt",""
"","bandit","236","800024","0.0-198.0-0.0","75080970","wem/bandit_party_1","A98E8M4QLI9RS","either","2","689","","","","","","","0","1","0","","0.2784527126","0.4","0.6","0.2","0.8","0.2784527126","0.05983660039","0.1742908387","0.3417147062","","","","","","","","","","","","","","72","H","0","img/none_selected.jpg","","157","main_expt",""
"","bandit","237","802163","0.0-199.0-0.0","75080970","wem/bandit_party_1","A98E8M4QLI9RS","either","2","605","","","","","","","0","0","1","","0.2857058734","0.4","0.6","0.2","0.8","0.2857058734","0.09347744845","0.162057643","0.2963220618","","","","","","","","","","","","","","72","H","0","img/none_selected.jpg","","158","main_expt",""
"","bandit","238","804265","0.0-200.0-0.0","75080970","wem/bandit_party_1","A98E8M4QLI9RS","either","2","569","","","","","","","0","0","1","","0.2349295223","0.4","0.6","0.2","0.8","0.2349295223","0.09649648717","0.1805514511","0.2961528309","","","","","","","","","","","","","","72","H","0","img/none_selected.jpg","","159","main_expt",""
"","bandit","239","806458","0.0-201.0-0.0","75080970","wem/bandit_party_1","A98E8M4QLI9RS","either","2","660","","","","","","","0","1","0","","0.1724629995","0.4","0.6","0.2","0.8","0.2275717407","0.08382429791","0.1724629995","0.2842772575","","","","","","","","","","","","","","75","K","2","","","160","main_expt",""
"","bandit","240","808690","0.0-202.0-0.0","75080970","wem/bandit_party_1","A98E8M4QLI9RS","either","2","698","","","","","","","0","0","1","","0.1660992999","0.4","0.6","0.2","0.8","0.2559884592","0.1466352983","0.1660992999","0.2747674873","","","","","","","","","","","","","","75","K","2","","","161","main_expt",""
"","bandit","241","810803","0.0-203.0-0.0","75080970","wem/bandit_party_1","A98E8M4QLI9RS","either","2","579","","","","","","","0","0","1","0.1569467617","","0.4","0.6","0.2","0.8","","","","","0.2670526618","0.1569467617","0.2281832109","0.2993190406","","","","","","","","","","74","J","1","","","162","main_expt",""
"","bandit","242","812794","0.0-204.0-0.0","75080970","wem/bandit_party_1","A98E8M4QLI9RS","either","2","458","","","","","","","0","0","1","","0.2618894379","0.4","0.6","0.2","0.8","0.2618894379","0.1437935099","0.2144285545","0.3102408377","","","","","","","","","","","","","","72","H","0","img/none_selected.jpg","","163","main_expt",""
"","bandit","243","814611","0.0-205.0-0.0","75080970","wem/bandit_party_1","A98E8M4QLI9RS","either","2","282","","","","","","","0","0","1","","0.2131293933","0.4","0.6","0.2","0.8","0.2977476978","0.1503677763","0.2131293933","0.2607878409","","","","","","","","","","","","","","75","K","2","","","164","main_expt",""
"","bandit","244","816504","0.0-206.0-0.0","75080970","wem/bandit_party_1","A98E8M4QLI9RS","either","2","361","","","","","","","0","1","0","","0.2470054868","0.4","0.6","0.2","0.8","0.3138636066","0.1574825995","0.251698227","0.2470054868","","","","","","","","","","","","","","76","L","3","","","165","main_expt",""
"","bandit","245","818490","0.0-207.0-0.0","75080970","wem/bandit_party_1","A98E8M4QLI9RS","either","2","452","","","","","","","0","0","1","","0.2629624785","0.4","0.6","0.2","0.8","0.3204338644","0.1500633275","0.2831539445","0.2629624785","","","","","","","","","","","","","","76","L","3","","","166","main_expt",""
"","bandit","246","820344","0.0-208.0-0.0","75080970","wem/bandit_party_1","A98E8M4QLI9RS","either","2","321","","","","","","","0","0","1","0.2745713682","","0.4","0.6","0.2","0.8","","","","","0.3600517585","0.1137242654","0.2496169508","0.2745713682","","","","","","","","","","76","L","3","","","167","main_expt",""
"","bandit","247","822251","0.0-209.0-0.0","75080970","wem/bandit_party_1","A98E8M4QLI9RS","either","2","370","","","","","","","1","0","0","0.2557249153","","0.4","0.6","0.2","0.8","","","","","0.3678373827","0.145192941","0.2315540067","0.2557249153","","","","","","","","","","76","L","3","","","168","main_expt",""
"","bandit","248","824131","0.0-210.0-0.0","75080970","wem/bandit_party_1","A98E8M4QLI9RS","either","2","346","","","","","","","0","0","1","0.2016321063","","0.4","0.6","0.2","0.8","","","","","0.3421512568","0.1863479632","0.1825517174","0.2016321063","","","","","","","","","","76","L","3","","","169","main_expt",""
"","bandit","249","825746","0.0-211.0-0.0","75080970","wem/bandit_party_1","A98E8M4QLI9RS","either","2","80","","","","","","","0","0","1","0.2210696627","","0.4","0.6","0.2","0.8","","","","","0.3917895485","0.142304713","0.2535959064","0.2210696627","","","","","","","","","","76","L","3","","","170","main_expt",""
"","bandit","250","827698","0.0-212.0-0.0","75080970","wem/bandit_party_1","A98E8M4QLI9RS","either","2","418","","","","","","","0","0","1","0.1627904758","","0.4","0.6","0.2","0.8","","","","","0.3206692194","0.1739768979","0.3004284576","0.1627904758","","","","","","","","","","76","L","3","","","171","main_expt",""
"","bandit","251","829521","0.0-213.0-0.0","75080970","wem/bandit_party_1","A98E8M4QLI9RS","either","2","288","","","","","","","0","0","1","0.1421076649","","0.4","0.6","0.2","0.8","","","","","0.3198600846","0.2172659048","0.2716191145","0.1421076649","","","","","","","","","","76","L","3","","","172","main_expt",""
"","bandit","252","831194","0.0-214.0-0.0","75080970","wem/bandit_party_1","A98E8M4QLI9RS","either","2","139","","","","","","","0","0","1","","0.165050165","0.4","0.6","0.2","0.8","0.2641483633","0.2419731025","0.3253138029","0.165050165","","","","","","","","","","","","","","76","L","3","","","173","main_expt",""
"","bandit","253","832769","0.0-215.0-0.0","75080970","wem/bandit_party_1","A98E8M4QLI9RS","either","2","40","","","","","","","1","0","0","0.3419591401","","0.4","0.6","0.2","0.8","","","","","0.2248062597","0.2239571331","0.3419591401","0.1406738207","","","","","","","","","","75","K","2","","","174","main_expt",""
"","bandit","254","834658","0.0-216.0-0.0","75080970","wem/bandit_party_1","A98E8M4QLI9RS","either","2","355","","","","","","","0","0","1","","0.3442692367","0.4","0.6","0.2","0.8","0.2370379408","0.2311410243","0.3442692367","0.138310495","","","","","","","","","","","","","","75","K","2","","","175","main_expt",""
"","bandit","255","836626","0.0-217.0-0.0","75080970","wem/bandit_party_1","A98E8M4QLI9RS","either","2","433","","","","","","","1","0","0","0.3397266539","","0.4","0.6","0.2","0.8","","","","","0.2157433706","0.2610077479","0.3397266539","0.1675243642","","","","","","","","","","75","K","2","","","176","main_expt",""
"","bandit","256","838906","0.0-218.0-0.0","75080970","wem/bandit_party_1","A98E8M4QLI9RS","either","2","742","","","","","","","0","0","1","","0.2997078274","0.4","0.6","0.2","0.8","0.2014791824","0.2780938204","0.2997078274","0.1919885971","","","","","","","","","","","","","","75","K","2","","","177","main_expt",""
"","bandit","257","841032","0.0-219.0-0.0","75080970","wem/bandit_party_1","A98E8M4QLI9RS","either","2","593","","","","","","","0","1","0","","0.3064007527","0.4","0.6","0.2","0.8","0.1913564418","0.3151752793","0.3064007527","0.2365392944","","","","","","","","","","","","","","75","K","2","","","178","main_expt",""
"","bandit","258","843096","0.0-220.0-0.0","75080970","wem/bandit_party_1","A98E8M4QLI9RS","either","2","534","","","","","","","0","0","1","","0.3533432679","0.4","0.6","0.2","0.8","0.1980728016","0.2799621139","0.3533432679","0.2509455726","","","","","","","","","","","","","","75","K","2","","","179","main_expt",""
"","bandit","259","845076","0.0-221.0-0.0","75080970","wem/bandit_party_1","A98E8M4QLI9RS","either","2","442","","","","","","","0","0","1","0.3652522579","","0.4","0.6","0.2","0.8","","","","","0.1833491223","0.3170936092","0.3652522579","0.2767223981","","","","","","","","","","75","K","2","","","180","main_expt",""
"","bandit","260","847008","0.0-222.0-0.0","75080970","wem/bandit_party_1","A98E8M4QLI9RS","either","2","400","","","","","","","0","0","1","","0.3383156657","0.4","0.6","0.2","0.8","0.1342686697","0.28101752","0.3383156657","0.314600373","","","","","","","","","","","","","","75","K","2","","","181","main_expt",""
"","bandit","261","848851","0.0-223.0-0.0","75080970","wem/bandit_party_1","A98E8M4QLI9RS","either","2","314","","","","","","","0","0","1","","0.3043342224","0.4","0.6","0.2","0.8","0.1636660304","0.3043342224","0.2902116232","0.3943610609","","","","","","","","","","","","","","74","J","1","","","182","main_expt",""
"","bandit","262","850770","0.0-224.0-0.0","75080970","wem/bandit_party_1","A98E8M4QLI9RS","either","2","385","","","","","","","0","0","1","0.136761637","","0.4","0.6","0.2","0.8","","","","","0.136761637","0.3192524042","0.3026157476","0.3586422101","","","","","","","","","","72","H","0","img/none_selected.jpg","","183","main_expt",""
"","bandit","263","853203","0.0-225.0-0.0","75080970","wem/bandit_party_1","A98E8M4QLI9RS","either","2","898","","","","","","","0","0","1","0.3332516821","","0.4","0.6","0.2","0.8","","","","","0.1685989701","0.3332516821","0.3360229169","0.3879999062","","","","","","","","","","74","J","1","","","184","main_expt",""
"","bandit","264","855154","0.0-226.0-0.0","75080970","wem/bandit_party_1","A98E8M4QLI9RS","either","2","412","","","","","","","0","0","1","0.3831340227","","0.4","0.6","0.2","0.8","","","","","0.1663529744","0.3228184693","0.3336456265","0.3831340227","","","","","","","","","","76","L","3","","","185","main_expt",""
"","bandit","265","857018","0.0-227.0-0.0","75080970","wem/bandit_party_1","A98E8M4QLI9RS","either","2","326","","","","","","","0","0","1","0.3308881938","","0.4","0.6","0.2","0.8","","","","","0.1916836285","0.3111703144","0.3308881938","0.3999004662","","","","","","","","","","75","K","2","","","186","main_expt",""
"","bandit","266","859004","0.0-228.0-0.0","75080970","wem/bandit_party_1","A98E8M4QLI9RS","either","2","450","","","","","","","0","1","0","","0.3353611299","0.4","0.6","0.2","0.8","0.1686829448","0.3353611299","0.325530054","0.3875363153","","","","","","","","","","","","","","74","J","1","","","187","main_expt",""
"","bandit","267","861131","0.0-229.0-0.0","75080970","wem/bandit_party_1","A98E8M4QLI9RS","either","2","594","","","","","","","0","0","1","","0.3646937268","0.4","0.6","0.2","0.8","0.1461675531","0.3646937268","0.3055482451","0.3875691392","","","","","","","","","","","","","","74","J","1","","","188","main_expt",""
"","bandit","268","863147","0.0-230.0-0.0","75080970","wem/bandit_party_1","A98E8M4QLI9RS","either","2","480","","","","","","","0","0","1","","0.3891323825","0.4","0.6","0.2","0.8","0.1382971047","0.3891323825","0.3002345065","0.4166866882","","","","","","","","","","","","","","74","J","1","","","189","main_expt",""
"","bandit","269","865187","0.0-231.0-0.0","75080970","wem/bandit_party_1","A98E8M4QLI9RS","either","2","506","","","","","","","0","0","1","0.3860741766","","0.4","0.6","0.2","0.8","","","","","0.1898135375","0.3860741766","0.2693931213","0.4124474499","","","","","","","","","","74","J","1","","","190","main_expt",""
"","bandit","270","867139","0.0-232.0-0.0","75080970","wem/bandit_party_1","A98E8M4QLI9RS","either","2","416","","","","","","","0","0","1","0.1264917812","","0.4","0.6","0.2","0.8","","","","","0.1264917812","0.3864243721","0.3009284261","0.3638199534","","","","","","","","","","72","H","0","img/none_selected.jpg","","191","main_expt",""
"","bandit","271","869003","0.0-233.0-0.0","75080970","wem/bandit_party_1","A98E8M4QLI9RS","either","2","329","","","","","","","0","0","1","","0.1185409567","0.4","0.6","0.2","0.8","0.1185409567","0.400448014","0.3157917784","0.3711146034","","","","","","","","","","","","","","72","H","0","img/none_selected.jpg","","192","main_expt",""
"","bandit","272","870907","0.0-234.0-0.0","75080970","wem/bandit_party_1","A98E8M4QLI9RS","either","2","373","","","","","","","0","0","1","","0.2999212614","0.4","0.6","0.2","0.8","0.09837948322","0.3895367297","0.2999212614","0.3654165885","","","","","","","","","","","","","","75","K","2","","","193","main_expt",""
"","bandit","273","872843","0.0-235.0-0.0","75080970","wem/bandit_party_1","A98E8M4QLI9RS","either","2","399","","","","","","","0","0","1","0.3537818584","","0.4","0.6","0.2","0.8","","","","","0.137690802","0.4032313792","0.3287494418","0.3537818584","","","","","","","","","","76","L","3","","","194","main_expt",""
"","bandit","274","874692","0.0-236.0-0.0","75080970","wem/bandit_party_1","A98E8M4QLI9RS","either","2","311","","","","","","","1","0","0","0.337234763","","0.4","0.6","0.2","0.8","","","","","0.1683354775","0.337234763","0.3031978913","0.3597494918","","","","","","","","","","74","J","1","","","195","main_expt",""
"","bandit","275","876723","0.0-237.0-0.0","75080970","wem/bandit_party_1","A98E8M4QLI9RS","either","2","495","","","","","","","1","0","0","0.3950764453","","0.4","0.6","0.2","0.8","","","","","0.1561951964","0.3950764453","0.2901303692","0.3479121901","","","","","","","","","","74","J","1","","","196","main_expt",""
"","bandit","276","878747","0.0-238.0-0.0","75080970","wem/bandit_party_1","A98E8M4QLI9RS","either","2","487","","","","","","","0","0","1","0.4193743727","","0.4","0.6","0.2","0.8","","","","","0.1329868482","0.4193743727","0.2444781728","0.3596292454","","","","","","","","","","74","J","1","","","197","main_expt",""
"","bandit","277","880714","0.0-239.0-0.0","75080970","wem/bandit_party_1","A98E8M4QLI9RS","either","2","430","","","","","","","0","0","1","0.4375347816","","0.4","0.6","0.2","0.8","","","","","0.1730826789","0.4375347816","0.2140047665","0.3555371828","","","","","","","","","","74","J","1","","","198","main_expt",""
"","bandit","278","882717","0.0-240.0-0.0","75080970","wem/bandit_party_1","A98E8M4QLI9RS","either","2","466","","","","","","","0","1","0","","0.4315030007","0.4","0.6","0.2","0.8","0.1385649096","0.4315030007","0.2077842613","0.4016486285","","","","","","","","","","","","","","74","J","1","","","199","main_expt",""
"","bandit","279","884787","0.0-241.0-0.0","75080970","wem/bandit_party_1","A98E8M4QLI9RS","either","2","533","","","","","","","1","0","0","0.4340108373","","0.4","0.6","0.2","0.8","","","","","0.1941139053","0.4340108373","0.180488049","0.3871107612","","","","","","","","","","74","J","1","","","200","main_expt",""
"","bandit","280","886747","0.0-242.0-0.0","75080970","wem/bandit_party_1","A98E8M4QLI9RS","either","2","424","","","","","","","1","0","0","0.441078118","","0.4","0.6","0.2","0.8","","","","","0.1825013029","0.441078118","0.2084987087","0.3856539452","","","","","","","","","","74","J","1","","","201","main_expt",""
"","bandit","281","888707","0.0-243.0-0.0","75080970","wem/bandit_party_1","A98E8M4QLI9RS","either","2","424","","","","","","","1","0","0","0.4143682719","","0.4","0.6","0.2","0.8","","","","","0.162440572","0.4143682719","0.1869669721","0.358588673","","","","","","","","","","74","J","1","","","202","main_expt",""
"","bandit","282","890571","0.0-244.0-0.0","75080970","wem/bandit_party_1","A98E8M4QLI9RS","either","2","325","","","","","","","0","0","1","0.4280720422","","0.4","0.6","0.2","0.8","","","","","0.1914238456","0.4280720422","0.1383076553","0.3460881607","","","","","","","","","","74","J","1","","","203","main_expt",""
"","bandit","283","892580","0.0-245.0-0.0","75080970","wem/bandit_party_1","A98E8M4QLI9RS","either","2","471","","","","","","","0","0","1","","0.4113524858","0.4","0.6","0.2","0.8","0.1849793247","0.4113524858","0.1656187697","0.3091432968","","","","","","","","","","","","","","74","J","1","","","204","main_expt",""
"","bandit","284","894483","0.0-246.0-0.0","75080970","wem/bandit_party_1","A98E8M4QLI9RS","either","2","367","","","","","","","0","0","1","","0.4151465815","0.4","0.6","0.2","0.8","0.1722293799","0.4151465815","0.1699285253","0.3016396897","","","","","","","","","","","","","","74","J","1","","","205","main_expt",""
"","bandit","285","896139","0.0-247.0-0.0","75080970","wem/bandit_party_1","A98E8M4QLI9RS","either","2","116","","","","","","","0","0","1","","0.1625694713","0.4","0.6","0.2","0.8","0.1625694713","0.4002359997","0.161732949","0.3300702997","","","","","","","","","","","","","","72","H","0","img/none_selected.jpg","","206","main_expt",""
"","bandit","286","898194","0.0-248.0-0.0","75080970","wem/bandit_party_1","A98E8M4QLI9RS","either","2","519","","","","","","","0","0","1","","0.1699017951","0.4","0.6","0.2","0.8","0.1079769143","0.3692387261","0.1699017951","0.2648848683","","","","","","","","","","","","","","75","K","2","","","207","main_expt",""
"","bandit","287","900203","0.0-249.0-0.0","75080970","wem/bandit_party_1","A98E8M4QLI9RS","either","2","472","","","","","","","0","0","1","","0.2502792914","0.4","0.6","0.2","0.8","0.1380178959","0.3283471685","0.1592107695","0.2502792914","","","","","","","","","","","","","","76","L","3","","","208","main_expt",""
"","bandit","288","902148","0.0-250.0-0.0","75080970","wem/bandit_party_1","A98E8M4QLI9RS","either","2","408","","","","","","","0","0","1","0.2924758898","","0.4","0.6","0.2","0.8","","","","","0.1538506734","0.2924758898","0.1659907122","0.2770073026","","","","","","","","","","74","J","1","","","209","main_expt",""
"","bandit","289","903947","0.0-251.0-0.0","75080970","wem/bandit_party_1","A98E8M4QLI9RS","either","2","263","","","","","","","0","0","1","0.1406222791","","0.4","0.6","0.2","0.8","","","","","0.1406222791","0.2279470939","0.229525517","0.3451435735","","","","","","","","","","72","H","0","img/none_selected.jpg","","210","main_expt",""
"","bandit","290","906019","0.0-252.0-0.0","75080970","wem/bandit_party_1","A98E8M4QLI9RS","either","2","536","","","","","","","0","0","1","0.2131844406","","0.4","0.6","0.2","0.8","","","","","0.08987887408","0.2131844406","0.2434605193","0.3514478275","","","","","","","","","","74","J","1","","","211","main_expt",""
"","bandit","291","907987","0.0-253.0-0.0","75080970","wem/bandit_party_1","A98E8M4QLI9RS","either","2","436","","","","","","","0","0","1","","0.1633214123","0.4","0.6","0.2","0.8","0.1277875359","0.1601793481","0.1633214123","0.3579324364","","","","","","","","","","","","","","75","K","2","","","212","main_expt",""
"","bandit","292","910051","0.0-254.0-0.0","75080970","wem/bandit_party_1","A98E8M4QLI9RS","either","2","520","","","","","","","1","0","0","0.3231243524","","0.4","0.6","0.2","0.8","","","","","0.134271297","0.1354109392","0.1014835246","0.3231243524","","","","","","","","","","76","L","3","","","213","main_expt",""
"","bandit","293","912180","0.0-255.0-0.0","75080970","wem/bandit_party_1","A98E8M4QLI9RS","either","2","590","","","","","","","0","0","1","0.2798540136","","0.4","0.6","0.2","0.8","","","","","0.1385204111","0.1142105534","0.09587264096","0.2798540136","","","","","","","","","","76","L","3","","","214","main_expt",""
"","bandit","294","914227","0.0-256.0-0.0","75080970","wem/bandit_party_1","A98E8M4QLI9RS","either","2","507","","","","","","","0","0","1","0.2469391402","","0.4","0.6","0.2","0.8","","","","","0.1089132689","0.1031311673","0.08342689115","0.2469391402","","","","","","","","","","76","L","3","","","215","main_expt",""
"","bandit","295","916348","0.0-257.0-0.0","75080970","wem/bandit_party_1","A98E8M4QLI9RS","either","2","577","","","","","","","0","0","1","0.3211823944","","0.4","0.6","0.2","0.8","","","","","0.1299508563","0.1031732366","0.05361264496","0.3211823944","","","","","","","","","","76","L","3","","","216","main_expt",""
"","bandit","296","918348","0.0-258.0-0.0","75080970","wem/bandit_party_1","A98E8M4QLI9RS","either","2","460","","","","","","","0","0","1","","0.09912420903","0.4","0.6","0.2","0.8","0.131109262","0.1188097379","0.09912420903","0.3545519007","","","","","","","","","","","","","","75","K","2","","","217","main_expt",""
"","bandit","297","920433","0.0-259.0-0.0","75080970","wem/bandit_party_1","A98E8M4QLI9RS","either","2","552","","","","","","","1","0","0","0.1096623481","","0.4","0.6","0.2","0.8","","","","","0.1039495344","0.1096623481","0.1021137889","0.3781539282","","","","","","","","","","74","J","1","","","218","main_expt",""
"","bandit","298","922637","0.0-260.0-0.0","75080970","wem/bandit_party_1","A98E8M4QLI9RS","either","2","665","","","","","","","0","0","1","0.08679630722","","0.4","0.6","0.2","0.8","","","","","0.09488552944","0.08679630722","0.1025207236","0.3674409598","","","","","","","","","","74","J","1","","","219","main_expt",""
"","bandit","299","924831","0.0-261.0-0.0","75080970","wem/bandit_party_1","A98E8M4QLI9RS","either","2","652","","","","","","","0","0","1","","0.1482089448","0.4","0.6","0.2","0.8","0.1311925698","0.1482089448","0.1049734862","0.315237632","","","","","","","","","","","","","","74","J","1","","","220","main_expt",""
"","bandit","300","927020","0.0-262.0-0.0","75080970","wem/bandit_party_1","A98E8M4QLI9RS","either","2","654","","","","","","","0","0","1","","0.08224132258","0.4","0.6","0.2","0.8","0.08224132258","0.217172314","0.08244295151","0.3572442142","","","","","","","","","","","","","","72","H","0","img/none_selected.jpg","","221","main_expt",""
"","bandit","301","928932","0.0-263.0-0.0","75080970","wem/bandit_party_1","A98E8M4QLI9RS","either","2","378","","","","","","","0","0","1","","0.06870998364","0.4","0.6","0.2","0.8","0.06870998364","0.2227738938","0.09815111748","0.2796125419","","","","","","","","","","","","","","72","H","0","img/none_selected.jpg","","222","main_expt",""
"","bandit","302","935184","0.0-264.0-0.0","75080970","wem/bandit_party_1","A98E8M4QLI9RS","either","2","4717","","","","","","","0","0","1","","0.2768694491","0.4","0.6","0.2","0.8","0.111762886","0.2768694491","0.09925351505","0.2265565182","","","","","","","","","","","","","","74","J","1","","","223","main_expt",""
"","bandit","303","936739","0.0-265.0-0.0","75080970","wem/bandit_party_1","A98E8M4QLI9RS","either","2","12","","","","","","","0","0","1","","0.07842644678","0.4","0.6","0.2","0.8","0.09652303785","0.2895694018","0.07842644678","0.1727872262","","","","","","","","","","","","","","75","K","2","","","224","main_expt",""
"","bandit","304","939493","0.0-266.0-0.0","75080970","wem/bandit_party_1","A98E8M4QLI9RS","either","2","1214","","","","","","","0","0","1","","0.1580797834","0.4","0.6","0.2","0.8","0.09424892582","0.3515154126","0.05284632075","0.1580797834","","","","","","","","","","","","","","76","L","3","","","225","main_expt",""
"","bandit","305","942444","0.0-267.0-0.0","75080970","wem/bandit_party_1","A98E8M4QLI9RS","either","2","1412","","","","","","","0","0","1","","0.06788221328","0.4","0.6","0.2","0.8","0.1094697254","0.3960872924","0.06788221328","0.1206031336","","","","","","","","","","","","","","75","K","2","","","226","main_expt",""
"","bandit","306","944565","0.0-268.0-0.0","75080970","wem/bandit_party_1","A98E8M4QLI9RS","either","2","582","","","","","","","0","0","1","0.3301105445","","0.4","0.6","0.2","0.8","","","","","0.1055794081","0.3301105445","0.04226868229","0.1218099769","","","","","","","","","","74","J","1","","","227","main_expt",""
"","bandit","307","947588","0.0-269.0-0.0","75080970","wem/bandit_party_1","A98E8M4QLI9RS","either","2","1483","","","","","","","1","0","0","0.1210232629","","0.4","0.6","0.2","0.8","","","","","0.1210232629","0.3679650562","0.06174471126","0.08458740206","","","","","","","","","","72","H","0","img/none_selected.jpg","","228","main_expt",""
"","bandit","308","950508","0.0-270.0-0.0","75080970","wem/bandit_party_1","A98E8M4QLI9RS","either","2","1380","","","","","","","0","0","1","0.1249199002","","0.4","0.6","0.2","0.8","","","","","0.1249199002","0.3413725311","0.06122033102","0.06311990622","","","","","","","","","","72","H","0","img/none_selected.jpg","","229","main_expt",""
"","bandit","309","955045","0.0-271.0-0.0","75080970","wem/bandit_party_1","A98E8M4QLI9RS","either","2","2997","","","","","","","0","0","1","","0.09369367087","0.4","0.6","0.2","0.8","0.1423167866","0.3652503211","0.09369367087","0.04674316758","","","","","","","","","","","","","","75","K","2","","","230","main_expt",""
"","bandit","310","956934","0.0-272.0-0.0","75080970","wem/bandit_party_1","A98E8M4QLI9RS","either","2","348","","","","","","","0","0","1","0.06697327866","","0.4","0.6","0.2","0.8","","","","","0.1441411413","0.3774172636","0.1378364932","0.06697327866","","","","","","","","","","76","L","3","","","231","main_expt",""
"","bandit","311","958709","0.0-273.0-0.0","75080970","wem/bandit_party_1","A98E8M4QLI9RS","either","2","235","","","","","","","0","0","1","0.3507397895","","0.4","0.6","0.2","0.8","","","","","0.1132866493","0.3507397895","0.1138343256","0.08617656909","","","","","","","","","","74","J","1","","","232","main_expt",""
"","bandit","312","960661","0.0-274.0-0.0","75080970","wem/bandit_party_1","A98E8M4QLI9RS","either","2","413","","","","","","","0","0","1","","0.07587191469","0.4","0.6","0.2","0.8","0.07587191469","0.3228668676","0.1602674987","0.08388286328","","","","","","","","","","","","","","72","H","0","img/none_selected.jpg","","233","main_expt",""
"","bandit","313","962605","0.0-275.0-0.0","75080970","wem/bandit_party_1","A98E8M4QLI9RS","either","2","404","","","","","","","0","1","0","","0.3219168209","0.4","0.6","0.2","0.8","0.08330376307","0.3219168209","0.1399599793","0.08303297831","","","","","","","","","","","","","","74","J","1","","","234","main_expt",""
"","bandit","314","964645","0.0-276.0-0.0","75080970","wem/bandit_party_1","A98E8M4QLI9RS","either","2","501","","","","","","","1","0","0","0.2907257894","","0.4","0.6","0.2","0.8","","","","","0.07960395758","0.2907257894","0.1577883936","0.08228619446","","","","","","","","","","74","J","1","","","235","main_expt",""
"","bandit","315","966653","0.0-277.0-0.0","75080970","wem/bandit_party_1","A98E8M4QLI9RS","either","2","472","","","","","","","0","0","1","0.2879125653","","0.4","0.6","0.2","0.8","","","","","0.06703487678","0.2879125653","0.1206463377","0.07856112713","","","","","","","","","","74","J","1","","","236","main_expt",""
"","bandit","316","968708","0.0-278.0-0.0","75080970","wem/bandit_party_1","A98E8M4QLI9RS","either","2","519","","","","","","","0","0","1","0.3055933028","","0.4","0.6","0.2","0.8","","","","","0.07970276757","0.3055933028","0.1224948263","0.09394336493","","","","","","","","","","74","J","1","","","237","main_expt",""
