"consent","trial_type","trial_index","time_elapsed","internal_node_id","subjID","study","MID","cond","drift","rt","responses","button_pressed","key_press","like","value","connected","gems","bombs","no_reward","GemPrChosen","BombPrChosen","GainOverPainPr_0","GainOverPainPr_1","GainOverPainPr_2","GainOverPainPr_3","LosePr_0","LosePr_1","LosePr_2","LosePr_3","WinPr_0","WinPr_1","WinPr_2","WinPr_3","Q0","Q1","Q2","gender","age","ethnicity","label","expt_phase","target","respCharCode","respKey","respChoiceNum","respChoice","practice","trial_counter","trial_label","Q0_index","view_history"
"GDM/GDM_behavioral_consent_30min_online.html","consent","0","7774","0.0-0.0","75173917","wem/bandit_party_1","A21753FQKCM5DQ","either","7","","","","","","","","","","","","","","","","","","","","","","","","","","","","","","","","","","","","","","","","","",""
"","survey-text","1","16658","0.0-1.0","75173917","wem/bandit_party_1","A21753FQKCM5DQ","either","7","7866","{""Q0"":""A21753FQKCM5DQ""}","","","","","","","","","","","","","","","","","","","","","","","","","","","","","","","","","","","","","","","",""
"","button-response","2","19973","0.0-2.0","75173917","wem/bandit_party_1","A21753FQKCM5DQ","either","7","2301","","2","","","","","","","","","","","","","","","","","","","","","","","","","","","","","","","","","","","","","","",""
"","text-replacement","3","30692","0.0-3.0","75173917","wem/bandit_party_1","A21753FQKCM5DQ","either","7","9709","","","32","","","","","","","","","","","","","","","","","","","","","","","","","","","","","","","","","","","","","",""
"","text-replacement","4","40202","0.0-4.0","75173917","wem/bandit_party_1","A21753FQKCM5DQ","either","7","9502","","","32","","","","","","","","","","","","","","","","","","","","","","","","","","","","","","","","","","","","","",""
"","text-replacement","5","52539","0.0-5.0-0.0","75173917","wem/bandit_party_1","A21753FQKCM5DQ","either","7","12325","","","32","","","","","","","","","","","","","","","","","","","","","","","","","","","","","","","","","","","","","",""
"","identification","6","65696","0.0-6.0-0.0","75173917","wem/bandit_party_1","A21753FQKCM5DQ","either","7","13117","","","","4","4","3","","","","","","","","","","","","","","","","","","","","","","","","pre","identification_pre","the Republican party","","","","","","","","",""
"","identification","7","71459","0.0-6.0-1.0","75173917","wem/bandit_party_1","A21753FQKCM5DQ","either","7","4731","","","","3","3","0","","","","","","","","","","","","","","","","","","","","","","","","pre","identification_pre","the Democratic Party","","","","","","","","",""
"","text-replacement","8","76981","0.0-7.0","75173917","wem/bandit_party_1","A21753FQKCM5DQ","either","7","4512","","","32","","","","","","","","","","","","","","","","","","","","","","","","","","","","","","","","","","","","","",""
"","text-replacement","9","82348","0.0-8.0","75173917","wem/bandit_party_1","A21753FQKCM5DQ","either","7","5362","","","32","","","","","","","","","","","","","","","","","","","","","","","","","","","","","","","","","","","","","",""
"","text-replacement","10","90789","0.0-9.0","75173917","wem/bandit_party_1","A21753FQKCM5DQ","either","7","8436","","","32","","","","","","","","","","","","","","","","","","","","","","","","","","","","","","","","","","","","","",""
"","text-replacement","11","96872","0.0-10.0","75173917","wem/bandit_party_1","A21753FQKCM5DQ","either","7","6080","","","32","","","","","","","","","","","","","","","","","","","","","","","","","","","","","","","","","","","","","",""
"","text-replacement","12","101554","0.0-11.0","75173917","wem/bandit_party_1","A21753FQKCM5DQ","either","7","4677","","","32","","","","","","","","","","","","","","","","","","","","","","","","","","","","","","","","","","","","","",""
"","bandit","13","107821","0.0-12.0-0.0","75173917","wem/bandit_party_1","A21753FQKCM5DQ","either","7","4740","","","","","","","0","0","1","0","0","","","","","0","","","","0","","","","","","","","","","","","","74","J","0","img/none_selected_demo.jpg","true","0","","",""
"","bandit","14","110512","0.0-13.0-0.0","75173917","wem/bandit_party_1","A21753FQKCM5DQ","either","7","1150","","","","","","","0","0","1","0","0","","","","","0","","","","0","","","","","","","","","","","","","75","K","0","img/none_selected_demo.jpg","true","0","","",""
"","text-replacement","15","118339","0.0-14.0","75173917","wem/bandit_party_1","A21753FQKCM5DQ","either","7","7820","","","32","","","","","","","","","","","","","","","","","","","","","","","","","","","","","","","","","","","","","",""
"","text-replacement","16","134571","0.0-15.0","75173917","wem/bandit_party_1","A21753FQKCM5DQ","either","7","16223","","","32","","","","","","","","","","","","","","","","","","","","","","","","","","","","","","","","","","","","","",""
"","text-replacement","17","143745","0.0-16.0","75173917","wem/bandit_party_1","A21753FQKCM5DQ","either","7","9164","","","32","","","","","","","","","","","","","","","","","","","","","","","","","","","","","","","","","","","","","",""
"","text-replacement","18","149197","0.0-17.0","75173917","wem/bandit_party_1","A21753FQKCM5DQ","either","7","5446","","","32","","","","","","","","","","","","","","","","","","","","","","","","","","","","","","","","","","","","","",""
"","bandit","19","151527","0.0-18.0-0.0","75173917","wem/bandit_party_1","A21753FQKCM5DQ","either","7","803","","","","","","","0","1","0","","0.8","0.5","0.5","","","0.8","0.2","","","","","","","","","","","","","","","","74","J","0","img/none_selected_demo.jpg","true","0","80_20_practice","",""
"","bandit","20","153861","0.0-18.0-1.0","75173917","wem/bandit_party_1","A21753FQKCM5DQ","either","7","813","","","","","","","0","1","0","","0.8","0.5","0.5","","","0.8","0.2","","","","","","","","","","","","","","","","74","J","0","img/none_selected_demo.jpg","true","0","80_20_practice","",""
"","bandit","21","155851","0.0-18.0-2.0","75173917","wem/bandit_party_1","A21753FQKCM5DQ","either","7","456","","","","","","","0","0","1","","0.2","0.5","0.5","","","0.8","0.2","","","","","","","","","","","","","","","","75","K","1","","true","0","80_20_practice","",""
"","bandit","22","157750","0.0-18.0-3.0","75173917","wem/bandit_party_1","A21753FQKCM5DQ","either","7","281","","","","","","","0","0","1","0.2","","0.5","0.5","","","","","","","0.8","0.2","","","","","","","","","","","","75","K","1","","true","0","80_20_practice","",""
"","bandit","23","159674","0.0-18.0-4.0","75173917","wem/bandit_party_1","A21753FQKCM5DQ","either","7","408","","","","","","","0","1","0","","0.2","0.5","0.5","","","0.8","0.2","","","","","","","","","","","","","","","","75","K","1","","true","0","80_20_practice","",""
"","bandit","24","161625","0.0-18.0-5.0","75173917","wem/bandit_party_1","A21753FQKCM5DQ","either","7","436","","","","","","","1","0","0","0.8","","0.5","0.5","","","","","","","0.8","0.2","","","","","","","","","","","","74","J","0","img/none_selected_demo.jpg","true","0","80_20_practice","",""
"","bandit","25","163298","0.0-18.0-6.0","75173917","wem/bandit_party_1","A21753FQKCM5DQ","either","7","158","","","","","","","0","1","0","","0.8","0.5","0.5","","","0.8","0.2","","","","","","","","","","","","","","","","74","J","0","img/none_selected_demo.jpg","true","0","80_20_practice","",""
"","bandit","26","165019","0.0-18.0-7.0","75173917","wem/bandit_party_1","A21753FQKCM5DQ","either","7","181","","","","","","","0","1","0","","0.8","0.5","0.5","","","0.8","0.2","","","","","","","","","","","","","","","","74","J","0","img/none_selected_demo.jpg","true","0","80_20_practice","",""
"","bandit","27","167074","0.0-18.0-8.0","75173917","wem/bandit_party_1","A21753FQKCM5DQ","either","7","236","","","","","","","0","0","1","0.8","","0.5","0.5","","","","","","","0.8","0.2","","","","","","","","","","","","74","J","0","img/none_selected_demo.jpg","true","0","80_20_practice","",""
"","bandit","28","168595","0.0-18.0-9.0","75173917","wem/bandit_party_1","A21753FQKCM5DQ","either","7","1","","","","","","","1","0","0","0.8","","0.5","0.5","","","","","","","0.8","0.2","","","","","","","","","","","","74","J","0","img/none_selected_demo.jpg","true","0","80_20_practice","",""
"","bandit","29","170414","0.0-18.0-10.0","75173917","wem/bandit_party_1","A21753FQKCM5DQ","either","7","300","","","","","","","1","0","0","0.8","","0.5","0.5","","","","","","","0.8","0.2","","","","","","","","","","","","74","J","0","img/none_selected_demo.jpg","true","0","80_20_practice","",""
"","bandit","30","172210","0.0-18.0-11.0","75173917","wem/bandit_party_1","A21753FQKCM5DQ","either","7","248","","","","","","","0","0","1","","0.2","0.5","0.5","","","0.8","0.2","","","","","","","","","","","","","","","","75","K","1","","true","0","80_20_practice","",""
"","bandit","31","174088","0.0-18.0-12.0","75173917","wem/bandit_party_1","A21753FQKCM5DQ","either","7","365","","","","","","","0","1","0","","0.8","0.5","0.5","","","0.8","0.2","","","","","","","","","","","","","","","","74","J","0","img/none_selected_demo.jpg","true","0","80_20_practice","",""
"","bandit","32","175623","0.0-18.0-13.0","75173917","wem/bandit_party_1","A21753FQKCM5DQ","either","7","20","","","","","","","0","1","0","","0.8","0.5","0.5","","","0.8","0.2","","","","","","","","","","","","","","","","74","J","0","img/none_selected_demo.jpg","true","0","80_20_practice","",""
"","bandit","33","177478","0.0-18.0-14.0","75173917","wem/bandit_party_1","A21753FQKCM5DQ","either","7","330","","","","","","","0","1","0","","0.8","0.5","0.5","","","0.8","0.2","","","","","","","","","","","","","","","","74","J","0","img/none_selected_demo.jpg","true","0","80_20_practice","",""
"","bandit","34","179191","0.0-18.0-15.0","75173917","wem/bandit_party_1","A21753FQKCM5DQ","either","7","188","","","","","","","0","1","0","","0.8","0.5","0.5","","","0.8","0.2","","","","","","","","","","","","","","","","74","J","0","img/none_selected_demo.jpg","true","0","80_20_practice","",""
"","bandit","35","180974","0.0-18.0-16.0","75173917","wem/bandit_party_1","A21753FQKCM5DQ","either","7","260","","","","","","","0","0","1","","0.8","0.5","0.5","","","0.8","0.2","","","","","","","","","","","","","","","","74","J","0","img/none_selected_demo.jpg","true","0","80_20_practice","",""
"","bandit","36","182616","0.0-18.0-17.0","75173917","wem/bandit_party_1","A21753FQKCM5DQ","either","7","112","","","","","","","0","1","0","","0.8","0.5","0.5","","","0.8","0.2","","","","","","","","","","","","","","","","74","J","0","img/none_selected_demo.jpg","true","0","80_20_practice","",""
"","bandit","37","184473","0.0-18.0-18.0","75173917","wem/bandit_party_1","A21753FQKCM5DQ","either","7","266","","","","","","","0","0","1","","0.8","0.5","0.5","","","0.8","0.2","","","","","","","","","","","","","","","","74","J","0","img/none_selected_demo.jpg","true","0","80_20_practice","",""
"","bandit","38","186632","0.0-18.0-19.0","75173917","wem/bandit_party_1","A21753FQKCM5DQ","either","7","643","","","","","","","0","1","0","","0.8","0.5","0.5","","","0.8","0.2","","","","","","","","","","","","","","","","74","J","0","img/none_selected_demo.jpg","true","0","80_20_practice","",""
"","text-replacement","39","189841","0.0-19.0","75173917","wem/bandit_party_1","A21753FQKCM5DQ","either","7","3198","","","32","","","","","","","","","","","","","","","","","","","","","","","","","","","","","","","","","","","","","",""
"","bandit","40","191878","0.0-20.0-0.0","75173917","wem/bandit_party_1","A21753FQKCM5DQ","either","7","510","","","","","","","1","0","0","1","0","","","","","0","1","","","1","0","","","","","","","","","","","","74","J","0","img/none_selected_demo.jpg","true","0","","",""
"","text-replacement","41","195791","0.0-21.0","75173917","wem/bandit_party_1","A21753FQKCM5DQ","either","7","3908","","","32","","","","","","","","","","","","","","","","","","","","","","","","","","","","","","","","","","","","","",""
"","text-replacement","42","199089","0.0-22.0","75173917","wem/bandit_party_1","A21753FQKCM5DQ","either","7","3294","","","32","","","","","","","","","","","","","","","","","","","","","","","","","","","","","","","","","","","","","",""
"","text-replacement","43","202008","0.0-23.0","75173917","wem/bandit_party_1","A21753FQKCM5DQ","either","7","2915","","","32","","","","","","","","","","","","","","","","","","","","","","","","","","","","","","","","","","","","","",""
"","text-replacement","44","205023","0.0-24.0","75173917","wem/bandit_party_1","A21753FQKCM5DQ","either","7","3012","","","32","","","","","","","","","","","","","","","","","","","","","","","","","","","","","","","","","","","","","",""
"","text-replacement","45","215521","0.0-25.0","75173917","wem/bandit_party_1","A21753FQKCM5DQ","either","7","10492","","","32","","","","","","","","","","","","","","","","","","","","","","","","","","","","","","","","","","","","","",""
"","text-replacement","46","219785","0.0-26.0","75173917","wem/bandit_party_1","A21753FQKCM5DQ","either","7","4260","","","32","","","","","","","","","","","","","","","","","","","","","","","","","","","","","","","","","","","","","",""
"","text-replacement","47","224346","0.0-27.0","75173917","wem/bandit_party_1","A21753FQKCM5DQ","either","7","4557","","","32","","","","","","","","","","","","","","","","","","","","","","","","","","","","","","","","","","","","","",""
"","text-replacement","48","228465","0.0-28.0","75173917","wem/bandit_party_1","A21753FQKCM5DQ","either","7","4114","","","32","","","","","","","","","","","","","","","","","","","","","","","","","","","","","","","","","","","","","",""
"","text-replacement","49","233960","0.0-29.0","75173917","wem/bandit_party_1","A21753FQKCM5DQ","either","7","5489","","","32","","","","","","","","","","","","","","","","","","","","","","","","","","","","","","","","","","","","","",""
"","text-replacement","50","235178","0.0-30.0","75173917","wem/bandit_party_1","A21753FQKCM5DQ","either","7","1213","","","32","","","","","","","","","","","","","","","","","","","","","","","","","","","","","","","","","","","","","",""
"","text-replacement","51","236074","0.0-31.0","75173917","wem/bandit_party_1","A21753FQKCM5DQ","either","7","892","","","32","","","","","","","","","","","","","","","","","","","","","","","","","","","","","","","","","","","","","",""
"","bandit","52","238176","0.0-32.0-0.0","75173917","wem/bandit_party_1","A21753FQKCM5DQ","either","7","575","","","","","","","1","0","0","0.6","","0.5","0.5","0.5","0.5","","","","","0.8","0.2","0.6","0.2","","","","","","","","","","75","K","2","","true","0","full_practice","",""
"","bandit","53","240739","0.0-32.0-1.0","75173917","wem/bandit_party_1","A21753FQKCM5DQ","either","7","1042","","","","","","","0","1","0","","0.8","0.5","0.5","0.5","0.5","0.8","0.2","0.6","0.2","","","","","","","","","","","","","","72","H","0","img/none_selected.jpg","true","0","full_practice","",""
"","bandit","54","242605","0.0-32.0-2.0","75173917","wem/bandit_party_1","A21753FQKCM5DQ","either","7","336","","","","","","","0","0","1","0.2","","0.5","0.5","0.5","0.5","","","","","0.8","0.2","0.6","0.2","","","","","","","","","","74","J","1","","true","0","full_practice","",""
"","bandit","55","244241","0.0-32.0-3.0","75173917","wem/bandit_party_1","A21753FQKCM5DQ","either","7","109","","","","","","","0","0","1","0.2","","0.5","0.5","0.5","0.5","","","","","0.8","0.2","0.6","0.2","","","","","","","","","","76","L","3","","true","0","full_practice","",""
"","bandit","56","245775","0.0-32.0-4.0","75173917","wem/bandit_party_1","A21753FQKCM5DQ","either","7","13","","","","","","","0","0","1","0.6","","0.5","0.5","0.5","0.5","","","","","0.8","0.2","0.6","0.2","","","","","","","","","","75","K","2","","true","0","full_practice","",""
"","bandit","57","247793","0.0-32.0-5.0","75173917","wem/bandit_party_1","A21753FQKCM5DQ","either","7","458","","","","","","","0","1","0","","0.8","0.5","0.5","0.5","0.5","0.8","0.2","0.6","0.2","","","","","","","","","","","","","","72","H","0","img/none_selected.jpg","true","0","full_practice","",""
"","bandit","58","249533","0.0-32.0-6.0","75173917","wem/bandit_party_1","A21753FQKCM5DQ","either","7","225","","","","","","","0","1","0","","0.6","0.5","0.5","0.5","0.5","0.8","0.2","0.6","0.2","","","","","","","","","","","","","","75","K","2","","true","0","full_practice","",""
"","bandit","59","251205","0.0-32.0-7.0","75173917","wem/bandit_party_1","A21753FQKCM5DQ","either","7","150","","","","","","","1","0","0","0.8","","0.5","0.5","0.5","0.5","","","","","0.8","0.2","0.6","0.2","","","","","","","","","","72","H","0","img/none_selected.jpg","true","0","full_practice","",""
"","bandit","60","253422","0.0-32.0-8.0","75173917","wem/bandit_party_1","A21753FQKCM5DQ","either","7","685","","","","","","","0","0","1","0.6","","0.5","0.5","0.5","0.5","","","","","0.8","0.2","0.6","0.2","","","","","","","","","","75","K","2","","true","0","full_practice","",""
"","bandit","61","255296","0.0-32.0-9.0","75173917","wem/bandit_party_1","A21753FQKCM5DQ","either","7","338","","","","","","","1","0","0","0.8","","0.5","0.5","0.5","0.5","","","","","0.8","0.2","0.6","0.2","","","","","","","","","","72","H","0","img/none_selected.jpg","true","0","full_practice","",""
"","bandit","62","257240","0.0-32.0-10.0","75173917","wem/bandit_party_1","A21753FQKCM5DQ","either","7","426","","","","","","","1","0","0","0.2","","0.5","0.5","0.5","0.5","","","","","0.8","0.2","0.6","0.2","","","","","","","","","","74","J","1","","true","0","full_practice","",""
"","bandit","63","259149","0.0-32.0-11.0","75173917","wem/bandit_party_1","A21753FQKCM5DQ","either","7","381","","","","","","","0","1","0","","0.8","0.5","0.5","0.5","0.5","0.8","0.2","0.6","0.2","","","","","","","","","","","","","","72","H","0","img/none_selected.jpg","true","0","full_practice","",""
"","bandit","64","260764","0.0-32.0-12.0","75173917","wem/bandit_party_1","A21753FQKCM5DQ","either","7","85","","","","","","","0","0","1","","0.2","0.5","0.5","0.5","0.5","0.8","0.2","0.6","0.2","","","","","","","","","","","","","","74","J","1","","true","0","full_practice","",""
"","bandit","65","262824","0.0-32.0-13.0","75173917","wem/bandit_party_1","A21753FQKCM5DQ","either","7","540","","","","","","","1","0","0","0.8","","0.5","0.5","0.5","0.5","","","","","0.8","0.2","0.6","0.2","","","","","","","","","","72","H","0","img/none_selected.jpg","true","0","full_practice","",""
"","bandit","66","264548","0.0-32.0-14.0","75173917","wem/bandit_party_1","A21753FQKCM5DQ","either","7","191","","","","","","","0","0","1","","0.2","0.5","0.5","0.5","0.5","0.8","0.2","0.6","0.2","","","","","","","","","","","","","","74","J","1","","true","0","full_practice","",""
"","bandit","67","266095","0.0-32.0-15.0","75173917","wem/bandit_party_1","A21753FQKCM5DQ","either","7","20","","","","","","","0","1","0","","0.8","0.5","0.5","0.5","0.5","0.8","0.2","0.6","0.2","","","","","","","","","","","","","","72","H","0","img/none_selected.jpg","true","0","full_practice","",""
"","bandit","68","268017","0.0-32.0-16.0","75173917","wem/bandit_party_1","A21753FQKCM5DQ","either","7","401","","","","","","","0","0","1","0.2","","0.5","0.5","0.5","0.5","","","","","0.8","0.2","0.6","0.2","","","","","","","","","","76","L","3","","true","0","full_practice","",""
"","bandit","69","269673","0.0-32.0-17.0","75173917","wem/bandit_party_1","A21753FQKCM5DQ","either","7","128","","","","","","","1","0","0","0.8","","0.5","0.5","0.5","0.5","","","","","0.8","0.2","0.6","0.2","","","","","","","","","","72","H","0","img/none_selected.jpg","true","0","full_practice","",""
"","bandit","70","271469","0.0-32.0-18.0","75173917","wem/bandit_party_1","A21753FQKCM5DQ","either","7","223","","","","","","","0","1","0","","0.6","0.5","0.5","0.5","0.5","0.8","0.2","0.6","0.2","","","","","","","","","","","","","","75","K","2","","true","0","full_practice","",""
"","bandit","71","273053","0.0-32.0-19.0","75173917","wem/bandit_party_1","A21753FQKCM5DQ","either","7","67","","","","","","","1","0","0","0.8","","0.5","0.5","0.5","0.5","","","","","0.8","0.2","0.6","0.2","","","","","","","","","","72","H","0","img/none_selected.jpg","true","0","full_practice","",""
"","text","72","276266","0.0-33.0","75173917","wem/bandit_party_1","A21753FQKCM5DQ","either","7","3202","","","32","","","","","","","","","","","","","","","","","","","","","","","","","","","","","","","","","","","","","",""
"","text-replacement","73","286970","0.0-34.0","75173917","wem/bandit_party_1","A21753FQKCM5DQ","either","7","9695","","","32","","","","","","","","","","","","","","","","","","","","","","","","","","","","","","","","","","","","","",""
"","text-replacement","74","292515","0.0-35.0","75173917","wem/bandit_party_1","A21753FQKCM5DQ","either","7","5535","","","32","","","","","","","","","","","","","","","","","","","","","","","","","","","","","","","","","","","","","",""
"","text-replacement","75","296660","0.0-36.0","75173917","wem/bandit_party_1","A21753FQKCM5DQ","either","7","4137","","","32","","","","","","","","","","","","","","","","","","","","","","","","","","","","","","","","","","","","","",""
"","text-replacement","76","298923","0.0-37.0","75173917","wem/bandit_party_1","A21753FQKCM5DQ","either","7","2258","","","32","","","","","","","","","","","","","","","","","","","","","","","","","","","","","","","","","","","","","",""
"","text-replacement","77","304265","0.0-38.0","75173917","wem/bandit_party_1","A21753FQKCM5DQ","either","7","5337","","","32","","","","","","","","","","","","","","","","","","","","","","","","","","","","","","","","","","","","","",""
"","survey-multi-choice-replacement","78","310174","0.0-39.0-0.0","75173917","wem/bandit_party_1","A21753FQKCM5DQ","either","7","5893","","","","","","","","","","","","","","","","","","","","","","","","Money will be added to the pool for <span style='color:blue;'>DEMOCRATS</span>","","","","","","","attn_check","","","","","","","","","0",""
"","survey-multi-choice-replacement","79","314562","0.0-40.0-0.0","75173917","wem/bandit_party_1","A21753FQKCM5DQ","either","7","3360","","","","","","","","","","","","","","","","","","","","","","","","Money will be subtracted from the pool for <span style='color:red;'>REPUBLICANS</span>","","","","","","","attn_check","","","","","","","","","1",""
"","instructions","80","317477","0.0-40.0-1.0-0.0","75173917","wem/bandit_party_1","A21753FQKCM5DQ","either","7","1897","","","","","","","","","","","","","","","","","","","","","","","","","","","","","","","","","","","","","","","","","[{""page_index"":0,""viewing_time"":1897}]"
"","survey-multi-choice-replacement","81","323160","0.0-40.1-0.1","75173917","wem/bandit_party_1","A21753FQKCM5DQ","either","7","4636","","","","","","","","","","","","","","","","","","","","","","","","Equal amounts of money will be added to the pool for <span style='color:blue;'>DEMOCRATS</span> and subtracted from the pool for <span style='color:red;'>REPUBLICANS</span>","","","","","","","attn_check","","","","","","","","","2",""
"","survey-multi-choice-replacement","82","327290","0.0-41.0-0.0","75173917","wem/bandit_party_1","A21753FQKCM5DQ","either","7","3081","","","","","","","","","","","","","","","","","","","","","","","","No money will be added to either pool","","","","","","","attn_check","","","","","","","","","3",""
"","bandit","83","331466","0.0-42.0-0.0","75173917","wem/bandit_party_1","A21753FQKCM5DQ","either","7","1635","","","","","","","0","0","1","0.1480066451","","0.4","0.6","0.8","0.2","","","","","0.1952616071","0.01738065524","0.1480066451","0.06530018083","","","","","","","","","","75","K","2","","","1","main_expt","",""
"","bandit","84","333437","0.0-43.0-0.0","75173917","wem/bandit_party_1","A21753FQKCM5DQ","either","7","431","","","","","","","0","0","1","0.0196943787","","0.4","0.6","0.8","0.2","","","","","0.1652234336","0.0196943787","0.1053714073","0.1011701763","","","","","","","","","","74","J","1","","","2","main_expt","",""
"","bandit","85","335279","0.0-44.0-0.0","75173917","wem/bandit_party_1","A21753FQKCM5DQ","either","7","324","","","","","","","0","0","1","","0.1347382479","0.4","0.6","0.8","0.2","0.1347382479","0.01678573497","0.1460078221","0.09486719381","","","","","","","","","","","","","","72","H","0","img/none_selected.jpg","","3","main_expt","",""
"","bandit","86","337194","0.0-45.0-0.0","75173917","wem/bandit_party_1","A21753FQKCM5DQ","either","7","288","","","","","","","0","0","1","","0.06705802814","0.4","0.6","0.8","0.2","0.1684625442","0.02981965743","0.1866138214","0.06705802814","","","","","","","","","","","","","","76","L","3","","","4","main_expt","",""
"","bandit","87","338981","0.0-46.0-0.0","75173917","wem/bandit_party_1","A21753FQKCM5DQ","either","7","273","","","","","","","0","0","1","0.2445348717","","0.4","0.6","0.8","0.2","","","","","0.1792029032","0.02600208211","0.2445348717","0.0822298525","","","","","","","","","","75","K","2","","","5","main_expt","",""
"","bandit","88","340787","0.0-47.0-0.0","75173917","wem/bandit_party_1","A21753FQKCM5DQ","either","7","285","","","","","","","0","0","1","","0.02332436933","0.4","0.6","0.8","0.2","0.2153873139","0.02332436933","0.2546962146","0.09162209411","","","","","","","","","","","","","","74","J","1","","","6","main_expt","",""
"","bandit","89","342569","0.0-48.0-0.0","75173917","wem/bandit_party_1","A21753FQKCM5DQ","either","7","264","","","","","","","0","1","0","","0.1757762721","0.4","0.6","0.8","0.2","0.1757762721","0.02864040813","0.2344841702","0.1028820098","","","","","","","","","","","","","","72","H","0","img/none_selected.jpg","","7","main_expt","",""
"","bandit","90","344458","0.0-49.0-0.0","75173917","wem/bandit_party_1","A21753FQKCM5DQ","either","7","274","","","","","","","0","1","0","","0.2241229746","0.4","0.6","0.8","0.2","0.2241229746","0.02951264166","0.2473344203","0.1532270122","","","","","","","","","","","","","","72","H","0","img/none_selected.jpg","","8","main_expt","",""
"","bandit","91","346262","0.0-50.0-0.0","75173917","wem/bandit_party_1","A21753FQKCM5DQ","either","7","289","","","","","","","0","0","1","","0.2199426203","0.4","0.6","0.8","0.2","0.2199426203","0.02997011939","0.2642160399","0.2131450397","","","","","","","","","","","","","","72","H","0","img/none_selected.jpg","","9","main_expt","",""
"","bandit","92","348025","0.0-51.0-0.0","75173917","wem/bandit_party_1","A21753FQKCM5DQ","either","7","244","","","","","","","0","0","1","0.1520686932","","0.4","0.6","0.8","0.2","","","","","0.1520686932","0.02489651457","0.2104627424","0.2985754635","","","","","","","","","","72","H","0","img/none_selected.jpg","","10","main_expt","",""
"","bandit","93","349842","0.0-52.0-0.0","75173917","wem/bandit_party_1","A21753FQKCM5DQ","either","7","295","","","","","","","1","0","0","0.2924640086","","0.4","0.6","0.8","0.2","","","","","0.2013349999","0.01651058827","0.219372878","0.2924640086","","","","","","","","","","76","L","3","","","11","main_expt","",""
"","bandit","94","351706","0.0-53.0-0.0","75173917","wem/bandit_party_1","A21753FQKCM5DQ","either","7","304","","","","","","","0","0","1","","0.3264291113","0.4","0.6","0.8","0.2","0.2156800105","0.02341729431","0.2105839871","0.3264291113","","","","","","","","","","","","","","76","L","3","","","12","main_expt","",""
"","bandit","95","353505","0.0-54.0-0.0","75173917","wem/bandit_party_1","A21753FQKCM5DQ","either","7","272","","","","","","","0","0","1","","0.3254913314","0.4","0.6","0.8","0.2","0.1833947696","0.0257410372","0.2511698571","0.3254913314","","","","","","","","","","","","","","76","L","3","","","13","main_expt","",""
"","bandit","96","355277","0.0-55.0-0.0","75173917","wem/bandit_party_1","A21753FQKCM5DQ","either","7","258","","","","","","","0","0","1","0.02570014082","","0.4","0.6","0.8","0.2","","","","","0.243643366","0.02570014082","0.2158977649","0.3428504842","","","","","","","","","","74","J","1","","","14","main_expt","",""
"","bandit","97","357456","0.0-56.0-0.0","75173917","wem/bandit_party_1","A21753FQKCM5DQ","either","7","314","","","","","","","0","0","1","0.2762480727","","0.4","0.6","0.8","0.2","","","","","0.2265365198","0.04268316416","0.2762480727","0.3244047679","","","","","","","","","","75","K","2","","","15","main_expt","",""
"","bandit","98","359386","0.0-57.0-0.0","75173917","wem/bandit_party_1","A21753FQKCM5DQ","either","7","399","","","","","","","0","1","0","","0.2484951132","0.4","0.6","0.8","0.2","0.2484951132","0.04667408308","0.3202890724","0.3025313629","","","","","","","","","","","","","","72","H","0","img/none_selected.jpg","","16","main_expt","",""
"","bandit","99","361200","0.0-58.0-0.0","75173917","wem/bandit_party_1","A21753FQKCM5DQ","either","7","294","","","","","","","0","0","1","","0.3291216938","0.4","0.6","0.8","0.2","0.2570267238","0.0506688767","0.3680552247","0.3291216938","","","","","","","","","","","","","","76","L","3","","","17","main_expt","",""
"","bandit","100","362776","0.0-59.0-0.0","75173917","wem/bandit_party_1","A21753FQKCM5DQ","either","7","56","","","","","","","0","0","1","0.287418789","","0.4","0.6","0.8","0.2","","","","","0.287418789","0.02988526167","0.3968593921","0.2987881532","","","","","","","","","","72","H","0","img/none_selected.jpg","","18","main_expt","",""
"","bandit","101","364599","0.0-60.0-0.0","75173917","wem/bandit_party_1","A21753FQKCM5DQ","either","7","289","","","","","","","0","0","1","","0.281207523","0.4","0.6","0.8","0.2","0.2338710899","0.03476350355","0.4192996399","0.281207523","","","","","","","","","","","","","","76","L","3","","","19","main_expt","",""
"","bandit","102","366329","0.0-61.0-0.0","75173917","wem/bandit_party_1","A21753FQKCM5DQ","either","7","198","","","","","","","0","0","1","","0.2335293464","0.4","0.6","0.8","0.2","0.2335293464","0.0233687216","0.4362768361","0.291129981","","","","","","","","","","","","","","72","H","0","img/none_selected.jpg","","20","main_expt","",""
"","bandit","103","368112","0.0-62.0-0.0","75173917","wem/bandit_party_1","A21753FQKCM5DQ","either","7","265","","","","","","","0","0","1","0.2729578326","","0.4","0.6","0.8","0.2","","","","","0.2434826965","0.01272547494","0.4599691003","0.2729578326","","","","","","","","","","76","L","3","","","21","main_expt","",""
"","bandit","104","369669","0.0-63.0-0.0","75173917","wem/bandit_party_1","A21753FQKCM5DQ","either","7","40","","","","","","","0","0","1","0.01739491555","","0.4","0.6","0.8","0.2","","","","","0.2702300591","0.01739491555","0.44353765","0.2805141014","","","","","","","","","","74","J","1","","","22","main_expt","",""
"","bandit","105","371245","0.0-64.0-0.0","75173917","wem/bandit_party_1","A21753FQKCM5DQ","either","7","59","","","","","","","0","0","1","0.4105594395","","0.4","0.6","0.8","0.2","","","","","0.2424740502","0.006692102231","0.4105594395","0.3016389313","","","","","","","","","","75","K","2","","","23","main_expt","",""
"","bandit","106","372934","0.0-65.0-0.0","75173917","wem/bandit_party_1","A21753FQKCM5DQ","either","7","173","","","","","","","0","0","1","","0.1754503809","0.4","0.6","0.8","0.2","0.1754503809","0.01209419849","0.4243351486","0.2475621169","","","","","","","","","","","","","","72","H","0","img/none_selected.jpg","","24","main_expt","",""
"","bandit","107","374457","0.0-66.0-0.0","75173917","wem/bandit_party_1","A21753FQKCM5DQ","either","7","7","","","","","","","0","0","1","","0.2607476102","0.4","0.6","0.8","0.2","0.2023019753","0.009734580702","0.4172780312","0.2607476102","","","","","","","","","","","","","","76","L","3","","","25","main_expt","",""
"","bandit","108","375990","0.0-67.0-0.0","75173917","wem/bandit_party_1","A21753FQKCM5DQ","either","7","17","","","","","","","0","0","1","","0.1887270612","0.4","0.6","0.8","0.2","0.1887270612","0.008596148908","0.3981062588","0.292589008","","","","","","","","","","","","","","72","H","0","img/none_selected.jpg","","26","main_expt","",""
"","bandit","109","377533","0.0-68.0-0.0","75173917","wem/bandit_party_1","A21753FQKCM5DQ","either","7","30","","","","","","","0","1","0","","0.2978950393","0.4","0.6","0.8","0.2","0.2526986378","0.01380650739","0.3889188119","0.2978950393","","","","","","","","","","","","","","76","L","3","","","27","main_expt","",""
"","bandit","110","379060","0.0-69.0-0.0","75173917","wem/bandit_party_1","A21753FQKCM5DQ","either","7","12","","","","","","","0","0","1","","0.2536033627","0.4","0.6","0.8","0.2","0.2536033627","0.01160852189","0.3699095679","0.337392419","","","","","","","","","","","","","","72","H","0","img/none_selected.jpg","","28","main_expt","",""
"","bandit","111","381096","0.0-70.0-0.0","75173917","wem/bandit_party_1","A21753FQKCM5DQ","either","7","511","","","","","","","0","0","1","","0.3830759015","0.4","0.6","0.8","0.2","0.258258936","0.02858314752","0.4087832773","0.3830759015","","","","","","","","","","","","","","76","L","3","","","29","main_expt","",""
"","bandit","112","382650","0.0-71.0-0.0","75173917","wem/bandit_party_1","A21753FQKCM5DQ","either","7","34","","","","","","","0","0","1","0.4162513677","","0.4","0.6","0.8","0.2","","","","","0.3152574144","0.0265596094","0.4162513677","0.3778881599","","","","","","","","","","75","K","2","","","30","main_expt","",""
"","bandit","113","386193","0.0-72.0-0.0","75173917","wem/bandit_party_1","A21753FQKCM5DQ","either","7","2010","","","","","","","0","0","1","0.02828816112","","0.4","0.6","0.8","0.2","","","","","0.3508579725","0.02828816112","0.43337534","0.3585458117","","","","","","","","","","74","J","1","","","31","main_expt","",""
"","bandit","114","387983","0.0-73.0-0.0","75173917","wem/bandit_party_1","A21753FQKCM5DQ","either","7","267","","","","","","","1","0","0","0.4399105216","","0.4","0.6","0.8","0.2","","","","","0.3902021543","0.03857304495","0.4399105216","0.3511664436","","","","","","","","","","75","K","2","","","32","main_expt","",""
"","bandit","115","389836","0.0-74.0-0.0","75173917","wem/bandit_party_1","A21753FQKCM5DQ","either","7","329","","","","","","","0","0","1","","0.3924960189","0.4","0.6","0.8","0.2","0.4112626521","0.02642959278","0.3859623535","0.3924960189","","","","","","","","","","","","","","76","L","3","","","33","main_expt","",""
"","bandit","116","391526","0.0-75.0-0.0","75173917","wem/bandit_party_1","A21753FQKCM5DQ","either","7","172","","","","","","","0","0","1","","0.3912589523","0.4","0.6","0.8","0.2","0.3912589523","0.06800028167","0.4231921331","0.3713907517","","","","","","","","","","","","","","72","H","0","img/none_selected.jpg","","34","main_expt","",""
"","bandit","117","393091","0.0-76.0-0.0","75173917","wem/bandit_party_1","A21753FQKCM5DQ","either","7","27","","","","","","","0","0","1","","0.3950458867","0.4","0.6","0.8","0.2","0.3663646496","0.05710280771","0.3950458867","0.3929004689","","","","","","","","","","","","","","75","K","2","","","35","main_expt","",""
"","bandit","118","395017","0.0-77.0-0.0","75173917","wem/bandit_party_1","A21753FQKCM5DQ","either","7","390","","","","","","","0","1","0","","0.3045225128","0.4","0.6","0.8","0.2","0.3045225128","0.07756943076","0.4005306787","0.3820467604","","","","","","","","","","","","","","72","H","0","img/none_selected.jpg","","36","main_expt","",""
"","bandit","119","396676","0.0-78.0-0.0","75173917","wem/bandit_party_1","A21753FQKCM5DQ","either","7","131","","","","","","","1","0","0","0.3972735937","","0.4","0.6","0.8","0.2","","","","","0.2806474599","0.06074629621","0.3972735937","0.3948022939","","","","","","","","","","75","K","2","","","37","main_expt","",""
"","bandit","120","398455","0.0-79.0-0.0","75173917","wem/bandit_party_1","A21753FQKCM5DQ","either","7","258","","","","","","","0","0","1","0.3558759705","","0.4","0.6","0.8","0.2","","","","","0.3558759705","0.07063042774","0.38339591","0.3769579019","","","","","","","","","","72","H","0","img/none_selected.jpg","","38","main_expt","",""
"","bandit","121","400389","0.0-80.0-0.0","75173917","wem/bandit_party_1","A21753FQKCM5DQ","either","7","298","","","","","","","0","0","1","0.3906354184","","0.4","0.6","0.8","0.2","","","","","0.3194138052","0.06209293178","0.3906354184","0.4030344636","","","","","","","","","","75","K","2","","","39","main_expt","",""
"","bandit","122","402106","0.0-81.0-0.0","75173917","wem/bandit_party_1","A21753FQKCM5DQ","either","7","189","","","","","","","0","1","0","","0.3549086085","0.4","0.6","0.8","0.2","0.3549086085","0.06952578958","0.3623676206","0.3622335218","","","","","","","","","","","","","","72","H","0","img/none_selected.jpg","","40","main_expt","",""
"","bandit","123","403875","0.0-82.0-0.0","75173917","wem/bandit_party_1","A21753FQKCM5DQ","either","7","243","","","","","","","0","0","1","0.3873704927","","0.4","0.6","0.8","0.2","","","","","0.3452113815","0.1291245709","0.3873704927","0.3911596719","","","","","","","","","","75","K","2","","","41","main_expt","",""
"","bandit","124","405498","0.0-83.0-0.0","75173917","wem/bandit_party_1","A21753FQKCM5DQ","either","7","100","","","","","","","0","1","0","","0.1174523948","0.4","0.6","0.8","0.2","0.3522960267","0.1174523948","0.359823116","0.3921858285","","","","","","","","","","","","","","74","J","1","","","42","main_expt","",""
"","bandit","125","407260","0.0-84.0-0.0","75173917","wem/bandit_party_1","A21753FQKCM5DQ","either","7","227","","","","","","","0","1","0","","0.3093122096","0.4","0.6","0.8","0.2","0.3093122096","0.1201484523","0.3710191411","0.3831213528","","","","","","","","","","","","","","72","H","0","img/none_selected.jpg","","43","main_expt","",""
"","bandit","126","409041","0.0-85.0-0.0","75173917","wem/bandit_party_1","A21753FQKCM5DQ","either","7","253","","","","","","","0","0","1","0.09958360536","","0.4","0.6","0.8","0.2","","","","","0.3026159556","0.09958360536","0.3874065465","0.3518708159","","","","","","","","","","74","J","1","","","44","main_expt","",""
"","bandit","127","410780","0.0-86.0-0.0","75173917","wem/bandit_party_1","A21753FQKCM5DQ","either","7","215","","","","","","","0","0","1","0.3336294247","","0.4","0.6","0.8","0.2","","","","","0.3336294247","0.05173655998","0.3851533971","0.3122870636","","","","","","","","","","72","H","0","img/none_selected.jpg","","45","main_expt","",""
"","bandit","128","412570","0.0-87.0-0.0","75173917","wem/bandit_party_1","A21753FQKCM5DQ","either","7","269","","","","","","","0","0","1","0.2635721956","","0.4","0.6","0.8","0.2","","","","","0.3400222736","0.05945041096","0.4055883719","0.2635721956","","","","","","","","","","76","L","3","","","46","main_expt","",""
"","bandit","129","414184","0.0-88.0-0.0","75173917","wem/bandit_party_1","A21753FQKCM5DQ","either","7","96","","","","","","","1","0","0","0.328707825","","0.4","0.6","0.8","0.2","","","","","0.328707825","0.04375763727","0.3671593179","0.2856785865","","","","","","","","","","72","H","0","img/none_selected.jpg","","47","main_expt","",""
"","bandit","130","415942","0.0-89.0-0.0","75173917","wem/bandit_party_1","A21753FQKCM5DQ","either","7","233","","","","","","","0","0","1","0.0666370861","","0.4","0.6","0.8","0.2","","","","","0.3307690822","0.0666370861","0.3198203038","0.2649087478","","","","","","","","","","74","J","1","","","48","main_expt","",""
"","bandit","131","417498","0.0-90.0-0.0","75173917","wem/bandit_party_1","A21753FQKCM5DQ","either","7","22","","","","","","","0","0","1","0.3111357295","","0.4","0.6","0.8","0.2","","","","","0.3438067684","0.08266213623","0.3111357295","0.2462979357","","","","","","","","","","75","K","2","","","49","main_expt","",""
"","bandit","132","419632","0.0-91.0-0.0","75173917","wem/bandit_party_1","A21753FQKCM5DQ","either","7","595","","","","","","","0","0","1","","0.4037002216","0.4","0.6","0.8","0.2","0.4037002216","0.08795051988","0.3196682981","0.2490076798","","","","","","","","","","","","","","72","H","0","img/none_selected.jpg","","50","main_expt","",""
"","bandit","133","421503","0.0-92.0-0.0","75173917","wem/bandit_party_1","A21753FQKCM5DQ","either","7","90","","","","","","","0","0","1","","0.305209751","0.4","0.6","0.8","0.2","0.3557518394","0.07533366945","0.3088596379","0.305209751","","","","","","","","","","","","","","76","L","3","","","51","main_expt","",""
"","bandit","134","423353","0.0-93.0-0.0","75173917","wem/bandit_party_1","A21753FQKCM5DQ","either","7","328","","","","","","","0","0","1","0.3254324358","","0.4","0.6","0.8","0.2","","","","","0.3254324358","0.06506638851","0.3060924957","0.3087204988","","","","","","","","","","72","H","0","img/none_selected.jpg","","52","main_expt","",""
"","bandit","135","425114","0.0-94.0-0.0","75173917","wem/bandit_party_1","A21753FQKCM5DQ","either","7","240","","","","","","","0","0","1","","0.06562792832","0.4","0.6","0.8","0.2","0.2952150256","0.06562792832","0.3229319808","0.2984188648","","","","","","","","","","","","","","74","J","1","","","53","main_expt","",""
"","bandit","136","426922","0.0-95.0-0.0","75173917","wem/bandit_party_1","A21753FQKCM5DQ","either","7","280","","","","","","","0","0","1","0.3280138586","","0.4","0.6","0.8","0.2","","","","","0.300320608","0.04630081711","0.3280138586","0.3353917468","","","","","","","","","","75","K","2","","","54","main_expt","",""
"","bandit","137","428527","0.0-96.0-0.0","75173917","wem/bandit_party_1","A21753FQKCM5DQ","either","7","90","","","","","","","0","0","1","0.3259144651","","0.4","0.6","0.8","0.2","","","","","0.2985084879","0.03868373719","0.2777260571","0.3259144651","","","","","","","","","","76","L","3","","","55","main_expt","",""
"","bandit","138","430080","0.0-97.0-0.0","75173917","wem/bandit_party_1","A21753FQKCM5DQ","either","7","34","","","","","","","0","0","1","0.06235362297","","0.4","0.6","0.8","0.2","","","","","0.2607009345","0.06235362297","0.1791004868","0.3259049121","","","","","","","","","","74","J","1","","","56","main_expt","",""
"","bandit","139","432386","0.0-98.0-0.0","75173917","wem/bandit_party_1","A21753FQKCM5DQ","either","7","785","","","","","","","0","0","1","","0.2565854794","0.4","0.6","0.8","0.2","0.2565854794","0.04639461243","0.2182265394","0.3687904078","","","","","","","","","","","","","","72","H","0","img/none_selected.jpg","","57","main_expt","",""
"","bandit","140","434015","0.0-99.0-0.0","75173917","wem/bandit_party_1","A21753FQKCM5DQ","either","7","112","","","","","","","0","0","1","0.08954448139","","0.4","0.6","0.8","0.2","","","","","0.319121847","0.08954448139","0.2970860181","0.3422038875","","","","","","","","","","74","J","1","","","58","main_expt","",""
"","bandit","141","435624","0.0-100.0-0.0","75173917","wem/bandit_party_1","A21753FQKCM5DQ","either","7","90","","","","","","","0","0","1","0.3269923399","","0.4","0.6","0.8","0.2","","","","","0.3269923399","0.07390342289","0.3249685468","0.3771421139","","","","","","","","","","72","H","0","img/none_selected.jpg","","59","main_expt","",""
"","bandit","142","437841","0.0-101.0-0.0","75173917","wem/bandit_party_1","A21753FQKCM5DQ","either","7","700","","","","","","","0","0","1","0.3620124399","","0.4","0.6","0.8","0.2","","","","","0.3150968823","0.05801548519","0.2931470039","0.3620124399","","","","","","","","","","76","L","3","","","60","main_expt","",""
"","bandit","143","439623","0.0-102.0-0.0","75173917","wem/bandit_party_1","A21753FQKCM5DQ","either","7","211","","","","","","","1","0","0","0.2646536279","","0.4","0.6","0.8","0.2","","","","","0.324539239","0.07333263924","0.2646536279","0.3958116198","","","","","","","","","","75","K","2","","","61","main_expt","",""
"","bandit","144","441412","0.0-103.0-0.0","75173917","wem/bandit_party_1","A21753FQKCM5DQ","either","7","266","","","","","","","1","0","0","0.3615218546","","0.4","0.6","0.8","0.2","","","","","0.3066306166","0.07563430262","0.242461968","0.3615218546","","","","","","","","","","76","L","3","","","62","main_expt","",""
"","bandit","145","443265","0.0-104.0-0.0","75173917","wem/bandit_party_1","A21753FQKCM5DQ","either","7","333","","","","","","","0","0","1","0.2206683029","","0.4","0.6","0.8","0.2","","","","","0.3068900116","0.06826526778","0.2206683029","0.3574266064","","","","","","","","","","75","K","2","","","63","main_expt","",""
"","bandit","146","445141","0.0-105.0-0.0","75173917","wem/bandit_party_1","A21753FQKCM5DQ","either","7","361","","","","","","","0","0","1","0.3541915859","","0.4","0.6","0.8","0.2","","","","","0.2936494982","0.1175271989","0.2288959862","0.3541915859","","","","","","","","","","76","L","3","","","64","main_expt","",""
"","bandit","147","446717","0.0-106.0-0.0","75173917","wem/bandit_party_1","A21753FQKCM5DQ","either","7","39","","","","","","","0","0","1","","0.2346523549","0.4","0.6","0.8","0.2","0.290236101","0.1273865191","0.2346523549","0.3339820985","","","","","","","","","","","","","","75","K","2","","","65","main_expt","",""
"","bandit","148","448442","0.0-107.0-0.0","75173917","wem/bandit_party_1","A21753FQKCM5DQ","either","7","207","","","","","","","0","0","1","","0.3195467083","0.4","0.6","0.8","0.2","0.2512036594","0.09075088943","0.1881688105","0.3195467083","","","","","","","","","","","","","","76","L","3","","","66","main_expt","",""
"","bandit","149","450396","0.0-108.0-0.0","75173917","wem/bandit_party_1","A21753FQKCM5DQ","either","7","433","","","","","","","1","0","0","0.231043846","","0.4","0.6","0.8","0.2","","","","","0.263747572","0.08077075725","0.231043846","0.3477383846","","","","","","","","","","75","K","2","","","67","main_expt","",""
"","bandit","150","452044","0.0-109.0-0.0","75173917","wem/bandit_party_1","A21753FQKCM5DQ","either","7","110","","","","","","","0","0","1","","0.08810311296","0.4","0.6","0.8","0.2","0.2892519303","0.08810311296","0.2576664243","0.3365352069","","","","","","","","","","","","","","74","J","1","","","68","main_expt","",""
"","bandit","151","453574","0.0-110.0-0.0","75173917","wem/bandit_party_1","A21753FQKCM5DQ","either","7","8","","","","","","","0","0","1","","0.2183283259","0.4","0.6","0.8","0.2","0.2383664846","0.1260156682","0.2183283259","0.3148812039","","","","","","","","","","","","","","75","K","2","","","69","main_expt","",""
"","bandit","152","455112","0.0-111.0-0.0","75173917","wem/bandit_party_1","A21753FQKCM5DQ","either","7","18","","","","","","","0","0","1","0.2497111545","","0.4","0.6","0.8","0.2","","","","","0.2497111545","0.08773951932","0.2260484764","0.3154014692","","","","","","","","","","72","H","0","img/none_selected.jpg","","70","main_expt","",""
"","bandit","153","456652","0.0-112.0-0.0","75173917","wem/bandit_party_1","A21753FQKCM5DQ","either","7","8","","","","","","","0","0","1","0.3196469567","","0.4","0.6","0.8","0.2","","","","","0.2095843002","0.1154304285","0.3196469567","0.219815459","","","","","","","","","","75","K","2","","","71","main_expt","",""
"","bandit","154","458389","0.0-113.0-0.0","75173917","wem/bandit_party_1","A21753FQKCM5DQ","either","7","205","","","","","","","0","0","1","0.1972488467","","0.4","0.6","0.8","0.2","","","","","0.1972488467","0.10097247","0.3644141189","0.2623730272","","","","","","","","","","72","H","0","img/none_selected.jpg","","72","main_expt","",""
"","bandit","155","460405","0.0-114.0-0.0","75173917","wem/bandit_party_1","A21753FQKCM5DQ","either","7","441","","","","","","","0","0","1","0.4081842109","","0.4","0.6","0.8","0.2","","","","","0.15494396","0.0746930591","0.4081842109","0.2639805735","","","","","","","","","","75","K","2","","","73","main_expt","",""
"","bandit","156","462240","0.0-115.0-0.0","75173917","wem/bandit_party_1","A21753FQKCM5DQ","either","7","320","","","","","","","0","0","1","0.2770925356","","0.4","0.6","0.8","0.2","","","","","0.1324790415","0.1124392477","0.4506698749","0.2770925356","","","","","","","","","","76","L","3","","","74","main_expt","",""
"","bandit","157","463991","0.0-116.0-0.0","75173917","wem/bandit_party_1","A21753FQKCM5DQ","either","7","233","","","","","","","0","0","1","","0.454520075","0.4","0.6","0.8","0.2","0.179195356","0.113494578","0.454520075","0.2796652475","","","","","","","","","","","","","","75","K","2","","","75","main_expt","",""
"","bandit","158","466127","0.0-117.0-0.0","75173917","wem/bandit_party_1","A21753FQKCM5DQ","either","7","300","","","","","","","0","1","0","","0.3153427244","0.4","0.6","0.8","0.2","0.215808919","0.1469344428","0.466199952","0.3153427244","","","","","","","","","","","","","","76","L","3","","","76","main_expt","",""
"","bandit","159","467764","0.0-118.0-0.0","75173917","wem/bandit_party_1","A21753FQKCM5DQ","either","7","102","","","","","","","0","0","1","0.4402141775","","0.4","0.6","0.8","0.2","","","","","0.2312347408","0.2152215887","0.4402141775","0.3676911864","","","","","","","","","","75","K","2","","","77","main_expt","",""
"","bandit","160","470000","0.0-119.0-0.0","75173917","wem/bandit_party_1","A21753FQKCM5DQ","either","7","709","","","","","","","0","0","1","0.2055177618","","0.4","0.6","0.8","0.2","","","","","0.2197025874","0.2055177618","0.4525957793","0.3434277392","","","","","","","","","","74","J","1","","","78","main_expt","",""
"","bandit","161","471647","0.0-120.0-0.0","75173917","wem/bandit_party_1","A21753FQKCM5DQ","either","7","119","","","","","","","0","0","1","","0.2227420924","0.4","0.6","0.8","0.2","0.2227420924","0.222262525","0.4630799716","0.3758616161","","","","","","","","","","","","","","72","H","0","img/none_selected.jpg","","79","main_expt","",""
"","bandit","162","473250","0.0-121.0-0.0","75173917","wem/bandit_party_1","A21753FQKCM5DQ","either","7","70","","","","","","","1","0","0","0.423693353","","0.4","0.6","0.8","0.2","","","","","0.2283057493","0.2700860438","0.423693353","0.3862393514","","","","","","","","","","75","K","2","","","80","main_expt","",""
"","bandit","163","474993","0.0-122.0-0.0","75173917","wem/bandit_party_1","A21753FQKCM5DQ","either","7","203","","","","","","","0","1","0","","0.3593770893","0.4","0.6","0.8","0.2","0.2721525977","0.2642688004","0.4319112677","0.3593770893","","","","","","","","","","","","","","76","L","3","","","81","main_expt","",""
"","bandit","164","476657","0.0-123.0-0.0","75173917","wem/bandit_party_1","A21753FQKCM5DQ","either","7","145","","","","","","","0","0","1","","0.441827487","0.4","0.6","0.8","0.2","0.2850237184","0.2824164754","0.441827487","0.4035110645","","","","","","","","","","","","","","75","K","2","","","82","main_expt","",""
"","bandit","165","478331","0.0-124.0-0.0","75173917","wem/bandit_party_1","A21753FQKCM5DQ","either","7","151","","","","","","","0","0","1","","0.3719627038","0.4","0.6","0.8","0.2","0.3236436683","0.2819095575","0.4288861504","0.3719627038","","","","","","","","","","","","","","76","L","3","","","83","main_expt","",""
"","bandit","166","479942","0.0-125.0-0.0","75173917","wem/bandit_party_1","A21753FQKCM5DQ","either","7","87","","","","","","","0","0","1","0.4350385517","","0.4","0.6","0.8","0.2","","","","","0.3339638593","0.2589745902","0.4350385517","0.3349288927","","","","","","","","","","75","K","2","","","84","main_expt","",""
"","bandit","167","482123","0.0-126.0-0.0","75173917","wem/bandit_party_1","A21753FQKCM5DQ","either","7","649","","","","","","","0","1","0","","0.3626504113","0.4","0.6","0.8","0.2","0.3795022601","0.3626504113","0.4255505645","0.3247899262","","","","","","","","","","","","","","74","J","1","","","85","main_expt","",""
"","bandit","168","483967","0.0-127.0-0.0","75173917","wem/bandit_party_1","A21753FQKCM5DQ","either","7","275","","","","","","","1","0","0","0.3835523064","","0.4","0.6","0.8","0.2","","","","","0.3835523064","0.3598915268","0.4330938692","0.3443557019","","","","","","","","","","72","H","0","img/none_selected.jpg","","86","main_expt","",""
"","bandit","169","485632","0.0-128.0-0.0","75173917","wem/bandit_party_1","A21753FQKCM5DQ","either","7","146","","","","","","","1","0","0","0.3433052933","","0.4","0.6","0.8","0.2","","","","","0.3772514457","0.3433052933","0.4548398529","0.3648776167","","","","","","","","","","74","J","1","","","87","main_expt","",""
"","bandit","170","487593","0.0-129.0-0.0","75173917","wem/bandit_party_1","A21753FQKCM5DQ","either","7","240","","","","","","","0","0","1","0.3766830519","","0.4","0.6","0.8","0.2","","","","","0.3766830519","0.4022938878","0.4493124031","0.3609631839","","","","","","","","","","72","H","0","img/none_selected.jpg","","88","main_expt","",""
"","bandit","171","489467","0.0-130.0-0.0","75173917","wem/bandit_party_1","A21753FQKCM5DQ","either","7","328","","","","","","","0","1","0","","0.4141493151","0.4","0.6","0.8","0.2","0.3537755119","0.4141493151","0.4161110063","0.3636167192","","","","","","","","","","","","","","74","J","1","","","89","main_expt","",""
"","bandit","172","491223","0.0-131.0-0.0","75173917","wem/bandit_party_1","A21753FQKCM5DQ","either","7","218","","","","","","","0","0","1","0.405260856","","0.4","0.6","0.8","0.2","","","","","0.3014761449","0.4136124289","0.405260856","0.3563441379","","","","","","","","","","75","K","2","","","90","main_expt","",""
"","bandit","173","492844","0.0-132.0-0.0","75173917","wem/bandit_party_1","A21753FQKCM5DQ","either","7","92","","","","","","","0","0","1","","0.4184852842","0.4","0.6","0.8","0.2","0.2694038268","0.4184852842","0.3827048226","0.3389138503","","","","","","","","","","","","","","74","J","1","","","91","main_expt","",""
"","bandit","174","494394","0.0-133.0-0.0","75173917","wem/bandit_party_1","A21753FQKCM5DQ","either","7","31","","","","","","","0","0","1","","0.3263360165","0.4","0.6","0.8","0.2","0.2651536323","0.4456808576","0.3552182969","0.3263360165","","","","","","","","","","","","","","76","L","3","","","92","main_expt","",""
"","bandit","175","496215","0.0-134.0-0.0","75173917","wem/bandit_party_1","A21753FQKCM5DQ","either","7","305","","","","","","","0","0","1","","0.1997208586","0.4","0.6","0.8","0.2","0.1997208586","0.4355219805","0.3286897504","0.2844131911","","","","","","","","","","","","","","72","H","0","img/none_selected.jpg","","93","main_expt","",""
"","bandit","176","497935","0.0-135.0-0.0","75173917","wem/bandit_party_1","A21753FQKCM5DQ","either","7","202","","","","","","","0","1","0","","0.4609821192","0.4","0.6","0.8","0.2","0.2442555344","0.4609821192","0.3422490236","0.2978465223","","","","","","","","","","","","","","74","J","1","","","94","main_expt","",""
"","bandit","177","499625","0.0-136.0-0.0","75173917","wem/bandit_party_1","A21753FQKCM5DQ","either","7","159","","","","","","","1","0","0","0.2638839348","","0.4","0.6","0.8","0.2","","","","","0.2638839348","0.4419374505","0.3160161054","0.2638723705","","","","","","","","","","72","H","0","img/none_selected.jpg","","95","main_expt","",""
"","bandit","178","501510","0.0-137.0-0.0","75173917","wem/bandit_party_1","A21753FQKCM5DQ","either","7","247","","","","","","","0","0","1","0.39438674","","0.4","0.6","0.8","0.2","","","","","0.2265245807","0.39438674","0.2945538732","0.2276010735","","","","","","","","","","74","J","1","","","96","main_expt","",""
"","bandit","179","503294","0.0-138.0-0.0","75173917","wem/bandit_party_1","A21753FQKCM5DQ","either","7","233","","","","","","","0","0","1","0.1969189177","","0.4","0.6","0.8","0.2","","","","","0.1969189177","0.3617668419","0.393563827","0.2045446072","","","","","","","","","","72","H","0","img/none_selected.jpg","","97","main_expt","",""
"","bandit","180","504921","0.0-139.0-0.0","75173917","wem/bandit_party_1","A21753FQKCM5DQ","either","7","110","","","","","","","0","0","1","","0.3737913853","0.4","0.6","0.8","0.2","0.1761144245","0.3737913853","0.4046254927","0.2436418828","","","","","","","","","","","","","","74","J","1","","","98","main_expt","",""
"","bandit","181","506690","0.0-140.0-0.0","75173917","wem/bandit_party_1","A21753FQKCM5DQ","either","7","228","","","","","","","0","0","1","","0.1211630765","0.4","0.6","0.8","0.2","0.1211630765","0.4221129479","0.3659012549","0.2473144087","","","","","","","","","","","","","","72","H","0","img/none_selected.jpg","","99","main_expt","",""
"","bandit","182","508247","0.0-141.0-0.0","75173917","wem/bandit_party_1","A21753FQKCM5DQ","either","7","25","","","","","","","1","0","0","0.400368336","","0.4","0.6","0.8","0.2","","","","","0.1257326749","0.3857893684","0.400368336","0.2707360286","","","","","","","","","","75","K","2","","","100","main_expt","",""
"","bandit","183","510121","0.0-142.0-0.0","75173917","wem/bandit_party_1","A21753FQKCM5DQ","either","7","355","","","","","","","0","0","1","","0.3635527264","0.4","0.6","0.8","0.2","0.09975532208","0.3635527264","0.4367931528","0.3250409822","","","","","","","","","","","","","","74","J","1","","","101","main_expt","",""
"","bandit","184","511809","0.0-143.0-0.0","75173917","wem/bandit_party_1","A21753FQKCM5DQ","either","7","80","","","","","","","0","0","1","0.4371155326","","0.4","0.6","0.8","0.2","","","","","0.1127414424","0.3738375489","0.4371155326","0.3088580598","","","","","","","","","","75","K","2","","","102","main_expt","",""
"","bandit","185","513345","0.0-144.0-0.0","75173917","wem/bandit_party_1","A21753FQKCM5DQ","either","7","15","","","","","","","0","0","1","","0.2901001995","0.4","0.6","0.8","0.2","0.1232600734","0.3860163181","0.388648264","0.2901001995","","","","","","","","","","","","","","76","L","3","","","103","main_expt","",""
"","bandit","186","514976","0.0-145.0-0.0","75173917","wem/bandit_party_1","A21753FQKCM5DQ","either","7","97","","","","","","","0","1","0","","0.3718469433","0.4","0.6","0.8","0.2","0.08156843846","0.390692362","0.3718469433","0.309645936","","","","","","","","","","","","","","75","K","2","","","104","main_expt","",""
"","bandit","187","516646","0.0-146.0-0.0","75173917","wem/bandit_party_1","A21753FQKCM5DQ","either","7","97","","","","","","","1","0","0","0.3386062745","","0.4","0.6","0.8","0.2","","","","","0.08245659199","0.4139082553","0.3920304628","0.3386062745","","","","","","","","","","76","L","3","","","105","main_expt","",""
"","bandit","188","518551","0.0-147.0-0.0","75173917","wem/bandit_party_1","A21753FQKCM5DQ","either","7","379","","","","","","","0","1","0","","0.3733497125","0.4","0.6","0.8","0.2","0.1276639339","0.3295275825","0.3733497125","0.3827539061","","","","","","","","","","","","","","75","K","2","","","106","main_expt","",""
"","bandit","189","520164","0.0-148.0-0.0","75173917","wem/bandit_party_1","A21753FQKCM5DQ","either","7","89","","","","","","","1","0","0","0.3499712774","","0.4","0.6","0.8","0.2","","","","","0.1812689745","0.3499712774","0.3878439861","0.3401355396","","","","","","","","","","74","J","1","","","107","main_expt","",""
"","bandit","190","521951","0.0-149.0-0.0","75173917","wem/bandit_party_1","A21753FQKCM5DQ","either","7","249","","","","","","","0","0","1","0.3529013302","","0.4","0.6","0.8","0.2","","","","","0.2187982558","0.2666891207","0.3529013302","0.3258039352","","","","","","","","","","75","K","2","","","108","main_expt","",""
"","bandit","191","523579","0.0-150.0-0.0","75173917","wem/bandit_party_1","A21753FQKCM5DQ","either","7","98","","","","","","","0","1","0","","0.2201216928","0.4","0.6","0.8","0.2","0.2201216928","0.2575067634","0.3457683734","0.374919859","","","","","","","","","","","","","","72","H","0","img/none_selected.jpg","","109","main_expt","",""
"","bandit","192","525206","0.0-151.0-0.0","75173917","wem/bandit_party_1","A21753FQKCM5DQ","either","7","104","","","","","","","0","1","0","","0.3656186065","0.4","0.6","0.8","0.2","0.1789817232","0.2664913793","0.3316873257","0.3656186065","","","","","","","","","","","","","","76","L","3","","","110","main_expt","",""
"","bandit","193","526757","0.0-152.0-0.0","75173917","wem/bandit_party_1","A21753FQKCM5DQ","either","7","18","","","","","","","0","0","1","0.2404947452","","0.4","0.6","0.8","0.2","","","","","0.2404947452","0.2233446911","0.3434945318","0.3649701027","","","","","","","","","","72","H","0","img/none_selected.jpg","","111","main_expt","",""
"","bandit","194","528369","0.0-153.0-0.0","75173917","wem/bandit_party_1","A21753FQKCM5DQ","either","7","78","","","","","","","0","0","1","","0.2729480053","0.4","0.6","0.8","0.2","0.2959558532","0.2170082082","0.2729480053","0.3371716456","","","","","","","","","","","","","","75","K","2","","","112","main_expt","",""
"","bandit","195","529914","0.0-154.0-0.0","75173917","wem/bandit_party_1","A21753FQKCM5DQ","either","7","21","","","","","","","1","0","0","0.2966985553","","0.4","0.6","0.8","0.2","","","","","0.2966985553","0.1912277411","0.2579672073","0.2587224119","","","","","","","","","","72","H","0","img/none_selected.jpg","","113","main_expt","",""
"","bandit","196","531700","0.0-155.0-0.0","75173917","wem/bandit_party_1","A21753FQKCM5DQ","either","7","179","","","","","","","0","0","1","0.2384324947","","0.4","0.6","0.8","0.2","","","","","0.3289730608","0.1691995451","0.24654084","0.2384324947","","","","","","","","","","76","L","3","","","114","main_expt","",""
"","bandit","197","533980","0.0-156.0-0.0","75173917","wem/bandit_party_1","A21753FQKCM5DQ","either","7","680","","","","","","","0","1","0","","0.1263730162","0.4","0.6","0.8","0.2","0.2783705844","0.1263730162","0.246649757","0.2705755989","","","","","","","","","","","","","","74","J","1","","","115","main_expt","",""
"","bandit","198","535792","0.0-157.0-0.0","75173917","wem/bandit_party_1","A21753FQKCM5DQ","either","7","285","","","","","","","0","0","1","0.2990421824","","0.4","0.6","0.8","0.2","","","","","0.2990421824","0.1130092975","0.2190482835","0.2666822","","","","","","","","","","72","H","0","img/none_selected.jpg","","116","main_expt","",""
"","bandit","199","537359","0.0-158.0-0.0","75173917","wem/bandit_party_1","A21753FQKCM5DQ","either","7","37","","","","","","","0","0","1","0.1860086181","","0.4","0.6","0.8","0.2","","","","","0.3214730448","0.1317362661","0.1860086181","0.2664749026","","","","","","","","","","75","K","2","","","117","main_expt","",""
"","bandit","200","539091","0.0-159.0-0.0","75173917","wem/bandit_party_1","A21753FQKCM5DQ","either","7","203","","","","","","","0","0","1","","0.3996160597","0.4","0.6","0.8","0.2","0.3996160597","0.08460291254","0.1765749983","0.285497096","","","","","","","","","","","","","","72","H","0","img/none_selected.jpg","","118","main_expt","",""
"","bandit","201","540984","0.0-160.0-0.0","75173917","wem/bandit_party_1","A21753FQKCM5DQ","either","7","362","","","","","","","0","0","1","0.09168363065","","0.4","0.6","0.8","0.2","","","","","0.4143362638","0.09168363065","0.1840588368","0.3004427434","","","","","","","","","","74","J","1","","","119","main_expt","",""
"","bandit","202","542763","0.0-161.0-0.0","75173917","wem/bandit_party_1","A21753FQKCM5DQ","either","7","253","","","","","","","1","0","0","0.2419855731","","0.4","0.6","0.8","0.2","","","","","0.372340151","0.06729372802","0.1988357929","0.2419855731","","","","","","","","","","76","L","3","","","120","main_expt","",""
"","bandit","203","544347","0.0-162.0-0.0","75173917","wem/bandit_party_1","A21753FQKCM5DQ","either","7","61","","","","","","","1","0","0","0.2315674","","0.4","0.6","0.8","0.2","","","","","0.3910424524","0.08346408207","0.2315674","0.3054132847","","","","","","","","","","75","K","2","","","121","main_expt","",""
"","bandit","204","546078","0.0-163.0-0.0","75173917","wem/bandit_party_1","A21753FQKCM5DQ","either","7","207","","","","","","","0","1","0","","0.2473202095","0.4","0.6","0.8","0.2","0.3813410711","0.05632743158","0.2041322171","0.2473202095","","","","","","","","","","","","","","76","L","3","","","122","main_expt","",""
"","bandit","205","547770","0.0-164.0-0.0","75173917","wem/bandit_party_1","A21753FQKCM5DQ","either","7","172","","","","","","","0","0","1","0.1945268209","","0.4","0.6","0.8","0.2","","","","","0.4247291795","0.05516745574","0.1945268209","0.2909195989","","","","","","","","","","75","K","2","","","123","main_expt","",""
"","bandit","206","549590","0.0-165.0-0.0","75173917","wem/bandit_party_1","A21753FQKCM5DQ","either","7","257","","","","","","","0","1","0","","0.4311179713","0.4","0.6","0.8","0.2","0.4311179713","0.05528311039","0.2206749142","0.3493750294","","","","","","","","","","","","","","72","H","0","img/none_selected.jpg","","124","main_expt","",""
"","bandit","207","551429","0.0-166.0-0.0","75173917","wem/bandit_party_1","A21753FQKCM5DQ","either","7","309","","","","","","","0","0","1","0.07149807259","","0.4","0.6","0.8","0.2","","","","","0.4085782939","0.07149807259","0.212012295","0.3883668019","","","","","","","","","","74","J","1","","","125","main_expt","",""
"","bandit","208","553188","0.0-167.0-0.0","75173917","wem/bandit_party_1","A21753FQKCM5DQ","either","7","237","","","","","","","0","0","1","0.4110861309","","0.4","0.6","0.8","0.2","","","","","0.4110861309","0.1137803622","0.1656684785","0.3888129637","","","","","","","","","","72","H","0","img/none_selected.jpg","","126","main_expt","",""
"","bandit","209","554747","0.0-168.0-0.0","75173917","wem/bandit_party_1","A21753FQKCM5DQ","either","7","31","","","","","","","0","1","0","","0.3659195129","0.4","0.6","0.8","0.2","0.4214671818","0.1003054442","0.1685301808","0.3659195129","","","","","","","","","","","","","","76","L","3","","","127","main_expt","",""
"","bandit","210","556460","0.0-169.0-0.0","75173917","wem/bandit_party_1","A21753FQKCM5DQ","either","7","190","","","","","","","0","0","1","0.1703551811","","0.4","0.6","0.8","0.2","","","","","0.36889317","0.1378169536","0.1703551811","0.3689954399","","","","","","","","","","75","K","2","","","128","main_expt","",""
"","bandit","211","558654","0.0-170.0-0.0","75173917","wem/bandit_party_1","A21753FQKCM5DQ","either","7","415","","","","","","","0","0","1","","0.3600340942","0.4","0.6","0.8","0.2","0.3840267129","0.1333081235","0.1624753709","0.3600340942","","","","","","","","","","","","","","76","L","3","","","129","main_expt","",""
"","bandit","212","560171","0.0-171.0-0.0","75173917","wem/bandit_party_1","A21753FQKCM5DQ","either","7","2","","","","","","","0","0","1","","0.2335662737","0.4","0.6","0.8","0.2","0.3809677701","0.1682212827","0.2335662737","0.3580797835","","","","","","","","","","","","","","75","K","2","","","130","main_expt","",""
"","bandit","213","561786","0.0-172.0-0.0","75173917","wem/bandit_party_1","A21753FQKCM5DQ","either","7","95","","","","","","","0","0","1","0.3785893338","","0.4","0.6","0.8","0.2","","","","","0.3681933818","0.2193829955","0.240441026","0.3785893338","","","","","","","","","","76","L","3","","","131","main_expt","",""
"","bandit","214","563676","0.0-173.0-0.0","75173917","wem/bandit_party_1","A21753FQKCM5DQ","either","7","367","","","","","","","0","0","1","0.2266699971","","0.4","0.6","0.8","0.2","","","","","0.3664045944","0.2693349046","0.2266699971","0.3764735404","","","","","","","","","","75","K","2","","","132","main_expt","",""
"","bandit","215","565668","0.0-174.0-0.0","75173917","wem/bandit_party_1","A21753FQKCM5DQ","either","7","471","","","","","","","0","0","1","","0.2576546077","0.4","0.6","0.8","0.2","0.4046437197","0.2576546077","0.1994193025","0.3433534211","","","","","","","","","","","","","","74","J","1","","","133","main_expt","",""
"","bandit","216","567510","0.0-175.0-0.0","75173917","wem/bandit_party_1","A21753FQKCM5DQ","either","7","319","","","","","","","0","0","1","","0.364490756","0.4","0.6","0.8","0.2","0.364490756","0.2412372273","0.1891464922","0.3606247271","","","","","","","","","","","","","","72","H","0","img/none_selected.jpg","","134","main_expt","",""
"","bandit","217","569107","0.0-176.0-0.0","75173917","wem/bandit_party_1","A21753FQKCM5DQ","either","7","66","","","","","","","0","0","1","","0.3268624306","0.4","0.6","0.8","0.2","0.311914316","0.2198641054","0.1614798668","0.3268624306","","","","","","","","","","","","","","76","L","3","","","135","main_expt","",""
"","bandit","218","570625","0.0-177.0-0.0","75173917","wem/bandit_party_1","A21753FQKCM5DQ","either","7","1","","","","","","","1","0","0","0.2653901568","","0.4","0.6","0.8","0.2","","","","","0.2653901568","0.2504132697","0.1880386222","0.2854606769","","","","","","","","","","72","H","0","img/none_selected.jpg","","136","main_expt","",""
"","bandit","219","572250","0.0-178.0-0.0","75173917","wem/bandit_party_1","A21753FQKCM5DQ","either","7","43","","","","","","","0","0","1","0.1912230989","","0.4","0.6","0.8","0.2","","","","","0.2413295316","0.1912230989","0.1961818793","0.3311747399","","","","","","","","","","74","J","1","","","137","main_expt","",""
"","bandit","220","574238","0.0-179.0-0.0","75173917","wem/bandit_party_1","A21753FQKCM5DQ","either","7","137","","","","","","","0","0","1","0.2060295423","","0.4","0.6","0.8","0.2","","","","","0.2060295423","0.1576256809","0.2857678963","0.2570785188","","","","","","","","","","72","H","0","img/none_selected.jpg","","138","main_expt","",""
"","bandit","221","576223","0.0-180.0-0.0","75173917","wem/bandit_party_1","A21753FQKCM5DQ","either","7","469","","","","","","","1","0","0","0.3449131854","","0.4","0.6","0.8","0.2","","","","","0.1809645164","0.1019788138","0.3449131854","0.2858060749","","","","","","","","","","75","K","2","","","139","main_expt","",""
"","bandit","222","577996","0.0-181.0-0.0","75173917","wem/bandit_party_1","A21753FQKCM5DQ","either","7","254","","","","","","","0","0","1","","0.1843216893","0.4","0.6","0.8","0.2","0.1843216893","0.07754087054","0.2537716732","0.2975559752","","","","","","","","","","","","","","72","H","0","img/none_selected.jpg","","140","main_expt","",""
"","bandit","223","579667","0.0-182.0-0.0","75173917","wem/bandit_party_1","A21753FQKCM5DQ","either","7","150","","","","","","","0","0","1","0.2858111263","","0.4","0.6","0.8","0.2","","","","","0.1651876155","0.09489610577","0.2858111263","0.2802168405","","","","","","","","","","75","K","2","","","141","main_expt","",""
"","bandit","224","581503","0.0-183.0-0.0","75173917","wem/bandit_party_1","A21753FQKCM5DQ","either","7","311","","","","","","","0","0","1","0.1536427928","","0.4","0.6","0.8","0.2","","","","","0.1536427928","0.09601428546","0.303049367","0.2231986748","","","","","","","","","","72","H","0","img/none_selected.jpg","","142","main_expt","",""
"","bandit","225","583130","0.0-184.0-0.0","75173917","wem/bandit_party_1","A21753FQKCM5DQ","either","7","100","","","","","","","0","0","1","","0.2032880393","0.4","0.6","0.8","0.2","0.1546140226","0.08301142993","0.2969419413","0.2032880393","","","","","","","","","","","","","","76","L","3","","","143","main_expt","",""
"","bandit","226","585307","0.0-185.0-0.0","75173917","wem/bandit_party_1","A21753FQKCM5DQ","either","7","653","","","","","","","0","0","1","0.09599686985","","0.4","0.6","0.8","0.2","","","","","0.1746031107","0.09599686985","0.3128690494","0.1967741464","","","","","","","","","","74","J","1","","","144","main_expt","",""
"","bandit","227","586986","0.0-186.0-0.0","75173917","wem/bandit_party_1","A21753FQKCM5DQ","either","7","159","","","","","","","1","0","0","0.2991796355","","0.4","0.6","0.8","0.2","","","","","0.2021387556","0.07499383622","0.2991796355","0.2283154954","","","","","","","","","","75","K","2","","","145","main_expt","",""
"","bandit","228","588683","0.0-187.0-0.0","75173917","wem/bandit_party_1","A21753FQKCM5DQ","either","7","176","","","","","","","0","1","0","","0.2504344391","0.4","0.6","0.8","0.2","0.2504344391","0.09566861","0.3163763193","0.2118700154","","","","","","","","","","","","","","72","H","0","img/none_selected.jpg","","146","main_expt","",""
"","bandit","229","590230","0.0-188.0-0.0","75173917","wem/bandit_party_1","A21753FQKCM5DQ","either","7","30","","","","","","","0","1","0","","0.3198025905","0.4","0.6","0.8","0.2","0.2437718569","0.08578591382","0.3198025905","0.210437557","","","","","","","","","","","","","","75","K","2","","","147","main_expt","",""
"","bandit","230","592222","0.0-189.0-0.0","75173917","wem/bandit_party_1","A21753FQKCM5DQ","either","7","470","","","","","","","0","1","0","","0.2370661354","0.4","0.6","0.8","0.2","0.2446677265","0.1147887709","0.2588245921","0.2370661354","","","","","","","","","","","","","","76","L","3","","","148","main_expt","",""
"","bandit","231","593899","0.0-190.0-0.0","75173917","wem/bandit_party_1","A21753FQKCM5DQ","either","7","132","","","","","","","1","0","0","0.2911002833","","0.4","0.6","0.8","0.2","","","","","0.2911002833","0.1378203382","0.248712437","0.2430363771","","","","","","","","","","72","H","0","img/none_selected.jpg","","149","main_expt","",""
"","bandit","232","595588","0.0-191.0-0.0","75173917","wem/bandit_party_1","A21753FQKCM5DQ","either","7","155","","","","","","","0","0","1","","0.2242182381","0.4","0.6","0.8","0.2","0.3529655025","0.1414499273","0.179144869","0.2242182381","","","","","","","","","","","","","","76","L","3","","","150","main_expt","",""
"","bandit","233","597447","0.0-192.0-0.0","75173917","wem/bandit_party_1","A21753FQKCM5DQ","either","7","305","","","","","","","0","0","1","","0.07852348772","0.4","0.6","0.8","0.2","0.3885741111","0.07852348772","0.1545669956","0.1997145133","","","","","","","","","","","","","","74","J","1","","","151","main_expt","",""
"","bandit","234","599066","0.0-193.0-0.0","75173917","wem/bandit_party_1","A21753FQKCM5DQ","either","7","98","","","","","","","0","0","1","","0.2195927633","0.4","0.6","0.8","0.2","0.3690499696","0.08485793113","0.1651714415","0.2195927633","","","","","","","","","","","","","","76","L","3","","","152","main_expt","",""
"","bandit","235","600892","0.0-194.0-0.0","75173917","wem/bandit_party_1","A21753FQKCM5DQ","either","7","303","","","","","","","0","0","1","","0.2396245514","0.4","0.6","0.8","0.2","0.3710492515","0.1083789561","0.2396245514","0.2121816628","","","","","","","","","","","","","","75","K","2","","","153","main_expt","",""
"","bandit","236","602804","0.0-195.0-0.0","75173917","wem/bandit_party_1","A21753FQKCM5DQ","either","7","294","","","","","","","0","0","1","0.3483335413","","0.4","0.6","0.8","0.2","","","","","0.3483335413","0.109098481","0.2085838567","0.1830588608","","","","","","","","","","72","H","0","img/none_selected.jpg","","154","main_expt","",""
"","bandit","237","604629","0.0-196.0-0.0","75173917","wem/bandit_party_1","A21753FQKCM5DQ","either","7","307","","","","","","","0","1","0","","0.3343760247","0.4","0.6","0.8","0.2","0.3343760247","0.1758262092","0.1864274254","0.2031423662","","","","","","","","","","","","","","72","H","0","img/none_selected.jpg","","155","main_expt","",""
"","bandit","238","606571","0.0-197.0-0.0","75173917","wem/bandit_party_1","A21753FQKCM5DQ","either","7","329","","","","","","","1","0","0","0.2022731065","","0.4","0.6","0.8","0.2","","","","","0.3742013553","0.2046597001","0.1750870897","0.2022731065","","","","","","","","","","76","L","3","","","156","main_expt","",""
"","bandit","239","608695","0.0-198.0-0.0","75173917","wem/bandit_party_1","A21753FQKCM5DQ","either","7","592","","","","","","","0","0","1","0.1774751899","","0.4","0.6","0.8","0.2","","","","","0.3620366094","0.1774751899","0.1321985386","0.1826661219","","","","","","","","","","74","J","1","","","157","main_expt","",""
"","bandit","240","610566","0.0-199.0-0.0","75173917","wem/bandit_party_1","A21753FQKCM5DQ","either","7","298","","","","","","","0","0","1","","0.1658993888","0.4","0.6","0.8","0.2","0.3671714071","0.1612033886","0.1341899746","0.1658993888","","","","","","","","","","","","","","76","L","3","","","158","main_expt","",""
"","bandit","241","612112","0.0-200.0-0.0","75173917","wem/bandit_party_1","A21753FQKCM5DQ","either","7","1","","","","","","","0","1","0","","0.4015988616","0.4","0.6","0.8","0.2","0.4015988616","0.1586838935","0.1567784951","0.1620079643","","","","","","","","","","","","","","72","H","0","img/none_selected.jpg","","159","main_expt","",""
"","bandit","242","613909","0.0-201.0-0.0","75173917","wem/bandit_party_1","A21753FQKCM5DQ","either","7","266","","","","","","","0","0","1","0.1615549635","","0.4","0.6","0.8","0.2","","","","","0.4004877553","0.2159944071","0.1615549635","0.2453635642","","","","","","","","","","75","K","2","","","160","main_expt","",""
"","bandit","243","615635","0.0-202.0-0.0","75173917","wem/bandit_party_1","A21753FQKCM5DQ","either","7","202","","","","","","","1","0","0","0.4095849454","","0.4","0.6","0.8","0.2","","","","","0.4095849454","0.2105769377","0.1854631015","0.2456373749","","","","","","","","","","72","H","0","img/none_selected.jpg","","161","main_expt","",""
"","bandit","244","617746","0.0-203.0-0.0","75173917","wem/bandit_party_1","A21753FQKCM5DQ","either","7","590","","","","","","","0","0","1","","0.2460125232","0.4","0.6","0.8","0.2","0.3978002783","0.2006925765","0.21229469","0.2460125232","","","","","","","","","","","","","","76","L","3","","","162","main_expt","",""
"","bandit","245","619963","0.0-204.0-0.0","75173917","wem/bandit_party_1","A21753FQKCM5DQ","either","7","698","","","","","","","0","0","1","0.2365124807","","0.4","0.6","0.8","0.2","","","","","0.4180552148","0.2365124807","0.162194177","0.2013568893","","","","","","","","","","74","J","1","","","163","main_expt","",""
"","bandit","246","621870","0.0-205.0-0.0","75173917","wem/bandit_party_1","A21753FQKCM5DQ","either","7","370","","","","","","","0","1","0","","0.1535707797","0.4","0.6","0.8","0.2","0.4407560021","0.2157370886","0.1535707797","0.1933595846","","","","","","","","","","","","","","75","K","2","","","164","main_expt","",""
"","bandit","247","623688","0.0-206.0-0.0","75173917","wem/bandit_party_1","A21753FQKCM5DQ","either","7","288","","","","","","","0","1","0","","0.4582960521","0.4","0.6","0.8","0.2","0.4582960521","0.2166787898","0.2315934193","0.167552211","","","","","","","","","","","","","","72","H","0","img/none_selected.jpg","","165","main_expt","",""
"","bandit","248","625468","0.0-207.0-0.0","75173917","wem/bandit_party_1","A21753FQKCM5DQ","either","7","256","","","","","","","1","0","0","0.2579087381","","0.4","0.6","0.8","0.2","","","","","0.4337500892","0.1846262972","0.2579087381","0.1311237951","","","","","","","","","","75","K","2","","","166","main_expt","",""
"","bandit","249","627248","0.0-208.0-0.0","75173917","wem/bandit_party_1","A21753FQKCM5DQ","either","7","261","","","","","","","1","0","0","0.4537582576","","0.4","0.6","0.8","0.2","","","","","0.4537582576","0.1888750078","0.2496457694","0.1714029316","","","","","","","","","","72","H","0","img/none_selected.jpg","","167","main_expt","",""
"","bandit","250","629105","0.0-209.0-0.0","75173917","wem/bandit_party_1","A21753FQKCM5DQ","either","7","234","","","","","","","0","0","1","0.234558796","","0.4","0.6","0.8","0.2","","","","","0.4473485534","0.2315683769","0.234558796","0.1494402723","","","","","","","","","","75","K","2","","","168","main_expt","",""
"","bandit","251","630950","0.0-210.0-0.0","75173917","wem/bandit_party_1","A21753FQKCM5DQ","either","7","309","","","","","","","1","0","0","0.4471591033","","0.4","0.6","0.8","0.2","","","","","0.4471591033","0.2018123945","0.2458600006","0.1819888556","","","","","","","","","","72","H","0","img/none_selected.jpg","","169","main_expt","",""
"","bandit","252","632691","0.0-211.0-0.0","75173917","wem/bandit_party_1","A21753FQKCM5DQ","either","7","214","","","","","","","0","1","0","","0.2329206984","0.4","0.6","0.8","0.2","0.4581839475","0.139238222","0.2214583157","0.2329206984","","","","","","","","","","","","","","76","L","3","","","170","main_expt","",""
"","bandit","253","634386","0.0-212.0-0.0","75173917","wem/bandit_party_1","A21753FQKCM5DQ","either","7","165","","","","","","","0","0","1","0.4674995421","","0.4","0.6","0.8","0.2","","","","","0.4674995421","0.1466511374","0.296208115","0.2000607923","","","","","","","","","","72","H","0","img/none_selected.jpg","","171","main_expt","",""
"","bandit","254","635986","0.0-213.0-0.0","75173917","wem/bandit_party_1","A21753FQKCM5DQ","either","7","1","","","","","","","0","0","1","","0.1348290388","0.4","0.6","0.8","0.2","0.4455620345","0.1348290388","0.3062379281","0.2342957318","","","","","","","","","","","","","","74","J","1","","","172","main_expt","",""
"","bandit","255","637842","0.0-214.0-0.0","75173917","wem/bandit_party_1","A21753FQKCM5DQ","either","7","232","","","","","","","0","0","1","0.4471610379","","0.4","0.6","0.8","0.2","","","","","0.4471610379","0.1521691919","0.2498067723","0.2189308077","","","","","","","","","","72","H","0","img/none_selected.jpg","","173","main_expt","",""
"","bandit","256","639587","0.0-215.0-0.0","75173917","wem/bandit_party_1","A21753FQKCM5DQ","either","7","25","","","","","","","1","0","0","0.2373932689","","0.4","0.6","0.8","0.2","","","","","0.4496576915","0.2191935525","0.1803522277","0.2373932689","","","","","","","","","","76","L","3","","","174","main_expt","",""
"","bandit","257","641544","0.0-216.0-0.0","75173917","wem/bandit_party_1","A21753FQKCM5DQ","either","7","432","","","","","","","0","0","1","","0.2014319342","0.4","0.6","0.8","0.2","0.4715297358","0.219961305","0.2014319342","0.2160264752","","","","","","","","","","","","","","75","K","2","","","175","main_expt","",""
"","bandit","258","643102","0.0-217.0-0.0","75173917","wem/bandit_party_1","A21753FQKCM5DQ","either","7","24","","","","","","","1","0","0","0.1990604306","","0.4","0.6","0.8","0.2","","","","","0.477956151","0.1882485239","0.2122003168","0.1990604306","","","","","","","","","","76","L","3","","","176","main_expt","",""
"","bandit","259","645014","0.0-218.0-0.0","75173917","wem/bandit_party_1","A21753FQKCM5DQ","either","7","380","","","","","","","0","0","1","0.1644902553","","0.4","0.6","0.8","0.2","","","","","0.4563721206","0.1644902553","0.2629069455","0.1729978196","","","","","","","","","","74","J","1","","","177","main_expt","",""
"","bandit","260","646723","0.0-219.0-0.0","75173917","wem/bandit_party_1","A21753FQKCM5DQ","either","7","180","","","","","","","0","0","1","0.1633080779","","0.4","0.6","0.8","0.2","","","","","0.4409869931","0.1713669852","0.2336104206","0.1633080779","","","","","","","","","","76","L","3","","","178","main_expt","",""
"","bandit","261","648250","0.0-220.0-0.0","75173917","wem/bandit_party_1","A21753FQKCM5DQ","either","7","6","","","","","","","0","0","1","","0.4243126063","0.4","0.6","0.8","0.2","0.4243126063","0.2263400462","0.1887504226","0.1243251356","","","","","","","","","","","","","","72","H","0","img/none_selected.jpg","","179","main_expt","",""
"","bandit","262","649806","0.0-221.0-0.0","75173917","wem/bandit_party_1","A21753FQKCM5DQ","either","7","32","","","","","","","0","1","0","","0.1150149055","0.4","0.6","0.8","0.2","0.4312830743","0.2036870175","0.138376641","0.1150149055","","","","","","","","","","","","","","76","L","3","","","180","main_expt","",""
"","bandit","263","651408","0.0-222.0-0.0","75173917","wem/bandit_party_1","A21753FQKCM5DQ","either","7","65","","","","","","","0","0","1","0.4433127893","","0.4","0.6","0.8","0.2","","","","","0.4433127893","0.1934599198","0.1883992559","0.1407924877","","","","","","","","","","72","H","0","img/none_selected.jpg","","181","main_expt","",""
"","bandit","264","653395","0.0-223.0-0.0","75173917","wem/bandit_party_1","A21753FQKCM5DQ","either","7","458","","","","","","","0","0","1","","0.09672650852","0.4","0.6","0.8","0.2","0.440136403","0.2424515525","0.128889003","0.09672650852","","","","","","","","","","","","","","76","L","3","","","182","main_expt","",""
"","bandit","265","655044","0.0-224.0-0.0","75173917","wem/bandit_party_1","A21753FQKCM5DQ","either","7","118","","","","","","","0","0","1","0.1961777535","","0.4","0.6","0.8","0.2","","","","","0.4347693449","0.1961777535","0.1748769843","0.09888002855","","","","","","","","","","74","J","1","","","183","main_expt","",""
"","bandit","266","656896","0.0-225.0-0.0","75173917","wem/bandit_party_1","A21753FQKCM5DQ","either","7","328","","","","","","","0","0","1","0.1945994373","","0.4","0.6","0.8","0.2","","","","","0.4277130926","0.1489283113","0.1945994373","0.07200145298","","","","","","","","","","75","K","2","","","184","main_expt","",""
"","bandit","267","658731","0.0-226.0-0.0","75173917","wem/bandit_party_1","A21753FQKCM5DQ","either","7","295","","","","","","","0","0","1","","0.09476413333","0.4","0.6","0.8","0.2","0.3956248437","0.1499965078","0.1644748654","0.09476413333","","","","","","","","","","","","","","76","L","3","","","185","main_expt","",""
"","bandit","268","660622","0.0-227.0-0.0","75173917","wem/bandit_party_1","A21753FQKCM5DQ","either","7","344","","","","","","","0","0","1","0.2169832988","","0.4","0.6","0.8","0.2","","","","","0.3748928266","0.2169832988","0.1504635592","0.06556422103","","","","","","","","","","74","J","1","","","186","main_expt","",""
"","bandit","269","662415","0.0-228.0-0.0","75173917","wem/bandit_party_1","A21753FQKCM5DQ","either","7","271","","","","","","","0","0","1","0.1760039214","","0.4","0.6","0.8","0.2","","","","","0.3848139325","0.2655186329","0.1760039214","0.08901149072","","","","","","","","","","75","K","2","","","187","main_expt","",""
"","bandit","270","664152","0.0-229.0-0.0","75173917","wem/bandit_party_1","A21753FQKCM5DQ","either","7","212","","","","","","","0","0","1","","0.09471428588","0.4","0.6","0.8","0.2","0.3990176401","0.2738785118","0.1203267588","0.09471428588","","","","","","","","","","","","","","76","L","3","","","188","main_expt","",""
"","bandit","271","665931","0.0-230.0-0.0","75173917","wem/bandit_party_1","A21753FQKCM5DQ","either","7","250","","","","","","","0","0","1","","0.3581396838","0.4","0.6","0.8","0.2","0.3581396838","0.3041874674","0.1171540391","0.05118235823","","","","","","","","","","","","","","72","H","0","img/none_selected.jpg","","189","main_expt","",""
"","bandit","272","667487","0.0-231.0-0.0","75173917","wem/bandit_party_1","A21753FQKCM5DQ","either","7","9","","","","","","","0","0","1","0.2882972244","","0.4","0.6","0.8","0.2","","","","","0.2882972244","0.3229453735","0.1535230761","0.05788318751","","","","","","","","","","72","H","0","img/none_selected.jpg","","190","main_expt","",""
"","bandit","273","669226","0.0-232.0-0.0","75173917","wem/bandit_party_1","A21753FQKCM5DQ","either","7","195","","","","","","","1","0","0","0.3145326233","","0.4","0.6","0.8","0.2","","","","","0.3145326233","0.3818249757","0.1372750947","0.08736915481","","","","","","","","","","72","H","0","img/none_selected.jpg","","191","main_expt","",""
"","bandit","274","671054","0.0-233.0-0.0","75173917","wem/bandit_party_1","A21753FQKCM5DQ","either","7","306","","","","","","","0","0","1","0.3270603702","","0.4","0.6","0.8","0.2","","","","","0.3270603702","0.4157726243","0.1047771501","0.08251019118","","","","","","","","","","72","H","0","img/none_selected.jpg","","192","main_expt","",""
"","bandit","275","672725","0.0-234.0-0.0","75173917","wem/bandit_party_1","A21753FQKCM5DQ","either","7","148","","","","","","","0","0","1","0.3604030797","","0.4","0.6","0.8","0.2","","","","","0.3604030797","0.4611608212","0.1100845432","0.06897628064","","","","","","","","","","72","H","0","img/none_selected.jpg","","193","main_expt","",""
"","bandit","276","674542","0.0-235.0-0.0","75173917","wem/bandit_party_1","A21753FQKCM5DQ","either","7","277","","","","","","","0","0","1","0.357423186","","0.4","0.6","0.8","0.2","","","","","0.357423186","0.4508818777","0.1468163818","0.06801266305","","","","","","","","","","72","H","0","img/none_selected.jpg","","194","main_expt","",""
"","bandit","277","676345","0.0-236.0-0.0","75173917","wem/bandit_party_1","A21753FQKCM5DQ","either","7","282","","","","","","","0","1","0","","0.3697779856","0.4","0.6","0.8","0.2","0.3697779856","0.4278921451","0.1495594621","0.09923709358","","","","","","","","","","","","","","72","H","0","img/none_selected.jpg","","195","main_expt","",""
"","bandit","278","678196","0.0-237.0-0.0","75173917","wem/bandit_party_1","A21753FQKCM5DQ","either","7","283","","","","","","","0","1","0","","0.3617177512","0.4","0.6","0.8","0.2","0.3617177512","0.4256293003","0.2263220537","0.1103063831","","","","","","","","","","","","","","72","H","0","img/none_selected.jpg","","196","main_expt","",""
"","bandit","279","679988","0.0-238.0-0.0","75173917","wem/bandit_party_1","A21753FQKCM5DQ","either","7","256","","","","","","","0","0","1","0.3775990084","","0.4","0.6","0.8","0.2","","","","","0.3775990084","0.4476975038","0.2204718804","0.07377144043","","","","","","","","","","72","H","0","img/none_selected.jpg","","197","main_expt","",""
"","bandit","280","681902","0.0-239.0-0.0","75173917","wem/bandit_party_1","A21753FQKCM5DQ","either","7","255","","","","","","","0","0","1","0.4144042571","","0.4","0.6","0.8","0.2","","","","","0.4144042571","0.4434357272","0.2401118457","0.08863448313","","","","","","","","","","72","H","0","img/none_selected.jpg","","198","main_expt","",""
"","bandit","281","683542","0.0-240.0-0.0","75173917","wem/bandit_party_1","A21753FQKCM5DQ","either","7","108","","","","","","","0","1","0","","0.4081775392","0.4","0.6","0.8","0.2","0.4081775392","0.4245114622","0.2673724497","0.1082179128","","","","","","","","","","","","","","72","H","0","img/none_selected.jpg","","199","main_expt","",""
"","bandit","282","685650","0.0-241.0-0.0","75173917","wem/bandit_party_1","A21753FQKCM5DQ","either","7","572","","","","","","","1","0","0","0.4166156547","","0.4","0.6","0.8","0.2","","","","","0.4166156547","0.4087100315","0.3125307902","0.09350688576","","","","","","","","","","72","H","0","img/none_selected.jpg","","200","main_expt","",""
"","bandit","283","687481","0.0-242.0-0.0","75173917","wem/bandit_party_1","A21753FQKCM5DQ","either","7","304","","","","","","","1","0","0","0.4361521275","","0.4","0.6","0.8","0.2","","","","","0.4306537176","0.4361521275","0.2914574258","0.1036625099","","","","","","","","","","74","J","1","","","201","main_expt","",""
"","bandit","284","689483","0.0-243.0-0.0","75173917","wem/bandit_party_1","A21753FQKCM5DQ","either","7","482","","","","","","","0","0","1","0.2550600684","","0.4","0.6","0.8","0.2","","","","","0.449382563","0.3332596158","0.2550600684","0.1216733889","","","","","","","","","","75","K","2","","","202","main_expt","",""
"","bandit","285","691299","0.0-244.0-0.0","75173917","wem/bandit_party_1","A21753FQKCM5DQ","either","7","296","","","","","","","0","0","1","","0.120655788","0.4","0.6","0.8","0.2","0.4506576586","0.3581848779","0.2769745997","0.120655788","","","","","","","","","","","","","","76","L","3","","","203","main_expt","",""
"","bandit","286","693138","0.0-245.0-0.0","75173917","wem/bandit_party_1","A21753FQKCM5DQ","either","7","300","","","","","","","0","0","1","","0.454839243","0.4","0.6","0.8","0.2","0.454839243","0.3597133043","0.2752990059","0.1082970726","","","","","","","","","","","","","","72","H","0","img/none_selected.jpg","","204","main_expt","",""
"","bandit","287","694928","0.0-246.0-0.0","75173917","wem/bandit_party_1","A21753FQKCM5DQ","either","7","257","","","","","","","0","1","0","","0.4512889682","0.4","0.6","0.8","0.2","0.4512889682","0.3630183988","0.2901512169","0.09143681274","","","","","","","","","","","","","","72","H","0","img/none_selected.jpg","","205","main_expt","",""
"","bandit","288","696725","0.0-247.0-0.0","75173917","wem/bandit_party_1","A21753FQKCM5DQ","either","7","267","","","","","","","0","0","1","0.4591490044","","0.4","0.6","0.8","0.2","","","","","0.4591490044","0.3737494834","0.2823763913","0.08377413986","","","","","","","","","","72","H","0","img/none_selected.jpg","","206","main_expt","",""
"","bandit","289","698582","0.0-248.0-0.0","75173917","wem/bandit_party_1","A21753FQKCM5DQ","either","7","323","","","","","","","0","0","1","","0.4650593633","0.4","0.6","0.8","0.2","0.4650593633","0.3668784438","0.2708062506","0.1585073664","","","","","","","","","","","","","","72","H","0","img/none_selected.jpg","","207","main_expt","",""
"","bandit","290","700172","0.0-249.0-0.0","75173917","wem/bandit_party_1","A21753FQKCM5DQ","either","7","44","","","","","","","0","0","1","","0.4641513068","0.4","0.6","0.8","0.2","0.4641513068","0.4045351895","0.2641553663","0.162299901","","","","","","","","","","","","","","72","H","0","img/none_selected.jpg","","208","main_expt","",""
"","bandit","291","702134","0.0-250.0-0.0","75173917","wem/bandit_party_1","A21753FQKCM5DQ","either","7","152","","","","","","","0","0","1","0.4567807332","","0.4","0.6","0.8","0.2","","","","","0.4567807332","0.4402386934","0.2704675845","0.1542266077","","","","","","","","","","72","H","0","img/none_selected.jpg","","209","main_expt","",""
"","bandit","292","703894","0.0-251.0-0.0","75173917","wem/bandit_party_1","A21753FQKCM5DQ","either","7","237","","","","","","","1","0","0","0.428253188","","0.4","0.6","0.8","0.2","","","","","0.428253188","0.4483623408","0.3420868926","0.1890415559","","","","","","","","","","72","H","0","img/none_selected.jpg","","210","main_expt","",""
"","bandit","293","705537","0.0-252.0-0.0","75173917","wem/bandit_party_1","A21753FQKCM5DQ","either","7","116","","","","","","","0","1","0","","0.410271385","0.4","0.6","0.8","0.2","0.410271385","0.4471415093","0.3069688952","0.1818133019","","","","","","","","","","","","","","72","H","0","img/none_selected.jpg","","211","main_expt","",""
"","bandit","294","707406","0.0-253.0-0.0","75173917","wem/bandit_party_1","A21753FQKCM5DQ","either","7","334","","","","","","","0","0","1","","0.4374655127","0.4","0.6","0.8","0.2","0.4065587724","0.4374655127","0.3005379093","0.1782747956","","","","","","","","","","","","","","74","J","1","","","212","main_expt","",""
"","bandit","295","709098","0.0-254.0-0.0","75173917","wem/bandit_party_1","A21753FQKCM5DQ","either","7","167","","","","","","","0","0","1","","0.213882915","0.4","0.6","0.8","0.2","0.4007116542","0.4381457257","0.213882915","0.1935195711","","","","","","","","","","","","","","75","K","2","","","213","main_expt","",""
"","bandit","296","710925","0.0-255.0-0.0","75173917","wem/bandit_party_1","A21753FQKCM5DQ","either","7","305","","","","","","","0","0","1","","0.2421176173","0.4","0.6","0.8","0.2","0.4246209323","0.4643769008","0.2138557204","0.2421176173","","","","","","","","","","","","","","76","L","3","","","214","main_expt","",""
"","bandit","297","712627","0.0-256.0-0.0","75173917","wem/bandit_party_1","A21753FQKCM5DQ","either","7","179","","","","","","","0","0","1","","0.3993057066","0.4","0.6","0.8","0.2","0.3993057066","0.4328812357","0.2142566612","0.2629876012","","","","","","","","","","","","","","72","H","0","img/none_selected.jpg","","215","main_expt","",""
"","bandit","298","714285","0.0-257.0-0.0","75173917","wem/bandit_party_1","A21753FQKCM5DQ","either","7","139","","","","","","","0","0","1","0.3987772474","","0.4","0.6","0.8","0.2","","","","","0.3987772474","0.4064507999","0.1900351118","0.2977714141","","","","","","","","","","72","H","0","img/none_selected.jpg","","216","main_expt","",""
"","bandit","299","715905","0.0-258.0-0.0","75173917","wem/bandit_party_1","A21753FQKCM5DQ","either","7","83","","","","","","","0","0","1","0.4101433534","","0.4","0.6","0.8","0.2","","","","","0.4101433534","0.4197961641","0.2185169477","0.3017601552","","","","","","","","","","72","H","0","img/none_selected.jpg","","217","main_expt","",""
"","bandit","300","717616","0.0-259.0-0.0","75173917","wem/bandit_party_1","A21753FQKCM5DQ","either","7","179","","","","","","","0","0","1","","0.4448029092","0.4","0.6","0.8","0.2","0.4448029092","0.4167397569","0.2240895604","0.2888566207","","","","","","","","","","","","","","72","H","0","img/none_selected.jpg","","218","main_expt","",""
"","bandit","301","719325","0.0-260.0-0.0","75173917","wem/bandit_party_1","A21753FQKCM5DQ","either","7","106","","","","","","","0","0","1","","0.4454766299","0.4","0.6","0.8","0.2","0.4454766299","0.4250944588","0.1990808675","0.2844008008","","","","","","","","","","","","","","72","H","0","img/none_selected.jpg","","219","main_expt","",""
"","bandit","302","720937","0.0-261.0-0.0","75173917","wem/bandit_party_1","A21753FQKCM5DQ","either","7","86","","","","","","","0","0","1","0.4610997771","","0.4","0.6","0.8","0.2","","","","","0.4610997771","0.4173336587","0.266602996","0.2225062479","","","","","","","","","","72","H","0","img/none_selected.jpg","","220","main_expt","",""
"","bandit","303","722728","0.0-262.0-0.0","75173917","wem/bandit_party_1","A21753FQKCM5DQ","either","7","72","","","","","","","1","0","0","0.3944711005","","0.4","0.6","0.8","0.2","","","","","0.4642289789","0.3944711005","0.2443661227","0.2409900116","","","","","","","","","","74","J","1","","","221","main_expt","",""
"","bandit","304","724533","0.0-263.0-0.0","75173917","wem/bandit_party_1","A21753FQKCM5DQ","either","7","278","","","","","","","1","0","0","0.3619306912","","0.4","0.6","0.8","0.2","","","","","0.4641270597","0.3619306912","0.2205922116","0.1989678636","","","","","","","","","","74","J","1","","","222","main_expt","",""
"","bandit","305","726163","0.0-264.0-0.0","75173917","wem/bandit_party_1","A21753FQKCM5DQ","either","7","92","","","","","","","0","1","0","","0.4117842179","0.4","0.6","0.8","0.2","0.4697433819","0.4117842179","0.1861223506","0.1902867071","","","","","","","","","","","","","","74","J","1","","","223","main_expt","",""
"","bandit","306","727793","0.0-265.0-0.0","75173917","wem/bandit_party_1","A21753FQKCM5DQ","either","7","70","","","","","","","0","0","1","0.3965092367","","0.4","0.6","0.8","0.2","","","","","0.460898083","0.3965092367","0.1668884863","0.2076415522","","","","","","","","","","74","J","1","","","224","main_expt","",""
"","bandit","307","729620","0.0-266.0-0.0","75173917","wem/bandit_party_1","A21753FQKCM5DQ","either","7","293","","","","","","","0","0","1","0.1481472712","","0.4","0.6","0.8","0.2","","","","","0.4394890665","0.4084477862","0.1481472712","0.2393469174","","","","","","","","","","75","K","2","","","225","main_expt","",""
"","bandit","308","731411","0.0-267.0-0.0","75173917","wem/bandit_party_1","A21753FQKCM5DQ","either","7","258","","","","","","","0","1","0","","0.2425440376","0.4","0.6","0.8","0.2","0.4520955237","0.4104601526","0.1140846591","0.2425440376","","","","","","","","","","","","","","76","L","3","","","226","main_expt","",""
"","bandit","309","733352","0.0-268.0-0.0","75173917","wem/bandit_party_1","A21753FQKCM5DQ","either","7","418","","","","","","","0","0","1","","0.2365603363","0.4","0.6","0.8","0.2","0.4324220164","0.3899733519","0.1074218354","0.2365603363","","","","","","","","","","","","","","76","L","3","","","227","main_expt","",""
"","bandit","310","735150","0.0-269.0-0.0","75173917","wem/bandit_party_1","A21753FQKCM5DQ","either","7","266","","","","","","","0","0","1","0.2127958296","","0.4","0.6","0.8","0.2","","","","","0.4220482421","0.3796730737","0.08065165665","0.2127958296","","","","","","","","","","76","L","3","","","228","main_expt","",""
"","bandit","311","736969","0.0-270.0-0.0","75173917","wem/bandit_party_1","A21753FQKCM5DQ","either","7","296","","","","","","","0","1","0","","0.2207861463","0.4","0.6","0.8","0.2","0.3885749154","0.4046866514","0.07774059362","0.2207861463","","","","","","","","","","","","","","76","L","3","","","229","main_expt","",""
"","bandit","312","738801","0.0-271.0-0.0","75173917","wem/bandit_party_1","A21753FQKCM5DQ","either","7","307","","","","","","","0","0","1","","0.2589226453","0.4","0.6","0.8","0.2","0.4023755806","0.3988793555","0.1109483114","0.2589226453","","","","","","","","","","","","","","76","L","3","","","230","main_expt","",""
