"consent","trial_type","trial_index","time_elapsed","internal_node_id","subjID","study","MID","cond","drift","rt","responses","button_pressed","key_press","like","value","connected","gems","bombs","no_reward","GemPrChosen","BombPrChosen","GainOverPainPr_0","GainOverPainPr_1","GainOverPainPr_2","GainOverPainPr_3","LosePr_0","LosePr_1","LosePr_2","LosePr_3","WinPr_0","WinPr_1","WinPr_2","WinPr_3","Q0","Q1","Q2","gender","age","ethnicity","label","expt_phase","target","respCharCode","respKey","respChoiceNum","respChoice","practice","trial_counter","trial_label","Q0_index"
"GDM/GDM_behavioral_consent_30min_online.html","consent","0","15845","0.0-0.0","75770132","wem/bandit_party_1","AJZZOD77TYA2X","either","5","","","","","","","","","","","","","","","","","","","","","","","","","","","","","","","","","","","","","","","","",""
"","survey-text","1","22715","0.0-1.0","75770132","wem/bandit_party_1","AJZZOD77TYA2X","either","5","5859","{""Q0"":""AJZZOD77TYA2X""}","","","","","","","","","","","","","","","","","","","","","","","","","","","","","","","","","","","","","","",""
"","button-response","2","26570","0.0-2.0","75770132","wem/bandit_party_1","AJZZOD77TYA2X","either","5","2852","","1","","","","","","","","","","","","","","","","","","","","","","","","","","","","","","","","","","","","","",""
"","text-replacement","3","40177","0.0-3.0","75770132","wem/bandit_party_1","AJZZOD77TYA2X","either","5","12604","","","32","","","","","","","","","","","","","","","","","","","","","","","","","","","","","","","","","","","","",""
"","text-replacement","4","48030","0.0-4.0","75770132","wem/bandit_party_1","AJZZOD77TYA2X","either","5","7853","","","32","","","","","","","","","","","","","","","","","","","","","","","","","","","","","","","","","","","","",""
"","identification","5","54744","0.0-6.0-0.0","75770132","wem/bandit_party_1","AJZZOD77TYA2X","either","5","6702","","","","5","5","5","","","","","","","","","","","","","","","","","","","","","","","","pre","identification_pre","the Democratic Party","","","","","","","",""
"","identification","6","61462","0.0-6.0-1.0","75770132","wem/bandit_party_1","AJZZOD77TYA2X","either","5","5703","","","","3","3","3","","","","","","","","","","","","","","","","","","","","","","","","pre","identification_pre","the Republican party","","","","","","","",""
"","text-replacement","7","67827","0.0-7.0","75770132","wem/bandit_party_1","AJZZOD77TYA2X","either","5","5361","","","32","","","","","","","","","","","","","","","","","","","","","","","","","","","","","","","","","","","","",""
"","text-replacement","8","71204","0.0-8.0","75770132","wem/bandit_party_1","AJZZOD77TYA2X","either","5","3377","","","32","","","","","","","","","","","","","","","","","","","","","","","","","","","","","","","","","","","","",""
"","text-replacement","9","81893","0.0-9.0","75770132","wem/bandit_party_1","AJZZOD77TYA2X","either","5","10685","","","32","","","","","","","","","","","","","","","","","","","","","","","","","","","","","","","","","","","","",""
"","text-replacement","10","85787","0.0-10.0","75770132","wem/bandit_party_1","AJZZOD77TYA2X","either","5","3892","","","32","","","","","","","","","","","","","","","","","","","","","","","","","","","","","","","","","","","","",""
"","text-replacement","11","91154","0.0-11.0","75770132","wem/bandit_party_1","AJZZOD77TYA2X","either","5","5366","","","32","","","","","","","","","","","","","","","","","","","","","","","","","","","","","","","","","","","","",""
"","bandit","12","94437","0.0-12.0-0.0","75770132","wem/bandit_party_1","AJZZOD77TYA2X","either","5","1776","","","","","","","0","0","1","0","0","","","","","0","","","","0","","","","","","","","","","","","","74","J","0","img/none_selected_demo.jpg","true","0","",""
"","bandit","13","96773","0.0-13.0-0.0","75770132","wem/bandit_party_1","AJZZOD77TYA2X","either","5","764","","","","","","","0","0","1","0","0","","","","","0","","","","0","","","","","","","","","","","","","75","K","0","img/none_selected_demo.jpg","true","0","",""
"","text-replacement","14","100503","0.0-14.0","75770132","wem/bandit_party_1","AJZZOD77TYA2X","either","5","3730","","","32","","","","","","","","","","","","","","","","","","","","","","","","","","","","","","","","","","","","",""
"","text-replacement","15","105262","0.0-15.0","75770132","wem/bandit_party_1","AJZZOD77TYA2X","either","5","4755","","","32","","","","","","","","","","","","","","","","","","","","","","","","","","","","","","","","","","","","",""
"","text-replacement","16","110889","0.0-16.0","75770132","wem/bandit_party_1","AJZZOD77TYA2X","either","5","5627","","","32","","","","","","","","","","","","","","","","","","","","","","","","","","","","","","","","","","","","",""
"","text-replacement","17","113608","0.0-17.0","75770132","wem/bandit_party_1","AJZZOD77TYA2X","either","5","2717","","","32","","","","","","","","","","","","","","","","","","","","","","","","","","","","","","","","","","","","",""
"","bandit","18","115913","0.0-18.0-0.0","75770132","wem/bandit_party_1","AJZZOD77TYA2X","either","5","796","","","","","","","1","0","0","0.8","","0.5","0.5","","","","","","","0.8","0.2","","","","","","","","","","","","74","J","0","img/none_selected_demo.jpg","true","0","80_20_practice",""
"","bandit","19","118042","0.0-18.0-1.0","75770132","wem/bandit_party_1","AJZZOD77TYA2X","either","5","623","","","","","","","1","0","0","0.8","","0.5","0.5","","","","","","","0.8","0.2","","","","","","","","","","","","74","J","0","img/none_selected_demo.jpg","true","0","80_20_practice",""
"","bandit","20","119933","0.0-18.0-2.0","75770132","wem/bandit_party_1","AJZZOD77TYA2X","either","5","386","","","","","","","0","0","1","","0.2","0.5","0.5","","","0.8","0.2","","","","","","","","","","","","","","","","75","K","1","","true","0","80_20_practice",""
"","bandit","21","122476","0.0-18.0-3.0","75770132","wem/bandit_party_1","AJZZOD77TYA2X","either","5","1037","","","","","","","1","0","0","0.8","","0.5","0.5","","","","","","","0.8","0.2","","","","","","","","","","","","74","J","0","img/none_selected_demo.jpg","true","0","80_20_practice",""
"","bandit","22","124378","0.0-18.0-4.0","75770132","wem/bandit_party_1","AJZZOD77TYA2X","either","5","397","","","","","","","1","0","0","0.8","","0.5","0.5","","","","","","","0.8","0.2","","","","","","","","","","","","74","J","0","img/none_selected_demo.jpg","true","0","80_20_practice",""
"","bandit","23","126182","0.0-18.0-5.0","75770132","wem/bandit_party_1","AJZZOD77TYA2X","either","5","298","","","","","","","1","0","0","0.8","","0.5","0.5","","","","","","","0.8","0.2","","","","","","","","","","","","74","J","0","img/none_selected_demo.jpg","true","0","80_20_practice",""
"","bandit","24","128011","0.0-18.0-6.0","75770132","wem/bandit_party_1","AJZZOD77TYA2X","either","5","321","","","","","","","0","0","1","","0.8","0.5","0.5","","","0.8","0.2","","","","","","","","","","","","","","","","74","J","0","img/none_selected_demo.jpg","true","0","80_20_practice",""
"","bandit","25","130278","0.0-18.0-7.0","75770132","wem/bandit_party_1","AJZZOD77TYA2X","either","5","762","","","","","","","0","0","1","0.2","","0.5","0.5","","","","","","","0.8","0.2","","","","","","","","","","","","75","K","1","","true","0","80_20_practice",""
"","bandit","26","132094","0.0-18.0-8.0","75770132","wem/bandit_party_1","AJZZOD77TYA2X","either","5","312","","","","","","","0","1","0","","0.8","0.5","0.5","","","0.8","0.2","","","","","","","","","","","","","","","","74","J","0","img/none_selected_demo.jpg","true","0","80_20_practice",""
"","bandit","27","134136","0.0-18.0-9.0","75770132","wem/bandit_party_1","AJZZOD77TYA2X","either","5","539","","","","","","","0","1","0","","0.8","0.5","0.5","","","0.8","0.2","","","","","","","","","","","","","","","","74","J","0","img/none_selected_demo.jpg","true","0","80_20_practice",""
"","bandit","28","135973","0.0-18.0-10.0","75770132","wem/bandit_party_1","AJZZOD77TYA2X","either","5","327","","","","","","","1","0","0","0.8","","0.5","0.5","","","","","","","0.8","0.2","","","","","","","","","","","","74","J","0","img/none_selected_demo.jpg","true","0","80_20_practice",""
"","bandit","29","137661","0.0-18.0-11.0","75770132","wem/bandit_party_1","AJZZOD77TYA2X","either","5","181","","","","","","","0","1","0","","0.8","0.5","0.5","","","0.8","0.2","","","","","","","","","","","","","","","","74","J","0","img/none_selected_demo.jpg","true","0","80_20_practice",""
"","bandit","30","139545","0.0-18.0-12.0","75770132","wem/bandit_party_1","AJZZOD77TYA2X","either","5","279","","","","","","","0","1","0","","0.8","0.5","0.5","","","0.8","0.2","","","","","","","","","","","","","","","","74","J","0","img/none_selected_demo.jpg","true","0","80_20_practice",""
"","bandit","31","141394","0.0-18.0-13.0","75770132","wem/bandit_party_1","AJZZOD77TYA2X","either","5","328","","","","","","","1","0","0","0.8","","0.5","0.5","","","","","","","0.8","0.2","","","","","","","","","","","","74","J","0","img/none_selected_demo.jpg","true","0","80_20_practice",""
"","bandit","32","143222","0.0-18.0-14.0","75770132","wem/bandit_party_1","AJZZOD77TYA2X","either","5","322","","","","","","","1","0","0","0.8","","0.5","0.5","","","","","","","0.8","0.2","","","","","","","","","","","","74","J","0","img/none_selected_demo.jpg","true","0","80_20_practice",""
"","bandit","33","145767","0.0-18.0-15.0","75770132","wem/bandit_party_1","AJZZOD77TYA2X","either","5","1033","","","","","","","1","0","0","0.8","","0.5","0.5","","","","","","","0.8","0.2","","","","","","","","","","","","74","J","0","img/none_selected_demo.jpg","true","0","80_20_practice",""
"","bandit","34","147563","0.0-18.0-16.0","75770132","wem/bandit_party_1","AJZZOD77TYA2X","either","5","289","","","","","","","0","1","0","","0.8","0.5","0.5","","","0.8","0.2","","","","","","","","","","","","","","","","74","J","0","img/none_selected_demo.jpg","true","0","80_20_practice",""
"","bandit","35","149433","0.0-18.0-17.0","75770132","wem/bandit_party_1","AJZZOD77TYA2X","either","5","362","","","","","","","1","0","0","0.8","","0.5","0.5","","","","","","","0.8","0.2","","","","","","","","","","","","74","J","0","img/none_selected_demo.jpg","true","0","80_20_practice",""
"","bandit","36","151303","0.0-18.0-18.0","75770132","wem/bandit_party_1","AJZZOD77TYA2X","either","5","361","","","","","","","0","1","0","","0.8","0.5","0.5","","","0.8","0.2","","","","","","","","","","","","","","","","74","J","0","img/none_selected_demo.jpg","true","0","80_20_practice",""
"","bandit","37","153086","0.0-18.0-19.0","75770132","wem/bandit_party_1","AJZZOD77TYA2X","either","5","279","","","","","","","0","0","1","","0.8","0.5","0.5","","","0.8","0.2","","","","","","","","","","","","","","","","74","J","0","img/none_selected_demo.jpg","true","0","80_20_practice",""
"","text-replacement","38","156353","0.0-19.0","75770132","wem/bandit_party_1","AJZZOD77TYA2X","either","5","3267","","","32","","","","","","","","","","","","","","","","","","","","","","","","","","","","","","","","","","","","",""
"","bandit","39","159492","0.0-20.0-0.0","75770132","wem/bandit_party_1","AJZZOD77TYA2X","either","5","1632","","","","","","","1","0","0","1","0","","","","","0","1","","","1","0","","","","","","","","","","","","74","J","0","img/none_selected_demo.jpg","true","0","",""
"","text-replacement","40","163183","0.0-21.0","75770132","wem/bandit_party_1","AJZZOD77TYA2X","either","5","3691","","","32","","","","","","","","","","","","","","","","","","","","","","","","","","","","","","","","","","","","",""
"","text-replacement","41","166648","0.0-22.0","75770132","wem/bandit_party_1","AJZZOD77TYA2X","either","5","3465","","","32","","","","","","","","","","","","","","","","","","","","","","","","","","","","","","","","","","","","",""
"","text-replacement","42","168947","0.0-23.0","75770132","wem/bandit_party_1","AJZZOD77TYA2X","either","5","2299","","","32","","","","","","","","","","","","","","","","","","","","","","","","","","","","","","","","","","","","",""
"","text-replacement","43","171831","0.0-24.0","75770132","wem/bandit_party_1","AJZZOD77TYA2X","either","5","2880","","","32","","","","","","","","","","","","","","","","","","","","","","","","","","","","","","","","","","","","",""
"","text-replacement","44","176513","0.0-25.0","75770132","wem/bandit_party_1","AJZZOD77TYA2X","either","5","4682","","","32","","","","","","","","","","","","","","","","","","","","","","","","","","","","","","","","","","","","",""
"","text-replacement","45","177236","0.0-26.0","75770132","wem/bandit_party_1","AJZZOD77TYA2X","either","5","723","","","32","","","","","","","","","","","","","","","","","","","","","","","","","","","","","","","","","","","","",""
"","text-replacement","46","180942","0.0-27.0","75770132","wem/bandit_party_1","AJZZOD77TYA2X","either","5","3706","","","32","","","","","","","","","","","","","","","","","","","","","","","","","","","","","","","","","","","","",""
"","text-replacement","47","183778","0.0-28.0","75770132","wem/bandit_party_1","AJZZOD77TYA2X","either","5","2836","","","32","","","","","","","","","","","","","","","","","","","","","","","","","","","","","","","","","","","","",""
"","text-replacement","48","185187","0.0-29.0","75770132","wem/bandit_party_1","AJZZOD77TYA2X","either","5","1402","","","32","","","","","","","","","","","","","","","","","","","","","","","","","","","","","","","","","","","","",""
"","text-replacement","49","186290","0.0-30.0","75770132","wem/bandit_party_1","AJZZOD77TYA2X","either","5","1103","","","32","","","","","","","","","","","","","","","","","","","","","","","","","","","","","","","","","","","","",""
"","text-replacement","50","187909","0.0-31.0","75770132","wem/bandit_party_1","AJZZOD77TYA2X","either","5","1619","","","32","","","","","","","","","","","","","","","","","","","","","","","","","","","","","","","","","","","","",""
"","bandit","51","190624","0.0-32.0-0.0","75770132","wem/bandit_party_1","AJZZOD77TYA2X","either","5","1209","","","","","","","0","0","1","","0.8","0.5","0.5","0.5","0.5","0.8","0.2","0.6","0.2","","","","","","","","","","","","","","72","H","0","img/none_selected.jpg","true","0","full_practice",""
"","bandit","52","192614","0.0-32.0-1.0","75770132","wem/bandit_party_1","AJZZOD77TYA2X","either","5","480","","","","","","","0","0","1","0.2","","0.5","0.5","0.5","0.5","","","","","0.8","0.2","0.6","0.2","","","","","","","","","","74","J","1","","true","0","full_practice",""
"","bandit","53","194608","0.0-32.0-2.0","75770132","wem/bandit_party_1","AJZZOD77TYA2X","either","5","491","","","","","","","0","1","0","","0.6","0.5","0.5","0.5","0.5","0.8","0.2","0.6","0.2","","","","","","","","","","","","","","75","K","2","","true","0","full_practice",""
"","bandit","54","196615","0.0-32.0-3.0","75770132","wem/bandit_party_1","AJZZOD77TYA2X","either","5","500","","","","","","","0","0","1","","0.2","0.5","0.5","0.5","0.5","0.8","0.2","0.6","0.2","","","","","","","","","","","","","","76","L","3","","true","0","full_practice",""
"","bandit","55","198492","0.0-32.0-4.0","75770132","wem/bandit_party_1","AJZZOD77TYA2X","either","5","366","","","","","","","0","0","1","","0.6","0.5","0.5","0.5","0.5","0.8","0.2","0.6","0.2","","","","","","","","","","","","","","75","K","2","","true","0","full_practice",""
"","bandit","56","200732","0.0-32.0-5.0","75770132","wem/bandit_party_1","AJZZOD77TYA2X","either","5","732","","","","","","","1","0","0","0.6","","0.5","0.5","0.5","0.5","","","","","0.8","0.2","0.6","0.2","","","","","","","","","","75","K","2","","true","0","full_practice",""
"","bandit","57","203122","0.0-32.0-6.0","75770132","wem/bandit_party_1","AJZZOD77TYA2X","either","5","881","","","","","","","1","0","0","0.6","","0.5","0.5","0.5","0.5","","","","","0.8","0.2","0.6","0.2","","","","","","","","","","75","K","2","","true","0","full_practice",""
"","bandit","58","204953","0.0-32.0-7.0","75770132","wem/bandit_party_1","AJZZOD77TYA2X","either","5","318","","","","","","","0","0","1","","0.6","0.5","0.5","0.5","0.5","0.8","0.2","0.6","0.2","","","","","","","","","","","","","","75","K","2","","true","0","full_practice",""
"","bandit","59","207843","0.0-32.0-8.0","75770132","wem/bandit_party_1","AJZZOD77TYA2X","either","5","1381","","","","","","","0","0","1","","0.2","0.5","0.5","0.5","0.5","0.8","0.2","0.6","0.2","","","","","","","","","","","","","","76","L","3","","true","0","full_practice",""
"","bandit","60","209692","0.0-32.0-9.0","75770132","wem/bandit_party_1","AJZZOD77TYA2X","either","5","340","","","","","","","1","0","0","0.6","","0.5","0.5","0.5","0.5","","","","","0.8","0.2","0.6","0.2","","","","","","","","","","75","K","2","","true","0","full_practice",""
"","bandit","61","212353","0.0-32.0-10.0","75770132","wem/bandit_party_1","AJZZOD77TYA2X","either","5","1154","","","","","","","0","1","0","","0.6","0.5","0.5","0.5","0.5","0.8","0.2","0.6","0.2","","","","","","","","","","","","","","75","K","2","","true","0","full_practice",""
"","bandit","62","214265","0.0-32.0-11.0","75770132","wem/bandit_party_1","AJZZOD77TYA2X","either","5","402","","","","","","","0","1","0","","0.6","0.5","0.5","0.5","0.5","0.8","0.2","0.6","0.2","","","","","","","","","","","","","","75","K","2","","true","0","full_practice",""
"","bandit","63","215835","0.0-32.0-12.0","75770132","wem/bandit_party_1","AJZZOD77TYA2X","either","5","58","","","","","","","1","0","0","0.6","","0.5","0.5","0.5","0.5","","","","","0.8","0.2","0.6","0.2","","","","","","","","","","75","K","2","","true","0","full_practice",""
"","bandit","64","217360","0.0-32.0-13.0","75770132","wem/bandit_party_1","AJZZOD77TYA2X","either","5","19","","","","","","","0","1","0","","0.6","0.5","0.5","0.5","0.5","0.8","0.2","0.6","0.2","","","","","","","","","","","","","","75","K","2","","true","0","full_practice",""
"","bandit","65","219030","0.0-32.0-14.0","75770132","wem/bandit_party_1","AJZZOD77TYA2X","either","5","162","","","","","","","1","0","0","0.6","","0.5","0.5","0.5","0.5","","","","","0.8","0.2","0.6","0.2","","","","","","","","","","75","K","2","","true","0","full_practice",""
"","bandit","66","220686","0.0-32.0-15.0","75770132","wem/bandit_party_1","AJZZOD77TYA2X","either","5","148","","","","","","","0","1","0","","0.6","0.5","0.5","0.5","0.5","0.8","0.2","0.6","0.2","","","","","","","","","","","","","","75","K","2","","true","0","full_practice",""
"","bandit","67","223636","0.0-32.0-16.0","75770132","wem/bandit_party_1","AJZZOD77TYA2X","either","5","1442","","","","","","","0","0","1","","0.6","0.5","0.5","0.5","0.5","0.8","0.2","0.6","0.2","","","","","","","","","","","","","","75","K","2","","true","0","full_practice",""
"","bandit","68","225374","0.0-32.0-17.0","75770132","wem/bandit_party_1","AJZZOD77TYA2X","either","5","230","","","","","","","0","1","0","","0.6","0.5","0.5","0.5","0.5","0.8","0.2","0.6","0.2","","","","","","","","","","","","","","75","K","2","","true","0","full_practice",""
"","bandit","69","227044","0.0-32.0-18.0","75770132","wem/bandit_party_1","AJZZOD77TYA2X","either","5","158","","","","","","","1","0","0","0.6","","0.5","0.5","0.5","0.5","","","","","0.8","0.2","0.6","0.2","","","","","","","","","","75","K","2","","true","0","full_practice",""
"","bandit","70","228660","0.0-32.0-19.0","75770132","wem/bandit_party_1","AJZZOD77TYA2X","either","5","108","","","","","","","0","0","1","","0.6","0.5","0.5","0.5","0.5","0.8","0.2","0.6","0.2","","","","","","","","","","","","","","75","K","2","","true","0","full_practice",""
"","text","71","232358","0.0-33.0","75770132","wem/bandit_party_1","AJZZOD77TYA2X","either","5","3691","","","32","","","","","","","","","","","","","","","","","","","","","","","","","","","","","","","","","","","","",""
"","text-replacement","72","243789","0.0-34.0","75770132","wem/bandit_party_1","AJZZOD77TYA2X","either","5","10426","","","32","","","","","","","","","","","","","","","","","","","","","","","","","","","","","","","","","","","","",""
"","text-replacement","73","300610","0.0-35.0","75770132","wem/bandit_party_1","AJZZOD77TYA2X","either","5","56821","","","32","","","","","","","","","","","","","","","","","","","","","","","","","","","","","","","","","","","","",""
"","text-replacement","74","307124","0.0-36.0","75770132","wem/bandit_party_1","AJZZOD77TYA2X","either","5","6512","","","32","","","","","","","","","","","","","","","","","","","","","","","","","","","","","","","","","","","","",""
"","text-replacement","75","307568","0.0-37.0","75770132","wem/bandit_party_1","AJZZOD77TYA2X","either","5","441","","","32","","","","","","","","","","","","","","","","","","","","","","","","","","","","","","","","","","","","",""
"","text-replacement","76","308235","0.0-38.0","75770132","wem/bandit_party_1","AJZZOD77TYA2X","either","5","665","","","32","","","","","","","","","","","","","","","","","","","","","","","","","","","","","","","","","","","","",""
"","survey-multi-choice-replacement","77","316658","0.0-39.0-0.0","75770132","wem/bandit_party_1","AJZZOD77TYA2X","either","5","8418","","","","","","","","","","","","","","","","","","","","","","","","Money will be added to the pool for <span style='color:blue;'>DEMOCRATS</span>","","","","","","","attn_check","","","","","","","","","0"
"","survey-multi-choice-replacement","78","322715","0.0-40.0-0.0","75770132","wem/bandit_party_1","AJZZOD77TYA2X","either","5","5042","","","","","","","","","","","","","","","","","","","","","","","","Equal amounts of money will be added to the pool for <span style='color:blue;'>DEMOCRATS</span> and subtracted from the pool for <span style='color:red;'>REPUBLICANS</span>","","","","","","","attn_check","","","","","","","","","2"
"","survey-multi-choice-replacement","79","326601","0.0-41.0-0.0","75770132","wem/bandit_party_1","AJZZOD77TYA2X","either","5","2880","","","","","","","","","","","","","","","","","","","","","","","","No money will be added to either pool","","","","","","","attn_check","","","","","","","","","3"
"","bandit","80","330942","0.0-42.0-0.0","75770132","wem/bandit_party_1","AJZZOD77TYA2X","either","5","1827","","","","","","","0","0","1","","0.1165465043","0.8","0.4","0.6","0.2","0.1165465043","0.4265570961","0.3897275569","0.3340388524","","","","","","","","","","","","","","72","H","0","img/none_selected.jpg","","1","main_expt",""
"","bandit","81","332798","0.0-43.0-0.0","75770132","wem/bandit_party_1","AJZZOD77TYA2X","either","5","341","","","","","","","0","0","1","0.4177099958","","0.8","0.4","0.6","0.2","","","","","0.08371899021","0.4177099958","0.3911966266","0.3223834482","","","","","","","","","","74","J","1","","","2","main_expt",""
"","bandit","82","334781","0.0-44.0-0.0","75770132","wem/bandit_party_1","AJZZOD77TYA2X","either","5","472","","","","","","","0","0","1","","0.4074861021","0.8","0.4","0.6","0.2","0.04339790364","0.4192185534","0.4074861021","0.3585509001","","","","","","","","","","","","","","75","K","2","","","3","main_expt",""
"","bandit","83","336580","0.0-45.0-0.0","75770132","wem/bandit_party_1","AJZZOD77TYA2X","either","5","291","","","","","","","0","0","1","","0.3416436242","0.8","0.4","0.6","0.2","0.04073472785","0.4241610434","0.3965638453","0.3416436242","","","","","","","","","","","","","","76","L","3","","","4","main_expt",""
"","bandit","84","338371","0.0-46.0-0.0","75770132","wem/bandit_party_1","AJZZOD77TYA2X","either","5","278","","","","","","","1","0","0","0.3688269119","","0.8","0.4","0.6","0.2","","","","","0.04731773769","0.4284837315","0.3688269119","0.3444758892","","","","","","","","","","75","K","2","","","5","main_expt",""
"","bandit","85","340184","0.0-47.0-0.0","75770132","wem/bandit_party_1","AJZZOD77TYA2X","either","5","301","","","","","","","1","0","0","0.3865867917","","0.8","0.4","0.6","0.2","","","","","0.05617088868","0.4328708062","0.3865867917","0.3574177426","","","","","","","","","","75","K","2","","","6","main_expt",""
"","bandit","86","341954","0.0-48.0-0.0","75770132","wem/bandit_party_1","AJZZOD77TYA2X","either","5","261","","","","","","","0","0","1","0.4294719924","","0.8","0.4","0.6","0.2","","","","","0.05606577856","0.4176545671","0.4294719924","0.3634052143","","","","","","","","","","75","K","2","","","7","main_expt",""
"","bandit","87","343830","0.0-49.0-0.0","75770132","wem/bandit_party_1","AJZZOD77TYA2X","either","5","368","","","","","","","0","1","0","","0.3675420607","0.8","0.4","0.6","0.2","0.09244853328","0.4022395488","0.4210378118","0.3675420607","","","","","","","","","","","","","","76","L","3","","","8","main_expt",""
"","bandit","88","345601","0.0-50.0-0.0","75770132","wem/bandit_party_1","AJZZOD77TYA2X","either","5","263","","","","","","","0","0","1","0.3921196104","","0.8","0.4","0.6","0.2","","","","","0.1271341085","0.3929004949","0.4502112583","0.3921196104","","","","","","","","","","76","L","3","","","9","main_expt",""
"","bandit","89","347528","0.0-51.0-0.0","75770132","wem/bandit_party_1","AJZZOD77TYA2X","either","5","417","","","","","","","0","0","1","","0.4026182126","0.8","0.4","0.6","0.2","0.1370717255","0.3863711448","0.4452653155","0.4026182126","","","","","","","","","","","","","","76","L","3","","","10","main_expt",""
"","bandit","90","349926","0.0-52.0-0.0","75770132","wem/bandit_party_1","AJZZOD77TYA2X","either","5","893","","","","","","","0","0","1","0.4205849279","","0.8","0.4","0.6","0.2","","","","","0.1275050207","0.4205849279","0.4352349267","0.3543069494","","","","","","","","","","74","J","1","","","11","main_expt",""
"","bandit","91","351861","0.0-53.0-0.0","75770132","wem/bandit_party_1","AJZZOD77TYA2X","either","5","427","","","","","","","0","0","1","","0.4525069231","0.8","0.4","0.6","0.2","0.122317004","0.4525069231","0.4029030639","0.3504097904","","","","","","","","","","","","","","74","J","1","","","12","main_expt",""
"","bandit","92","353670","0.0-54.0-0.0","75770132","wem/bandit_party_1","AJZZOD77TYA2X","either","5","301","","","","","","","0","0","1","0.1251711411","","0.8","0.4","0.6","0.2","","","","","0.1251711411","0.4485799753","0.4198147105","0.2787441393","","","","","","","","","","72","H","0","img/none_selected.jpg","","13","main_expt",""
"","bandit","93","355427","0.0-55.0-0.0","75770132","wem/bandit_party_1","AJZZOD77TYA2X","either","5","245","","","","","","","0","0","1","","0.1380641988","0.8","0.4","0.6","0.2","0.1380641988","0.4504049656","0.3761312174","0.2723245106","","","","","","","","","","","","","","72","H","0","img/none_selected.jpg","","14","main_expt",""
"","bandit","94","356973","0.0-56.0-0.0","75770132","wem/bandit_party_1","AJZZOD77TYA2X","either","5","35","","","","","","","0","0","1","0.4017507227","","0.8","0.4","0.6","0.2","","","","","0.2010812313","0.4281165459","0.4017507227","0.3687644442","","","","","","","","","","75","K","2","","","15","main_expt",""
"","bandit","95","358525","0.0-57.0-0.0","75770132","wem/bandit_party_1","AJZZOD77TYA2X","either","5","44","","","","","","","0","1","0","","0.3859888637","0.8","0.4","0.6","0.2","0.1747275657","0.4035101098","0.3859888637","0.3992289848","","","","","","","","","","","","","","75","K","2","","","16","main_expt",""
"","bandit","96","360141","0.0-58.0-0.0","75770132","wem/bandit_party_1","AJZZOD77TYA2X","either","5","106","","","","","","","0","0","1","","0.4067061876","0.8","0.4","0.6","0.2","0.1816524112","0.4063691663","0.3706978481","0.4067061876","","","","","","","","","","","","","","76","L","3","","","17","main_expt",""
"","bandit","97","361780","0.0-59.0-0.0","75770132","wem/bandit_party_1","AJZZOD77TYA2X","either","5","130","","","","","","","1","0","0","0.3323991027","","0.8","0.4","0.6","0.2","","","","","0.1700798448","0.4201618032","0.3323991027","0.3969002131","","","","","","","","","","75","K","2","","","18","main_expt",""
"","bandit","98","363432","0.0-60.0-0.0","75770132","wem/bandit_party_1","AJZZOD77TYA2X","either","5","141","","","","","","","0","0","1","","0.3301718366","0.8","0.4","0.6","0.2","0.1998500639","0.3868389751","0.3301718366","0.3930099592","","","","","","","","","","","","","","75","K","2","","","19","main_expt",""
"","bandit","99","365023","0.0-61.0-0.0","75770132","wem/bandit_party_1","AJZZOD77TYA2X","either","5","78","","","","","","","0","1","0","","0.3714618997","0.8","0.4","0.6","0.2","0.2418808817","0.3868875991","0.3714618997","0.3791602553","","","","","","","","","","","","","","75","K","2","","","20","main_expt",""
"","bandit","100","366620","0.0-62.0-0.0","75770132","wem/bandit_party_1","AJZZOD77TYA2X","either","5","89","","","","","","","0","0","1","0.3621694591","","0.8","0.4","0.6","0.2","","","","","0.2293341009","0.4253770554","0.3621694591","0.4127515201","","","","","","","","","","75","K","2","","","21","main_expt",""
"","bandit","101","368633","0.0-63.0-0.0","75770132","wem/bandit_party_1","AJZZOD77TYA2X","either","5","503","","","","","","","0","0","1","","0.4164833055","0.8","0.4","0.6","0.2","0.2074184163","0.4285762007","0.3648829928","0.4164833055","","","","","","","","","","","","","","76","L","3","","","22","main_expt",""
"","bandit","102","370202","0.0-64.0-0.0","75770132","wem/bandit_party_1","AJZZOD77TYA2X","either","5","55","","","","","","","0","0","1","","0.2856994719","0.8","0.4","0.6","0.2","0.1832507358","0.4082522222","0.2856994719","0.4143027846","","","","","","","","","","","","","","75","K","2","","","23","main_expt",""
"","bandit","103","372004","0.0-65.0-0.0","75770132","wem/bandit_party_1","AJZZOD77TYA2X","either","5","297","","","","","","","0","0","1","","0.3152516524","0.8","0.4","0.6","0.2","0.1469425149","0.4027270218","0.3152516524","0.3649270698","","","","","","","","","","","","","","75","K","2","","","24","main_expt",""
"","bandit","104","373674","0.0-66.0-0.0","75770132","wem/bandit_party_1","AJZZOD77TYA2X","either","5","163","","","","","","","1","0","0","0.2778145345","","0.8","0.4","0.6","0.2","","","","","0.102794739","0.4100212433","0.2778145345","0.392676409","","","","","","","","","","75","K","2","","","25","main_expt",""
"","bandit","105","376084","0.0-67.0-0.0","75770132","wem/bandit_party_1","AJZZOD77TYA2X","either","5","899","","","","","","","0","1","0","","0.4031565401","0.8","0.4","0.6","0.2","0.1173732637","0.4190791169","0.3170506137","0.4031565401","","","","","","","","","","","","","","76","L","3","","","26","main_expt",""
"","bandit","106","378293","0.0-68.0-0.0","75770132","wem/bandit_party_1","AJZZOD77TYA2X","either","5","700","","","","","","","0","1","0","","0.4245959001","0.8","0.4","0.6","0.2","0.08835016803","0.4527212376","0.3223143746","0.4245959001","","","","","","","","","","","","","","76","L","3","","","27","main_expt",""
"","bandit","107","380135","0.0-69.0-0.0","75770132","wem/bandit_party_1","AJZZOD77TYA2X","either","5","335","","","","","","","0","1","0","","0.4232885055","0.8","0.4","0.6","0.2","0.1134440288","0.4480998813","0.3234472479","0.4232885055","","","","","","","","","","","","","","76","L","3","","","28","main_expt",""
"","bandit","108","381805","0.0-70.0-0.0","75770132","wem/bandit_party_1","AJZZOD77TYA2X","either","5","163","","","","","","","0","1","0","","0.4495512981","0.8","0.4","0.6","0.2","0.1982905849","0.4628669208","0.2881425904","0.4495512981","","","","","","","","","","","","","","76","L","3","","","29","main_expt",""
"","bandit","109","383365","0.0-71.0-0.0","75770132","wem/bandit_party_1","AJZZOD77TYA2X","either","5","53","","","","","","","0","1","0","","0.4485299892","0.8","0.4","0.6","0.2","0.2366655967","0.4565655028","0.2326555855","0.4485299892","","","","","","","","","","","","","","76","L","3","","","30","main_expt",""
"","bandit","110","385100","0.0-72.0-0.0","75770132","wem/bandit_party_1","AJZZOD77TYA2X","either","5","227","","","","","","","0","1","0","","0.4599237238","0.8","0.4","0.6","0.2","0.1622470467","0.4686031056","0.2364604256","0.4599237238","","","","","","","","","","","","","","76","L","3","","","31","main_expt",""
"","bandit","111","386716","0.0-73.0-0.0","75770132","wem/bandit_party_1","AJZZOD77TYA2X","either","5","110","","","","","","","0","0","1","","0.4508116693","0.8","0.4","0.6","0.2","0.1771911602","0.4659582456","0.2451982598","0.4508116693","","","","","","","","","","","","","","76","L","3","","","32","main_expt",""
"","bandit","112","388544","0.0-74.0-0.0","75770132","wem/bandit_party_1","AJZZOD77TYA2X","either","5","318","","","","","","","0","1","0","","0.45101727","0.8","0.4","0.6","0.2","0.1622836308","0.4810757035","0.2360369815","0.45101727","","","","","","","","","","","","","","76","L","3","","","33","main_expt",""
"","bandit","113","390090","0.0-75.0-0.0","75770132","wem/bandit_party_1","AJZZOD77TYA2X","either","5","41","","","","","","","0","0","1","","0.4340174653","0.8","0.4","0.6","0.2","0.1655985557","0.4842727378","0.2317763892","0.4340174653","","","","","","","","","","","","","","76","L","3","","","34","main_expt",""
"","bandit","114","391804","0.0-76.0-0.0","75770132","wem/bandit_party_1","AJZZOD77TYA2X","either","5","207","","","","","","","0","0","1","","0.4040147441","0.8","0.4","0.6","0.2","0.1492797185","0.4745470136","0.2527891731","0.4040147441","","","","","","","","","","","","","","76","L","3","","","35","main_expt",""
"","bandit","115","393392","0.0-77.0-0.0","75770132","wem/bandit_party_1","AJZZOD77TYA2X","either","5","77","","","","","","","0","0","1","","0.4268829696","0.8","0.4","0.6","0.2","0.1504543003","0.4440965139","0.2641283143","0.4268829696","","","","","","","","","","","","","","76","L","3","","","36","main_expt",""
"","bandit","116","395536","0.0-78.0-0.0","75770132","wem/bandit_party_1","AJZZOD77TYA2X","either","5","633","","","","","","","1","0","0","0.2309310423","","0.8","0.4","0.6","0.2","","","","","0.1064249526","0.4544425755","0.2309310423","0.4562327564","","","","","","","","","","75","K","2","","","37","main_expt",""
"","bandit","117","397350","0.0-79.0-0.0","75770132","wem/bandit_party_1","AJZZOD77TYA2X","either","5","304","","","","","","","0","0","1","","0.2093170459","0.8","0.4","0.6","0.2","0.1346530267","0.4700138218","0.2093170459","0.4481627861","","","","","","","","","","","","","","75","K","2","","","38","main_expt",""
"","bandit","118","399281","0.0-80.0-0.0","75770132","wem/bandit_party_1","AJZZOD77TYA2X","either","5","422","","","","","","","0","0","1","0.1398625959","","0.8","0.4","0.6","0.2","","","","","0.1303494481","0.466948448","0.1398625959","0.4475890948","","","","","","","","","","75","K","2","","","39","main_expt",""
"","bandit","119","400856","0.0-81.0-0.0","75770132","wem/bandit_party_1","AJZZOD77TYA2X","either","5","35","","","","","","","0","1","0","","0.4679256248","0.8","0.4","0.6","0.2","0.1492074344","0.4679256248","0.09690087606","0.4501575696","","","","","","","","","","","","","","74","J","1","","","40","main_expt",""
"","bandit","120","402745","0.0-82.0-0.0","75770132","wem/bandit_party_1","AJZZOD77TYA2X","either","5","378","","","","","","","0","0","1","0.445537573","","0.8","0.4","0.6","0.2","","","","","0.1370672299","0.445537573","0.1129569356","0.4121884666","","","","","","","","","","74","J","1","","","41","main_expt",""
"","bandit","121","404450","0.0-83.0-0.0","75770132","wem/bandit_party_1","AJZZOD77TYA2X","either","5","194","","","","","","","0","1","0","","0.4521531226","0.8","0.4","0.6","0.2","0.08144147181","0.4521531226","0.1227033228","0.4379939247","","","","","","","","","","","","","","74","J","1","","","42","main_expt",""
"","bandit","122","406156","0.0-84.0-0.0","75770132","wem/bandit_party_1","AJZZOD77TYA2X","either","5","197","","","","","","","0","0","1","0.4695072217","","0.8","0.4","0.6","0.2","","","","","0.06793865388","0.4695072217","0.08393287497","0.4271747655","","","","","","","","","","74","J","1","","","43","main_expt",""
"","bandit","123","407942","0.0-85.0-0.0","75770132","wem/bandit_party_1","AJZZOD77TYA2X","either","5","277","","","","","","","0","1","0","","0.4807409838","0.8","0.4","0.6","0.2","0.05295344446","0.4807409838","0.06260074275","0.4480494518","","","","","","","","","","","","","","74","J","1","","","44","main_expt",""
"","bandit","124","411575","0.0-86.0-0.0","75770132","wem/bandit_party_1","AJZZOD77TYA2X","either","5","2126","","","","","","","0","0","1","","0.4269729589","0.8","0.4","0.6","0.2","0.02744239742","0.4507048108","0.08062123592","0.4269729589","","","","","","","","","","","","","","76","L","3","","","45","main_expt",""
"","bandit","125","413411","0.0-87.0-0.0","75770132","wem/bandit_party_1","AJZZOD77TYA2X","either","5","325","","","","","","","0","0","1","","0.4382321206","0.8","0.4","0.6","0.2","0.02347437243","0.4382321206","0.1110847749","0.4475746277","","","","","","","","","","","","","","74","J","1","","","46","main_expt",""
"","bandit","126","414987","0.0-88.0-0.0","75770132","wem/bandit_party_1","AJZZOD77TYA2X","either","5","62","","","","","","","0","0","1","0.4393937913","","0.8","0.4","0.6","0.2","","","","","0.02418160198","0.4393937913","0.05346849493","0.4295618238","","","","","","","","","","74","J","1","","","47","main_expt",""
"","bandit","127","416505","0.0-89.0-0.0","75770132","wem/bandit_party_1","AJZZOD77TYA2X","either","5","12","","","","","","","0","0","1","","0.440318131","0.8","0.4","0.6","0.2","0.01182676654","0.440318131","0.04499733497","0.4431907244","","","","","","","","","","","","","","74","J","1","","","48","main_expt",""
"","bandit","128","418675","0.0-90.0-0.0","75770132","wem/bandit_party_1","AJZZOD77TYA2X","either","5","653","","","","","","","0","0","1","0.0186287842","","0.8","0.4","0.6","0.2","","","","","0.0186287842","0.4362102412","0.07378534534","0.4187732916","","","","","","","","","","72","H","0","img/none_selected.jpg","","49","main_expt",""
"","bandit","129","420256","0.0-91.0-0.0","75770132","wem/bandit_party_1","AJZZOD77TYA2X","either","5","68","","","","","","","0","1","0","","0.44488671","0.8","0.4","0.6","0.2","0.02550629551","0.44488671","0.06168845619","0.356579213","","","","","","","","","","","","","","74","J","1","","","50","main_expt",""
"","bandit","130","421786","0.0-92.0-0.0","75770132","wem/bandit_party_1","AJZZOD77TYA2X","either","5","20","","","","","","","0","0","1","","0.4633405548","0.8","0.4","0.6","0.2","0.04366809707","0.4633405548","0.1062028567","0.2629404955","","","","","","","","","","","","","","74","J","1","","","51","main_expt",""
"","bandit","131","423710","0.0-93.0-0.0","75770132","wem/bandit_party_1","AJZZOD77TYA2X","either","5","411","","","","","","","0","0","1","","0.4528043762","0.8","0.4","0.6","0.2","0.04357168116","0.4528043762","0.1379608546","0.2919747068","","","","","","","","","","","","","","74","J","1","","","52","main_expt",""
"","bandit","132","425221","0.0-94.0-0.0","75770132","wem/bandit_party_1","AJZZOD77TYA2X","either","5","0","","","","","","","0","0","1","","0.1356826849","0.8","0.4","0.6","0.2","0.03899227154","0.4390431751","0.1356826849","0.3809901122","","","","","","","","","","","","","","75","K","2","","","53","main_expt",""
"","bandit","133","426965","0.0-95.0-0.0","75770132","wem/bandit_party_1","AJZZOD77TYA2X","either","5","231","","","","","","","0","1","0","","0.4549270822","0.8","0.4","0.6","0.2","0.04009146386","0.4549270822","0.1038772241","0.3452518694","","","","","","","","","","","","","","74","J","1","","","54","main_expt",""
"","bandit","134","428625","0.0-96.0-0.0","75770132","wem/bandit_party_1","AJZZOD77TYA2X","either","5","151","","","","","","","0","0","1","0.4710341864","","0.8","0.4","0.6","0.2","","","","","0.0155768565","0.4710341864","0.1689791829","0.3263112327","","","","","","","","","","74","J","1","","","55","main_expt",""
"","bandit","135","430295","0.0-97.0-0.0","75770132","wem/bandit_party_1","AJZZOD77TYA2X","either","5","157","","","","","","","0","0","1","","0.4745834276","0.8","0.4","0.6","0.2","0.02112461672","0.4745834276","0.1108888145","0.3308963945","","","","","","","","","","","","","","74","J","1","","","56","main_expt",""
"","bandit","136","431863","0.0-98.0-0.0","75770132","wem/bandit_party_1","AJZZOD77TYA2X","either","5","57","","","","","","","0","0","1","","0.489318572","0.8","0.4","0.6","0.2","0.0126553198","0.489318572","0.1206542402","0.3150326571","","","","","","","","","","","","","","74","J","1","","","57","main_expt",""
"","bandit","137","433442","0.0-99.0-0.0","75770132","wem/bandit_party_1","AJZZOD77TYA2X","either","5","68","","","","","","","0","0","1","","0.480037986","0.8","0.4","0.6","0.2","0.01131359515","0.480037986","0.09707343937","0.3049116772","","","","","","","","","","","","","","74","J","1","","","58","main_expt",""
"","bandit","138","435069","0.0-100.0-0.0","75770132","wem/bandit_party_1","AJZZOD77TYA2X","either","5","117","","","","","","","0","0","1","0.1044384952","","0.8","0.4","0.6","0.2","","","","","0.01030075821","0.4593461039","0.1044384952","0.3050987947","","","","","","","","","","75","K","2","","","59","main_expt",""
"","bandit","139","436741","0.0-101.0-0.0","75770132","wem/bandit_party_1","AJZZOD77TYA2X","either","5","160","","","","","","","1","0","0","0.3274009355","","0.8","0.4","0.6","0.2","","","","","0.005868957973","0.446051488","0.08890369623","0.3274009355","","","","","","","","","","76","L","3","","","60","main_expt",""
"","bandit","140","438449","0.0-102.0-0.0","75770132","wem/bandit_party_1","AJZZOD77TYA2X","either","5","198","","","","","","","0","0","1","0.3428943983","","0.8","0.4","0.6","0.2","","","","","0.004361943215","0.4391285327","0.08921221942","0.3428943983","","","","","","","","","","76","L","3","","","61","main_expt",""
"","bandit","141","440520","0.0-103.0-0.0","75770132","wem/bandit_party_1","AJZZOD77TYA2X","either","5","559","","","","","","","0","1","0","","0.3549763931","0.8","0.4","0.6","0.2","0.005208412743","0.4063883723","0.09812025034","0.3549763931","","","","","","","","","","","","","","76","L","3","","","62","main_expt",""
"","bandit","142","442148","0.0-104.0-0.0","75770132","wem/bandit_party_1","AJZZOD77TYA2X","either","5","117","","","","","","","0","1","0","","0.3496678451","0.8","0.4","0.6","0.2","0.006461011255","0.4330387396","0.09006279409","0.3496678451","","","","","","","","","","","","","","76","L","3","","","63","main_expt",""
"","bandit","143","443833","0.0-105.0-0.0","75770132","wem/bandit_party_1","AJZZOD77TYA2X","either","5","176","","","","","","","1","0","0","0.3188537263","","0.8","0.4","0.6","0.2","","","","","0.01267926231","0.4207902426","0.1118976224","0.3188537263","","","","","","","","","","76","L","3","","","64","main_expt",""
"","bandit","144","445398","0.0-106.0-0.0","75770132","wem/bandit_party_1","AJZZOD77TYA2X","either","5","54","","","","","","","0","0","1","","0.3191795336","0.8","0.4","0.6","0.2","0.009732787917","0.3719582347","0.1053817613","0.3191795336","","","","","","","","","","","","","","76","L","3","","","65","main_expt",""
"","bandit","145","447194","0.0-107.0-0.0","75770132","wem/bandit_party_1","AJZZOD77TYA2X","either","5","285","","","","","","","0","1","0","","0.268616347","0.8","0.4","0.6","0.2","0.01092542651","0.3748569955","0.1307356695","0.268616347","","","","","","","","","","","","","","76","L","3","","","66","main_expt",""
"","bandit","146","449107","0.0-108.0-0.0","75770132","wem/bandit_party_1","AJZZOD77TYA2X","either","5","404","","","","","","","0","0","1","0.259194563","","0.8","0.4","0.6","0.2","","","","","0.02125534741","0.335252031","0.1418436428","0.259194563","","","","","","","","","","76","L","3","","","67","main_expt",""
"","bandit","147","450891","0.0-109.0-0.0","75770132","wem/bandit_party_1","AJZZOD77TYA2X","either","5","271","","","","","","","0","1","0","","0.2281204868","0.8","0.4","0.6","0.2","0.02360283027","0.3199157278","0.1459089566","0.2281204868","","","","","","","","","","","","","","76","L","3","","","68","main_expt",""
"","bandit","148","452560","0.0-110.0-0.0","75770132","wem/bandit_party_1","AJZZOD77TYA2X","either","5","160","","","","","","","0","0","1","0.2195844169","","0.8","0.4","0.6","0.2","","","","","0.02539305756","0.3068525281","0.1809721424","0.2195844169","","","","","","","","","","76","L","3","","","69","main_expt",""
"","bandit","149","454312","0.0-111.0-0.0","75770132","wem/bandit_party_1","AJZZOD77TYA2X","either","5","241","","","","","","","0","0","1","","0.3181076016","0.8","0.4","0.6","0.2","0.05014388586","0.3181076016","0.1784068974","0.1883338509","","","","","","","","","","","","","","74","J","1","","","70","main_expt",""
"","bandit","150","455930","0.0-112.0-0.0","75770132","wem/bandit_party_1","AJZZOD77TYA2X","either","5","108","","","","","","","0","1","0","","0.1639708178","0.8","0.4","0.6","0.2","0.04209054697","0.2926426422","0.1973023396","0.1639708178","","","","","","","","","","","","","","76","L","3","","","71","main_expt",""
"","bandit","151","457626","0.0-113.0-0.0","75770132","wem/bandit_party_1","AJZZOD77TYA2X","either","5","184","","","","","","","0","0","1","","0.1312842785","0.8","0.4","0.6","0.2","0.05611199342","0.2380263643","0.2436342847","0.1312842785","","","","","","","","","","","","","","76","L","3","","","72","main_expt",""
"","bandit","152","459324","0.0-114.0-0.0","75770132","wem/bandit_party_1","AJZZOD77TYA2X","either","5","192","","","","","","","0","1","0","","0.2407197948","0.8","0.4","0.6","0.2","0.05293238473","0.2407197948","0.1992173182","0.1805041857","","","","","","","","","","","","","","74","J","1","","","73","main_expt",""
"","bandit","153","461103","0.0-115.0-0.0","75770132","wem/bandit_party_1","AJZZOD77TYA2X","either","5","272","","","","","","","0","0","1","","0.1739557812","0.8","0.4","0.6","0.2","0.0318456884","0.2317468449","0.2347098304","0.1739557812","","","","","","","","","","","","","","76","L","3","","","74","main_expt",""
"","bandit","154","462674","0.0-116.0-0.0","75770132","wem/bandit_party_1","AJZZOD77TYA2X","either","5","61","","","","","","","0","0","1","","0.2545997551","0.8","0.4","0.6","0.2","0.03873230677","0.2545997551","0.2641442137","0.2434916027","","","","","","","","","","","","","","74","J","1","","","75","main_expt",""
"","bandit","155","464210","0.0-117.0-0.0","75770132","wem/bandit_party_1","AJZZOD77TYA2X","either","5","20","","","","","","","0","0","1","0.2890845388","","0.8","0.4","0.6","0.2","","","","","0.03304947682","0.2890845388","0.3192644053","0.2438468568","","","","","","","","","","74","J","1","","","76","main_expt",""
"","bandit","156","465780","0.0-118.0-0.0","75770132","wem/bandit_party_1","AJZZOD77TYA2X","either","5","57","","","","","","","0","0","1","","0.2425324642","0.8","0.4","0.6","0.2","0.02607887458","0.2386362654","0.3351132613","0.2425324642","","","","","","","","","","","","","","76","L","3","","","77","main_expt",""
"","bandit","157","467383","0.0-119.0-0.0","75770132","wem/bandit_party_1","AJZZOD77TYA2X","either","5","91","","","","","","","0","0","1","","0.205588479","0.8","0.4","0.6","0.2","0.02492981692","0.2673679704","0.3086784207","0.205588479","","","","","","","","","","","","","","76","L","3","","","78","main_expt",""
"","bandit","158","468921","0.0-120.0-0.0","75770132","wem/bandit_party_1","AJZZOD77TYA2X","either","5","24","","","","","","","0","1","0","","0.213062191","0.8","0.4","0.6","0.2","0.01824110002","0.2813811921","0.3076482073","0.213062191","","","","","","","","","","","","","","76","L","3","","","79","main_expt",""
"","bandit","159","470705","0.0-121.0-0.0","75770132","wem/bandit_party_1","AJZZOD77TYA2X","either","5","273","","","","","","","0","0","1","0.3605025214","","0.8","0.4","0.6","0.2","","","","","0.0202176162","0.2419447949","0.3605025214","0.1852926048","","","","","","","","","","75","K","2","","","80","main_expt",""
"","bandit","160","472344","0.0-122.0-0.0","75770132","wem/bandit_party_1","AJZZOD77TYA2X","either","5","124","","","","","","","0","0","1","","0.2332942271","0.8","0.4","0.6","0.2","0.0252752587","0.323481111","0.3286166321","0.2332942271","","","","","","","","","","","","","","76","L","3","","","81","main_expt",""
"","bandit","161","474172","0.0-123.0-0.0","75770132","wem/bandit_party_1","AJZZOD77TYA2X","either","5","318","","","","","","","0","0","1","","0.2087797338","0.8","0.4","0.6","0.2","0.05668457717","0.3097244961","0.3459677762","0.2087797338","","","","","","","","","","","","","","76","L","3","","","82","main_expt",""
"","bandit","162","476383","0.0-124.0-0.0","75770132","wem/bandit_party_1","AJZZOD77TYA2X","either","5","704","","","","","","","0","0","1","0.2049979043","","0.8","0.4","0.6","0.2","","","","","0.07760530004","0.2787498647","0.3092751195","0.2049979043","","","","","","","","","","76","L","3","","","83","main_expt",""
"","bandit","163","478187","0.0-125.0-0.0","75770132","wem/bandit_party_1","AJZZOD77TYA2X","either","5","264","","","","","","","0","0","1","","0.2589524449","0.8","0.4","0.6","0.2","0.03696005566","0.2589524449","0.3044630387","0.2151780091","","","","","","","","","","","","","","74","J","1","","","84","main_expt",""
"","bandit","164","479825","0.0-126.0-0.0","75770132","wem/bandit_party_1","AJZZOD77TYA2X","either","5","128","","","","","","","0","0","1","0.04177257934","","0.8","0.4","0.6","0.2","","","","","0.04177257934","0.2769318636","0.2812480587","0.1497615914","","","","","","","","","","72","H","0","img/none_selected.jpg","","85","main_expt",""
"","bandit","165","481983","0.0-127.0-0.0","75770132","wem/bandit_party_1","AJZZOD77TYA2X","either","5","646","","","","","","","0","1","0","","0.2506532223","0.8","0.4","0.6","0.2","0.0385770192","0.2849222391","0.2506532223","0.1223687677","","","","","","","","","","","","","","75","K","2","","","86","main_expt",""
"","bandit","166","483602","0.0-128.0-0.0","75770132","wem/bandit_party_1","AJZZOD77TYA2X","either","5","113","","","","","","","0","0","1","","0.2269900387","0.8","0.4","0.6","0.2","0.03720252147","0.3131087309","0.2269900387","0.1472857413","","","","","","","","","","","","","","75","K","2","","","87","main_expt",""
"","bandit","167","485290","0.0-129.0-0.0","75770132","wem/bandit_party_1","AJZZOD77TYA2X","either","5","177","","","","","","","0","0","1","0.1252586248","","0.8","0.4","0.6","0.2","","","","","0.06746059371","0.3038587512","0.1504729919","0.1252586248","","","","","","","","","","76","L","3","","","88","main_expt",""
"","bandit","168","486923","0.0-130.0-0.0","75770132","wem/bandit_party_1","AJZZOD77TYA2X","either","5","124","","","","","","","0","0","1","0.1382070302","","0.8","0.4","0.6","0.2","","","","","0.04069757945","0.3308022157","0.1382070302","0.1194927994","","","","","","","","","","75","K","2","","","89","main_expt",""
"","bandit","169","488545","0.0-131.0-0.0","75770132","wem/bandit_party_1","AJZZOD77TYA2X","either","5","110","","","","","","","0","1","0","","0.3574922351","0.8","0.4","0.6","0.2","0.07325379503","0.3574922351","0.1364765349","0.1589750007","","","","","","","","","","","","","","74","J","1","","","90","main_expt",""
"","bandit","170","490161","0.0-132.0-0.0","75770132","wem/bandit_party_1","AJZZOD77TYA2X","either","5","104","","","","","","","0","0","1","0.3729517688","","0.8","0.4","0.6","0.2","","","","","0.06877471811","0.3729517688","0.09318196272","0.1859960426","","","","","","","","","","74","J","1","","","91","main_expt",""
"","bandit","171","491816","0.0-133.0-0.0","75770132","wem/bandit_party_1","AJZZOD77TYA2X","either","5","142","","","","","","","0","0","1","0.398352994","","0.8","0.4","0.6","0.2","","","","","0.04115987362","0.398352994","0.06946097624","0.192419488","","","","","","","","","","74","J","1","","","92","main_expt",""
"","bandit","172","493556","0.0-134.0-0.0","75770132","wem/bandit_party_1","AJZZOD77TYA2X","either","5","233","","","","","","","1","0","0","0.4135860398","","0.8","0.4","0.6","0.2","","","","","0.07078892783","0.4135860398","0.08102832817","0.1716033463","","","","","","","","","","74","J","1","","","93","main_expt",""
"","bandit","173","495198","0.0-135.0-0.0","75770132","wem/bandit_party_1","AJZZOD77TYA2X","either","5","132","","","","","","","0","1","0","","0.3786880174","0.8","0.4","0.6","0.2","0.05572868433","0.3786880174","0.1271360848","0.1935897604","","","","","","","","","","","","","","74","J","1","","","94","main_expt",""
"","bandit","174","496947","0.0-136.0-0.0","75770132","wem/bandit_party_1","AJZZOD77TYA2X","either","5","238","","","","","","","0","0","1","","0.3823424718","0.8","0.4","0.6","0.2","0.05056929995","0.3823424718","0.1097592989","0.2193228015","","","","","","","","","","","","","","74","J","1","","","95","main_expt",""
"","bandit","175","498600","0.0-137.0-0.0","75770132","wem/bandit_party_1","AJZZOD77TYA2X","either","5","144","","","","","","","0","0","1","","0.3642725552","0.8","0.4","0.6","0.2","0.04159874267","0.3642725552","0.1085490834","0.3262643469","","","","","","","","","","","","","","74","J","1","","","96","main_expt",""
"","bandit","176","500296","0.0-138.0-0.0","75770132","wem/bandit_party_1","AJZZOD77TYA2X","either","5","184","","","","","","","0","0","1","0.3197717944","","0.8","0.4","0.6","0.2","","","","","0.03654451862","0.3197717944","0.1049812554","0.3207405496","","","","","","","","","","74","J","1","","","97","main_expt",""
"","bandit","177","502046","0.0-139.0-0.0","75770132","wem/bandit_party_1","AJZZOD77TYA2X","either","5","241","","","","","","","0","0","1","","0.2514424369","0.8","0.4","0.6","0.2","0.04190300095","0.2514424369","0.08177978443","0.3712856991","","","","","","","","","","","","","","74","J","1","","","98","main_expt",""
"","bandit","178","503714","0.0-140.0-0.0","75770132","wem/bandit_party_1","AJZZOD77TYA2X","either","5","160","","","","","","","0","0","1","0.2926772137","","0.8","0.4","0.6","0.2","","","","","0.08742990617","0.2926772137","0.07574087804","0.3740145378","","","","","","","","","","74","J","1","","","99","main_expt",""
"","bandit","179","505246","0.0-141.0-0.0","75770132","wem/bandit_party_1","AJZZOD77TYA2X","either","5","20","","","","","","","0","0","1","","0.234485335","0.8","0.4","0.6","0.2","0.08966523481","0.234485335","0.07829319678","0.3776295542","","","","","","","","","","","","","","74","J","1","","","100","main_expt",""
"","bandit","180","506866","0.0-142.0-0.0","75770132","wem/bandit_party_1","AJZZOD77TYA2X","either","5","112","","","","","","","0","0","1","","0.250352175","0.8","0.4","0.6","0.2","0.07849065771","0.250352175","0.07919243683","0.3592666398","","","","","","","","","","","","","","74","J","1","","","101","main_expt",""
"","bandit","181","508510","0.0-143.0-0.0","75770132","wem/bandit_party_1","AJZZOD77TYA2X","either","5","132","","","","","","","0","1","0","","0.3412191773","0.8","0.4","0.6","0.2","0.1054267613","0.2139972863","0.1052753188","0.3412191773","","","","","","","","","","","","","","76","L","3","","","102","main_expt",""
"","bandit","182","510186","0.0-144.0-0.0","75770132","wem/bandit_party_1","AJZZOD77TYA2X","either","5","167","","","","","","","0","0","1","","0.3133100433","0.8","0.4","0.6","0.2","0.1120981937","0.20092706","0.1248526142","0.3133100433","","","","","","","","","","","","","","76","L","3","","","103","main_expt",""
"","bandit","183","511771","0.0-145.0-0.0","75770132","wem/bandit_party_1","AJZZOD77TYA2X","either","5","53","","","","","","","0","0","1","","0.3219148419","0.8","0.4","0.6","0.2","0.1034740879","0.2305366804","0.142969925","0.3219148419","","","","","","","","","","","","","","76","L","3","","","104","main_expt",""
"","bandit","184","513334","0.0-146.0-0.0","75770132","wem/bandit_party_1","AJZZOD77TYA2X","either","5","44","","","","","","","0","0","1","0.3300892518","","0.8","0.4","0.6","0.2","","","","","0.07597240327","0.2102135581","0.13947254","0.3300892518","","","","","","","","","","76","L","3","","","105","main_expt",""
"","bandit","185","515016","0.0-147.0-0.0","75770132","wem/bandit_party_1","AJZZOD77TYA2X","either","5","170","","","","","","","1","0","0","0.3401839058","","0.8","0.4","0.6","0.2","","","","","0.1124257427","0.2219457329","0.1329526997","0.3401839058","","","","","","","","","","76","L","3","","","106","main_expt",""
"","bandit","186","516612","0.0-148.0-0.0","75770132","wem/bandit_party_1","AJZZOD77TYA2X","either","5","80","","","","","","","0","0","1","","0.3784706915","0.8","0.4","0.6","0.2","0.1133168519","0.3048423019","0.1727290233","0.3784706915","","","","","","","","","","","","","","76","L","3","","","107","main_expt",""
"","bandit","187","518239","0.0-149.0-0.0","75770132","wem/bandit_party_1","AJZZOD77TYA2X","either","5","117","","","","","","","0","0","1","","0.258150515","0.8","0.4","0.6","0.2","0.1752395656","0.258150515","0.1864487031","0.3945753887","","","","","","","","","","","","","","74","J","1","","","108","main_expt",""
"","bandit","188","519899","0.0-150.0-0.0","75770132","wem/bandit_party_1","AJZZOD77TYA2X","either","5","150","","","","","","","0","1","0","","0.356827327","0.8","0.4","0.6","0.2","0.1862973424","0.1859129148","0.2463216238","0.356827327","","","","","","","","","","","","","","76","L","3","","","109","main_expt",""
"","bandit","189","521567","0.0-151.0-0.0","75770132","wem/bandit_party_1","AJZZOD77TYA2X","either","5","152","","","","","","","0","0","1","0.2344179837","","0.8","0.4","0.6","0.2","","","","","0.2015845776","0.1371624404","0.2431522628","0.2344179837","","","","","","","","","","76","L","3","","","110","main_expt",""
"","bandit","190","523109","0.0-152.0-0.0","75770132","wem/bandit_party_1","AJZZOD77TYA2X","either","5","29","","","","","","","0","0","1","","0.2644823096","0.8","0.4","0.6","0.2","0.2003651753","0.1258232978","0.1757476643","0.2644823096","","","","","","","","","","","","","","76","L","3","","","111","main_expt",""
"","bandit","191","524777","0.0-153.0-0.0","75770132","wem/bandit_party_1","AJZZOD77TYA2X","either","5","155","","","","","","","0","0","1","0.2451518953","","0.8","0.4","0.6","0.2","","","","","0.21392293","0.1529967373","0.2451518953","0.28311182","","","","","","","","","","75","K","2","","","112","main_expt",""
"","bandit","192","526405","0.0-154.0-0.0","75770132","wem/bandit_party_1","AJZZOD77TYA2X","either","5","118","","","","","","","0","0","1","","0.2413269532","0.8","0.4","0.6","0.2","0.1606798039","0.148248117","0.2407836715","0.2413269532","","","","","","","","","","","","","","76","L","3","","","113","main_expt",""
"","bandit","193","528070","0.0-155.0-0.0","75770132","wem/bandit_party_1","AJZZOD77TYA2X","either","5","154","","","","","","","1","0","0","0.1562208239","","0.8","0.4","0.6","0.2","","","","","0.2095980235","0.1562208239","0.3099317417","0.3100969134","","","","","","","","","","74","J","1","","","114","main_expt",""
"","bandit","194","529782","0.0-156.0-0.0","75770132","wem/bandit_party_1","AJZZOD77TYA2X","either","5","202","","","","","","","0","0","1","","0.2138032898","0.8","0.4","0.6","0.2","0.2550279667","0.2138032898","0.3180754701","0.329842252","","","","","","","","","","","","","","74","J","1","","","115","main_expt",""
"","bandit","195","531451","0.0-157.0-0.0","75770132","wem/bandit_party_1","AJZZOD77TYA2X","either","5","157","","","","","","","1","0","0","0.2919742107","","0.8","0.4","0.6","0.2","","","","","0.2471764387","0.2331260325","0.2919742107","0.3223706096","","","","","","","","","","75","K","2","","","116","main_expt",""
"","bandit","196","533077","0.0-158.0-0.0","75770132","wem/bandit_party_1","AJZZOD77TYA2X","either","5","118","","","","","","","0","1","0","","0.2799774295","0.8","0.4","0.6","0.2","0.2730878341","0.1826309729","0.2799774295","0.3098408215","","","","","","","","","","","","","","75","K","2","","","117","main_expt",""
"","bandit","197","534710","0.0-159.0-0.0","75770132","wem/bandit_party_1","AJZZOD77TYA2X","either","5","121","","","","","","","1","0","0","0.2646714695","","0.8","0.4","0.6","0.2","","","","","0.2071462199","0.1511269107","0.2646714695","0.2974554567","","","","","","","","","","75","K","2","","","118","main_expt",""
"","bandit","198","536341","0.0-160.0-0.0","75770132","wem/bandit_party_1","AJZZOD77TYA2X","either","5","119","","","","","","","0","0","1","0.3179839519","","0.8","0.4","0.6","0.2","","","","","0.2275232499","0.1559979654","0.3179839519","0.3598468986","","","","","","","","","","75","K","2","","","119","main_expt",""
"","bandit","199","537902","0.0-161.0-0.0","75770132","wem/bandit_party_1","AJZZOD77TYA2X","either","5","52","","","","","","","0","0","1","","0.2984373086","0.8","0.4","0.6","0.2","0.2767559596","0.1463004055","0.3302262658","0.2984373086","","","","","","","","","","","","","","76","L","3","","","120","main_expt",""
"","bandit","200","539487","0.0-162.0-0.0","75770132","wem/bandit_party_1","AJZZOD77TYA2X","either","5","78","","","","","","","0","1","0","","0.2973090059","0.8","0.4","0.6","0.2","0.3448590315","0.1418195479","0.3500549905","0.2973090059","","","","","","","","","","","","","","76","L","3","","","121","main_expt",""
"","bandit","201","541092","0.0-163.0-0.0","75770132","wem/bandit_party_1","AJZZOD77TYA2X","either","5","96","","","","","","","0","0","1","","0.3382791822","0.8","0.4","0.6","0.2","0.3593301016","0.1270782113","0.2686616284","0.3382791822","","","","","","","","","","","","","","76","L","3","","","122","main_expt",""
"","bandit","202","542731","0.0-164.0-0.0","75770132","wem/bandit_party_1","AJZZOD77TYA2X","either","5","127","","","","","","","0","0","1","0.1207154071","","0.8","0.4","0.6","0.2","","","","","0.3680529171","0.1207154071","0.2277230314","0.3154347028","","","","","","","","","","74","J","1","","","123","main_expt",""
"","bandit","203","544311","0.0-165.0-0.0","75770132","wem/bandit_party_1","AJZZOD77TYA2X","either","5","68","","","","","","","0","0","1","0.3476523483","","0.8","0.4","0.6","0.2","","","","","0.3476523483","0.1229329119","0.3287090939","0.2966737815","","","","","","","","","","72","H","0","img/none_selected.jpg","","124","main_expt",""
"","bandit","204","545995","0.0-166.0-0.0","75770132","wem/bandit_party_1","AJZZOD77TYA2X","either","5","173","","","","","","","0","0","1","","0.3687339586","0.8","0.4","0.6","0.2","0.3564603465","0.09241122996","0.3687339586","0.3094831126","","","","","","","","","","","","","","75","K","2","","","125","main_expt",""
"","bandit","205","547646","0.0-167.0-0.0","75770132","wem/bandit_party_1","AJZZOD77TYA2X","either","5","143","","","","","","","0","0","1","","0.3836195774","0.8","0.4","0.6","0.2","0.3550684458","0.08418962236","0.3836195774","0.2488993205","","","","","","","","","","","","","","75","K","2","","","126","main_expt",""
"","bandit","206","549242","0.0-168.0-0.0","75770132","wem/bandit_party_1","AJZZOD77TYA2X","either","5","83","","","","","","","0","1","0","","0.1953487027","0.8","0.4","0.6","0.2","0.3235559827","0.154715772","0.3617365958","0.1953487027","","","","","","","","","","","","","","76","L","3","","","127","main_expt",""
"","bandit","207","550921","0.0-169.0-0.0","75770132","wem/bandit_party_1","AJZZOD77TYA2X","either","5","169","","","","","","","0","0","1","","0.2171889907","0.8","0.4","0.6","0.2","0.312087491","0.1556709078","0.3235283493","0.2171889907","","","","","","","","","","","","","","76","L","3","","","128","main_expt",""
"","bandit","208","552562","0.0-170.0-0.0","75770132","wem/bandit_party_1","AJZZOD77TYA2X","either","5","133","","","","","","","0","0","1","","0.3453830546","0.8","0.4","0.6","0.2","0.2843272188","0.1214200615","0.3453830546","0.2467699801","","","","","","","","","","","","","","75","K","2","","","129","main_expt",""
"","bandit","209","554086","0.0-171.0-0.0","75770132","wem/bandit_party_1","AJZZOD77TYA2X","either","5","13","","","","","","","0","0","1","0.3242747857","","0.8","0.4","0.6","0.2","","","","","0.2128416856","0.1377283829","0.3242747857","0.2814443482","","","","","","","","","","75","K","2","","","130","main_expt",""
"","bandit","210","555616","0.0-172.0-0.0","75770132","wem/bandit_party_1","AJZZOD77TYA2X","either","5","17","","","","","","","0","0","1","0.3417201858","","0.8","0.4","0.6","0.2","","","","","0.2403879813","0.1397421628","0.3417201858","0.2834176508","","","","","","","","","","75","K","2","","","131","main_expt",""
"","bandit","211","557167","0.0-173.0-0.0","75770132","wem/bandit_party_1","AJZZOD77TYA2X","either","5","41","","","","","","","0","0","1","","0.2429908031","0.8","0.4","0.6","0.2","0.2811421594","0.1061875113","0.3498614837","0.2429908031","","","","","","","","","","","","","","76","L","3","","","132","main_expt",""
"","bandit","212","558760","0.0-174.0-0.0","75770132","wem/bandit_party_1","AJZZOD77TYA2X","either","5","74","","","","","","","0","0","1","","0.3053559495","0.8","0.4","0.6","0.2","0.3002858371","0.07774811701","0.3134828643","0.3053559495","","","","","","","","","","","","","","76","L","3","","","133","main_expt",""
"","bandit","213","560362","0.0-175.0-0.0","75770132","wem/bandit_party_1","AJZZOD77TYA2X","either","5","8","","","","","","","1","0","0","0.08211281178","","0.8","0.4","0.6","0.2","","","","","0.277406375","0.08211281178","0.3554593188","0.2693478067","","","","","","","","","","74","J","1","","","134","main_expt",""
"","bandit","214","561888","0.0-176.0-0.0","75770132","wem/bandit_party_1","AJZZOD77TYA2X","either","5","0","","","","","","","0","0","1","0.1123817552","","0.8","0.4","0.6","0.2","","","","","0.2897147582","0.1123817552","0.3150900126","0.3369166079","","","","","","","","","","74","J","1","","","135","main_expt",""
"","bandit","215","563420","0.0-177.0-0.0","75770132","wem/bandit_party_1","AJZZOD77TYA2X","either","5","23","","","","","","","0","0","1","","0.1478339482","0.8","0.4","0.6","0.2","0.3590576628","0.1478339482","0.3199395785","0.268603144","","","","","","","","","","","","","","74","J","1","","","136","main_expt",""
"","bandit","216","565017","0.0-178.0-0.0","75770132","wem/bandit_party_1","AJZZOD77TYA2X","either","5","89","","","","","","","0","0","1","0.1374936615","","0.8","0.4","0.6","0.2","","","","","0.3822427384","0.1374936615","0.33362357","0.2373427956","","","","","","","","","","74","J","1","","","137","main_expt",""
"","bandit","217","566653","0.0-179.0-0.0","75770132","wem/bandit_party_1","AJZZOD77TYA2X","either","5","122","","","","","","","0","0","1","0.159761955","","0.8","0.4","0.6","0.2","","","","","0.3410071165","0.159761955","0.3611324022","0.2206869265","","","","","","","","","","74","J","1","","","138","main_expt",""
"","bandit","218","568820","0.0-180.0-0.0","75770132","wem/bandit_party_1","AJZZOD77TYA2X","either","5","657","","","","","","","0","0","1","","0.3504145086","0.8","0.4","0.6","0.2","0.3738014659","0.1363721132","0.3504145086","0.2177966349","","","","","","","","","","","","","","75","K","2","","","139","main_expt",""
"","bandit","219","570406","0.0-181.0-0.0","75770132","wem/bandit_party_1","AJZZOD77TYA2X","either","5","78","","","","","","","0","0","1","","0.2387685432","0.8","0.4","0.6","0.2","0.422575493","0.1031445192","0.309774603","0.2387685432","","","","","","","","","","","","","","76","L","3","","","140","main_expt",""
"","bandit","220","572092","0.0-182.0-0.0","75770132","wem/bandit_party_1","AJZZOD77TYA2X","either","5","169","","","","","","","0","1","0","","0.2575087366","0.8","0.4","0.6","0.2","0.4439129864","0.09805286369","0.3506531288","0.2575087366","","","","","","","","","","","","","","76","L","3","","","141","main_expt",""
"","bandit","221","573753","0.0-183.0-0.0","75770132","wem/bandit_party_1","AJZZOD77TYA2X","either","5","150","","","","","","","0","1","0","","0.2392038972","0.8","0.4","0.6","0.2","0.4323802182","0.1149002948","0.2965027242","0.2392038972","","","","","","","","","","","","","","76","L","3","","","142","main_expt",""
"","bandit","222","575267","0.0-184.0-0.0","75770132","wem/bandit_party_1","AJZZOD77TYA2X","either","5","6","","","","","","","0","0","1","0.2216470548","","0.8","0.4","0.6","0.2","","","","","0.4358412593","0.1209542099","0.2087517366","0.2216470548","","","","","","","","","","76","L","3","","","143","main_expt",""
"","bandit","223","576846","0.0-185.0-0.0","75770132","wem/bandit_party_1","AJZZOD77TYA2X","either","5","67","","","","","","","0","0","1","0.2313605626","","0.8","0.4","0.6","0.2","","","","","0.4407373256","0.1202521083","0.2313605626","0.2224896139","","","","","","","","","","75","K","2","","","144","main_expt",""
"","bandit","224","578990","0.0-186.0-0.0","75770132","wem/bandit_party_1","AJZZOD77TYA2X","either","5","633","","","","","","","0","0","1","0.1619743669","","0.8","0.4","0.6","0.2","","","","","0.4661091035","0.1619743669","0.1785565547","0.1925605464","","","","","","","","","","74","J","1","","","145","main_expt",""
"","bandit","225","580791","0.0-187.0-0.0","75770132","wem/bandit_party_1","AJZZOD77TYA2X","either","5","289","","","","","","","1","0","0","0.4637097668","","0.8","0.4","0.6","0.2","","","","","0.4637097668","0.1664631043","0.1770660648","0.2069800611","","","","","","","","","","72","H","0","img/none_selected.jpg","","146","main_expt",""
"","bandit","226","582582","0.0-188.0-0.0","75770132","wem/bandit_party_1","AJZZOD77TYA2X","either","5","280","","","","","","","0","1","0","","0.4700491642","0.8","0.4","0.6","0.2","0.4700491642","0.1669241763","0.1063371611","0.2489662189","","","","","","","","","","","","","","72","H","0","img/none_selected.jpg","","147","main_expt",""
"","bandit","227","584276","0.0-189.0-0.0","75770132","wem/bandit_party_1","AJZZOD77TYA2X","either","5","183","","","","","","","1","0","0","0.4648109734","","0.8","0.4","0.6","0.2","","","","","0.4648109734","0.1581456949","0.1216370817","0.1946464158","","","","","","","","","","72","H","0","img/none_selected.jpg","","148","main_expt",""
"","bandit","228","585843","0.0-190.0-0.0","75770132","wem/bandit_party_1","AJZZOD77TYA2X","either","5","59","","","","","","","0","0","1","0.4635511513","","0.8","0.4","0.6","0.2","","","","","0.4635511513","0.1698392466","0.1024256959","0.1826562491","","","","","","","","","","72","H","0","img/none_selected.jpg","","149","main_expt",""
"","bandit","229","587669","0.0-191.0-0.0","75770132","wem/bandit_party_1","AJZZOD77TYA2X","either","5","315","","","","","","","0","0","1","","0.4445017148","0.8","0.4","0.6","0.2","0.4445017148","0.2140114634","0.1371094633","0.1750473563","","","","","","","","","","","","","","72","H","0","img/none_selected.jpg","","150","main_expt",""
"","bandit","230","589356","0.0-192.0-0.0","75770132","wem/bandit_party_1","AJZZOD77TYA2X","either","5","174","","","","","","","0","1","0","","0.2392960001","0.8","0.4","0.6","0.2","0.4434799742","0.2392960001","0.1702433702","0.1109536645","","","","","","","","","","","","","","74","J","1","","","151","main_expt",""
"","bandit","231","591069","0.0-193.0-0.0","75770132","wem/bandit_party_1","AJZZOD77TYA2X","either","5","203","","","","","","","0","0","1","","0.2095863317","0.8","0.4","0.6","0.2","0.4451665291","0.2095863317","0.1860489046","0.1143086707","","","","","","","","","","","","","","74","J","1","","","152","main_expt",""
"","bandit","232","592742","0.0-194.0-0.0","75770132","wem/bandit_party_1","AJZZOD77TYA2X","either","5","157","","","","","","","0","0","1","","0.2543258611","0.8","0.4","0.6","0.2","0.4401532833","0.2543258611","0.2117094388","0.1236290712","","","","","","","","","","","","","","74","J","1","","","153","main_expt",""
"","bandit","233","595163","0.0-195.0-0.0","75770132","wem/bandit_party_1","AJZZOD77TYA2X","either","5","911","","","","","","","0","0","1","","0.2072389033","0.8","0.4","0.6","0.2","0.4516855879","0.2602259906","0.2072389033","0.1600695342","","","","","","","","","","","","","","75","K","2","","","154","main_expt",""
"","bandit","234","596816","0.0-196.0-0.0","75770132","wem/bandit_party_1","AJZZOD77TYA2X","either","5","141","","","","","","","0","0","1","","0.1770288166","0.8","0.4","0.6","0.2","0.4480264808","0.2750581274","0.1986333914","0.1770288166","","","","","","","","","","","","","","76","L","3","","","155","main_expt",""
"","bandit","235","598510","0.0-197.0-0.0","75770132","wem/bandit_party_1","AJZZOD77TYA2X","either","5","183","","","","","","","0","0","1","","0.2054640346","0.8","0.4","0.6","0.2","0.4260414265","0.2438045727","0.2054640346","0.1761817894","","","","","","","","","","","","","","75","K","2","","","156","main_expt",""
"","bandit","236","600042","0.0-198.0-0.0","75770132","wem/bandit_party_1","AJZZOD77TYA2X","either","5","16","","","","","","","1","0","0","0.2857025143","","0.8","0.4","0.6","0.2","","","","","0.4365201507","0.2857025143","0.1810715383","0.1998830888","","","","","","","","","","74","J","1","","","157","main_expt",""
"","bandit","237","601614","0.0-199.0-0.0","75770132","wem/bandit_party_1","AJZZOD77TYA2X","either","5","60","","","","","","","0","1","0","","0.2887719476","0.8","0.4","0.6","0.2","0.4076244479","0.2887719476","0.2118906364","0.2150354531","","","","","","","","","","","","","","74","J","1","","","158","main_expt",""
"","bandit","238","603167","0.0-200.0-0.0","75770132","wem/bandit_party_1","AJZZOD77TYA2X","either","5","43","","","","","","","0","0","1","","0.2859462397","0.8","0.4","0.6","0.2","0.403953851","0.2859462397","0.2293976715","0.2221069796","","","","","","","","","","","","","","74","J","1","","","159","main_expt",""
"","bandit","239","605025","0.0-201.0-0.0","75770132","wem/bandit_party_1","AJZZOD77TYA2X","either","5","347","","","","","","","0","0","1","0.4282135537","","0.8","0.4","0.6","0.2","","","","","0.4282135537","0.207432816","0.2186051381","0.2627335039","","","","","","","","","","72","H","0","img/none_selected.jpg","","160","main_expt",""
"","bandit","240","606761","0.0-202.0-0.0","75770132","wem/bandit_party_1","AJZZOD77TYA2X","either","5","221","","","","","","","0","0","1","","0.1611694724","0.8","0.4","0.6","0.2","0.4479073124","0.1611694724","0.2175927206","0.2922457848","","","","","","","","","","","","","","74","J","1","","","161","main_expt",""
"","bandit","241","608398","0.0-203.0-0.0","75770132","wem/bandit_party_1","AJZZOD77TYA2X","either","5","123","","","","","","","0","0","1","","0.14378348","0.8","0.4","0.6","0.2","0.4456201243","0.14378348","0.2370404117","0.3040212123","","","","","","","","","","","","","","74","J","1","","","162","main_expt",""
"","bandit","242","609973","0.0-204.0-0.0","75770132","wem/bandit_party_1","AJZZOD77TYA2X","either","5","68","","","","","","","0","0","1","","0.4384930657","0.8","0.4","0.6","0.2","0.4384930657","0.1707099899","0.2778780432","0.2933359027","","","","","","","","","","","","","","72","H","0","img/none_selected.jpg","","163","main_expt",""
"","bandit","243","611586","0.0-205.0-0.0","75770132","wem/bandit_party_1","AJZZOD77TYA2X","either","5","101","","","","","","","0","0","1","0.2643388611","","0.8","0.4","0.6","0.2","","","","","0.4231568034","0.1933693166","0.2643388611","0.2388203062","","","","","","","","","","75","K","2","","","164","main_expt",""
"","bandit","244","613232","0.0-206.0-0.0","75770132","wem/bandit_party_1","AJZZOD77TYA2X","either","5","123","","","","","","","0","0","1","","0.2646204916","0.8","0.4","0.6","0.2","0.4412535734","0.2406324952","0.1967204453","0.2646204916","","","","","","","","","","","","","","76","L","3","","","165","main_expt",""
"","bandit","245","614846","0.0-207.0-0.0","75770132","wem/bandit_party_1","AJZZOD77TYA2X","either","5","98","","","","","","","0","0","1","0.2650462377","","0.8","0.4","0.6","0.2","","","","","0.438364003","0.2650462377","0.1567937345","0.2591758032","","","","","","","","","","74","J","1","","","166","main_expt",""
"","bandit","246","616479","0.0-208.0-0.0","75770132","wem/bandit_party_1","AJZZOD77TYA2X","either","5","123","","","","","","","0","0","1","0.4290991351","","0.8","0.4","0.6","0.2","","","","","0.4290991351","0.245875583","0.1201482918","0.1955934818","","","","","","","","","","72","H","0","img/none_selected.jpg","","167","main_expt",""
"","bandit","247","618313","0.0-209.0-0.0","75770132","wem/bandit_party_1","AJZZOD77TYA2X","either","5","322","","","","","","","1","0","0","0.257303599","","0.8","0.4","0.6","0.2","","","","","0.4510860662","0.257303599","0.0936051119","0.2090603634","","","","","","","","","","74","J","1","","","168","main_expt",""
"","bandit","248","619969","0.0-210.0-0.0","75770132","wem/bandit_party_1","AJZZOD77TYA2X","either","5","144","","","","","","","0","0","1","","0.2993732043","0.8","0.4","0.6","0.2","0.4491424364","0.2993732043","0.08775096918","0.2678479696","","","","","","","","","","","","","","74","J","1","","","169","main_expt",""
"","bandit","249","621582","0.0-211.0-0.0","75770132","wem/bandit_party_1","AJZZOD77TYA2X","either","5","98","","","","","","","0","0","1","0.06743429675","","0.8","0.4","0.6","0.2","","","","","0.4332244901","0.3388977639","0.06743429675","0.2532125956","","","","","","","","","","75","K","2","","","170","main_expt",""
"","bandit","250","623103","0.0-212.0-0.0","75770132","wem/bandit_party_1","AJZZOD77TYA2X","either","5","13","","","","","","","0","0","1","","0.2568627054","0.8","0.4","0.6","0.2","0.4405036994","0.2947926635","0.05979118822","0.2568627054","","","","","","","","","","","","","","76","L","3","","","171","main_expt",""
"","bandit","251","624865","0.0-213.0-0.0","75770132","wem/bandit_party_1","AJZZOD77TYA2X","either","5","254","","","","","","","0","0","1","0.4358521759","","0.8","0.4","0.6","0.2","","","","","0.4358521759","0.2892529657","0.03200499914","0.2451563353","","","","","","","","","","72","H","0","img/none_selected.jpg","","172","main_expt",""
"","bandit","252","627880","0.0-214.0-0.0","75770132","wem/bandit_party_1","AJZZOD77TYA2X","either","5","1503","","","","","","","0","0","1","","0.2571917514","0.8","0.4","0.6","0.2","0.4471617722","0.2571917514","0.04613358223","0.3003395367","","","","","","","","","","","","","","74","J","1","","","173","main_expt",""
"","bandit","253","629393","0.0-215.0-0.0","75770132","wem/bandit_party_1","AJZZOD77TYA2X","either","5","0","","","","","","","0","0","1","0.244173221","","0.8","0.4","0.6","0.2","","","","","0.4560251174","0.244173221","0.05969677181","0.2545998681","","","","","","","","","","74","J","1","","","174","main_expt",""
"","bandit","254","631296","0.0-216.0-0.0","75770132","wem/bandit_party_1","AJZZOD77TYA2X","either","5","396","","","","","","","0","0","1","0.05930066603","","0.8","0.4","0.6","0.2","","","","","0.4379349024","0.2038098688","0.05930066603","0.3383135611","","","","","","","","","","75","K","2","","","175","main_expt",""
"","bandit","255","632844","0.0-217.0-0.0","75770132","wem/bandit_party_1","AJZZOD77TYA2X","either","5","36","","","","","","","0","1","0","","0.3880627729","0.8","0.4","0.6","0.2","0.4328841116","0.2053823003","0.08110879181","0.3880627729","","","","","","","","","","","","","","76","L","3","","","176","main_expt",""
"","bandit","256","634400","0.0-218.0-0.0","75770132","wem/bandit_party_1","AJZZOD77TYA2X","either","5","45","","","","","","","1","0","0","0.3920994557","","0.8","0.4","0.6","0.2","","","","","0.3965365967","0.2193083282","0.07611568943","0.3920994557","","","","","","","","","","76","L","3","","","177","main_expt",""
"","bandit","257","636144","0.0-219.0-0.0","75770132","wem/bandit_party_1","AJZZOD77TYA2X","either","5","237","","","","","","","1","0","0","0.3882277994","","0.8","0.4","0.6","0.2","","","","","0.3899234309","0.1904263594","0.1220467165","0.3882277994","","","","","","","","","","76","L","3","","","178","main_expt",""
"","bandit","258","637755","0.0-220.0-0.0","75770132","wem/bandit_party_1","AJZZOD77TYA2X","either","5","104","","","","","","","0","0","1","","0.3939691408","0.8","0.4","0.6","0.2","0.4238443777","0.2212788648","0.1698853315","0.3939691408","","","","","","","","","","","","","","76","L","3","","","179","main_expt",""
"","bandit","259","639753","0.0-221.0-0.0","75770132","wem/bandit_party_1","AJZZOD77TYA2X","either","5","488","","","","","","","1","0","0","0.1374762061","","0.8","0.4","0.6","0.2","","","","","0.4487400994","0.2640717145","0.1374762061","0.4074656662","","","","","","","","","","75","K","2","","","180","main_expt",""
"","bandit","260","641273","0.0-222.0-0.0","75770132","wem/bandit_party_1","AJZZOD77TYA2X","either","5","8","","","","","","","0","0","1","0.09961924189","","0.8","0.4","0.6","0.2","","","","","0.4314573438","0.2426483564","0.09961924189","0.3724421945","","","","","","","","","","75","K","2","","","181","main_expt",""
"","bandit","261","642860","0.0-223.0-0.0","75770132","wem/bandit_party_1","AJZZOD77TYA2X","either","5","76","","","","","","","0","1","0","","0.2998177931","0.8","0.4","0.6","0.2","0.4458059303","0.2001563476","0.1391043194","0.2998177931","","","","","","","","","","","","","","76","L","3","","","182","main_expt",""
"","bandit","262","644406","0.0-224.0-0.0","75770132","wem/bandit_party_1","AJZZOD77TYA2X","either","5","34","","","","","","","0","0","1","","0.3629728763","0.8","0.4","0.6","0.2","0.4485460149","0.2167094124","0.1336424596","0.3629728763","","","","","","","","","","","","","","76","L","3","","","183","main_expt",""
"","bandit","263","646213","0.0-225.0-0.0","75770132","wem/bandit_party_1","AJZZOD77TYA2X","either","5","291","","","","","","","0","0","1","","0.115911235","0.8","0.4","0.6","0.2","0.4078350507","0.2402813617","0.115911235","0.3763603645","","","","","","","","","","","","","","75","K","2","","","184","main_expt",""
"","bandit","264","647787","0.0-226.0-0.0","75770132","wem/bandit_party_1","AJZZOD77TYA2X","either","5","59","","","","","","","0","0","1","","0.1394203739","0.8","0.4","0.6","0.2","0.3805788675","0.2745112141","0.1394203739","0.3472982705","","","","","","","","","","","","","","75","K","2","","","185","main_expt",""
"","bandit","265","649829","0.0-227.0-0.0","75770132","wem/bandit_party_1","AJZZOD77TYA2X","either","5","533","","","","","","","0","0","1","","0.3095995051","0.8","0.4","0.6","0.2","0.4236809331","0.2774566956","0.1557479742","0.3095995051","","","","","","","","","","","","","","76","L","3","","","186","main_expt",""
"","bandit","266","651532","0.0-228.0-0.0","75770132","wem/bandit_party_1","AJZZOD77TYA2X","either","5","195","","","","","","","0","1","0","","0.2876011691","0.8","0.4","0.6","0.2","0.4058627081","0.2876011691","0.1823611596","0.2567332284","","","","","","","","","","","","","","74","J","1","","","187","main_expt",""
"","bandit","267","653173","0.0-229.0-0.0","75770132","wem/bandit_party_1","AJZZOD77TYA2X","either","5","135","","","","","","","0","0","1","","0.2947112378","0.8","0.4","0.6","0.2","0.3913346521","0.2947112378","0.1854179297","0.2555256861","","","","","","","","","","","","","","74","J","1","","","188","main_expt",""
"","bandit","268","654893","0.0-230.0-0.0","75770132","wem/bandit_party_1","AJZZOD77TYA2X","either","5","213","","","","","","","0","0","1","","0.2581494","0.8","0.4","0.6","0.2","0.3760164219","0.2581494","0.1875645599","0.2009875262","","","","","","","","","","","","","","74","J","1","","","189","main_expt",""
"","bandit","269","656703","0.0-231.0-0.0","75770132","wem/bandit_party_1","AJZZOD77TYA2X","either","5","297","","","","","","","0","0","1","","0.3327352817","0.8","0.4","0.6","0.2","0.3327352817","0.1756323468","0.2018323604","0.2055488595","","","","","","","","","","","","","","72","H","0","img/none_selected.jpg","","190","main_expt",""
"","bandit","270","658292","0.0-232.0-0.0","75770132","wem/bandit_party_1","AJZZOD77TYA2X","either","5","77","","","","","","","1","0","0","0.1506387864","","0.8","0.4","0.6","0.2","","","","","0.3015177445","0.2521570866","0.221094727","0.1506387864","","","","","","","","","","76","L","3","","","191","main_expt",""
"","bandit","271","659857","0.0-233.0-0.0","75770132","wem/bandit_party_1","AJZZOD77TYA2X","either","5","52","","","","","","","0","0","1","","0.2027442266","0.8","0.4","0.6","0.2","0.2773298268","0.2964739449","0.2320570195","0.2027442266","","","","","","","","","","","","","","76","L","3","","","192","main_expt",""
"","bandit","272","661372","0.0-234.0-0.0","75770132","wem/bandit_party_1","AJZZOD77TYA2X","either","5","4","","","","","","","1","0","0","0.2948950962","","0.8","0.4","0.6","0.2","","","","","0.2836613797","0.2612966838","0.2948950962","0.1969137872","","","","","","","","","","75","K","2","","","193","main_expt",""
"","bandit","273","662986","0.0-235.0-0.0","75770132","wem/bandit_party_1","AJZZOD77TYA2X","either","5","106","","","","","","","0","0","1","","0.2602906927","0.8","0.4","0.6","0.2","0.2799350415","0.3292914436","0.2602906927","0.2114994946","","","","","","","","","","","","","","75","K","2","","","194","main_expt",""
"","bandit","274","664662","0.0-236.0-0.0","75770132","wem/bandit_party_1","AJZZOD77TYA2X","either","5","166","","","","","","","0","0","1","0.2467939011","","0.8","0.4","0.6","0.2","","","","","0.2068597772","0.4070308407","0.1771499101","0.2467939011","","","","","","","","","","76","L","3","","","195","main_expt",""
"","bandit","275","666377","0.0-237.0-0.0","75770132","wem/bandit_party_1","AJZZOD77TYA2X","either","5","204","","","","","","","0","0","1","0.1746274925","","0.8","0.4","0.6","0.2","","","","","0.2679469531","0.3494820729","0.1746274925","0.2731811988","","","","","","","","","","75","K","2","","","196","main_expt",""
"","bandit","276","667894","0.0-238.0-0.0","75770132","wem/bandit_party_1","AJZZOD77TYA2X","either","5","8","","","","","","","0","0","1","0.2512114903","","0.8","0.4","0.6","0.2","","","","","0.2448078588","0.3571939809","0.193224684","0.2512114903","","","","","","","","","","76","L","3","","","197","main_expt",""
"","bandit","277","669656","0.0-239.0-0.0","75770132","wem/bandit_party_1","AJZZOD77TYA2X","either","5","246","","","","","","","0","0","1","","0.382430028","0.8","0.4","0.6","0.2","0.2433987968","0.382430028","0.1771509929","0.190651112","","","","","","","","","","","","","","74","J","1","","","198","main_expt",""
"","bandit","278","671344","0.0-240.0-0.0","75770132","wem/bandit_party_1","AJZZOD77TYA2X","either","5","135","","","","","","","0","0","1","","0.3353474301","0.8","0.4","0.6","0.2","0.2653624242","0.3353474301","0.2466668772","0.1701189695","","","","","","","","","","","","","","74","J","1","","","199","main_expt",""
"","bandit","279","673003","0.0-241.0-0.0","75770132","wem/bandit_party_1","AJZZOD77TYA2X","either","5","149","","","","","","","0","0","1","0.2551376492","","0.8","0.4","0.6","0.2","","","","","0.2551376492","0.3321976498","0.2477816141","0.1656975488","","","","","","","","","","72","H","0","img/none_selected.jpg","","200","main_expt",""
"","bandit","280","674566","0.0-242.0-0.0","75770132","wem/bandit_party_1","AJZZOD77TYA2X","either","5","54","","","","","","","0","0","1","","0.2744817861","0.8","0.4","0.6","0.2","0.2660639347","0.3218117355","0.2744817861","0.1647298582","","","","","","","","","","","","","","75","K","2","","","201","main_expt",""
"","bandit","281","676182","0.0-243.0-0.0","75770132","wem/bandit_party_1","AJZZOD77TYA2X","either","5","109","","","","","","","0","0","1","0.1242041815","","0.8","0.4","0.6","0.2","","","","","0.2220900594","0.2949214693","0.3043062986","0.1242041815","","","","","","","","","","76","L","3","","","202","main_expt",""
"","bandit","282","677702","0.0-244.0-0.0","75770132","wem/bandit_party_1","AJZZOD77TYA2X","either","5","8","","","","","","","0","0","1","","0.1684487429","0.8","0.4","0.6","0.2","0.1543353204","0.300077299","0.272185569","0.1684487429","","","","","","","","","","","","","","76","L","3","","","203","main_expt",""
"","bandit","283","679326","0.0-245.0-0.0","75770132","wem/bandit_party_1","AJZZOD77TYA2X","either","5","115","","","","","","","0","1","0","","0.2610767704","0.8","0.4","0.6","0.2","0.1605482003","0.2866085977","0.2610767704","0.1666409686","","","","","","","","","","","","","","75","K","2","","","204","main_expt",""
"","bandit","284","680877","0.0-246.0-0.0","75770132","wem/bandit_party_1","AJZZOD77TYA2X","either","5","37","","","","","","","0","0","1","0.2832615928","","0.8","0.4","0.6","0.2","","","","","0.1406914754","0.2695546272","0.2832615928","0.2197286508","","","","","","","","","","75","K","2","","","205","main_expt",""
"","bandit","285","682442","0.0-247.0-0.0","75770132","wem/bandit_party_1","AJZZOD77TYA2X","either","5","53","","","","","","","0","0","1","0.300913322","","0.8","0.4","0.6","0.2","","","","","0.1138947463","0.2622178416","0.300913322","0.2754509052","","","","","","","","","","75","K","2","","","206","main_expt",""
"","bandit","286","683980","0.0-248.0-0.0","75770132","wem/bandit_party_1","AJZZOD77TYA2X","either","5","24","","","","","","","0","0","1","","0.3260258847","0.8","0.4","0.6","0.2","0.1096702189","0.2498186578","0.3260258847","0.2664869377","","","","","","","","","","","","","","75","K","2","","","207","main_expt",""
"","bandit","287","685654","0.0-249.0-0.0","75770132","wem/bandit_party_1","AJZZOD77TYA2X","either","5","163","","","","","","","0","0","1","0.3173829003","","0.8","0.4","0.6","0.2","","","","","0.09922356593","0.2335358635","0.3173829003","0.2686565688","","","","","","","","","","75","K","2","","","208","main_expt",""
"","bandit","288","687346","0.0-250.0-0.0","75770132","wem/bandit_party_1","AJZZOD77TYA2X","either","5","186","","","","","","","0","0","1","","0.2638942681","0.8","0.4","0.6","0.2","0.101567507","0.2638942681","0.3153846937","0.2380255957","","","","","","","","","","","","","","74","J","1","","","209","main_expt",""
"","bandit","289","688878","0.0-251.0-0.0","75770132","wem/bandit_party_1","AJZZOD77TYA2X","either","5","23","","","","","","","0","0","1","0.08675379402","","0.8","0.4","0.6","0.2","","","","","0.08675379402","0.2526926237","0.3010876552","0.2507768727","","","","","","","","","","72","H","0","img/none_selected.jpg","","210","main_expt",""
"","bandit","290","690457","0.0-252.0-0.0","75770132","wem/bandit_party_1","AJZZOD77TYA2X","either","5","71","","","","","","","0","0","1","","0.2740367769","0.8","0.4","0.6","0.2","0.07512021269","0.2740367769","0.2864900033","0.2685142319","","","","","","","","","","","","","","74","J","1","","","211","main_expt",""
"","bandit","291","691984","0.0-253.0-0.0","75770132","wem/bandit_party_1","AJZZOD77TYA2X","either","5","16","","","","","","","0","0","1","0.2440836191","","0.8","0.4","0.6","0.2","","","","","0.08144254236","0.2440836191","0.3163372434","0.260511483","","","","","","","","","","74","J","1","","","212","main_expt",""
"","bandit","292","693522","0.0-254.0-0.0","75770132","wem/bandit_party_1","AJZZOD77TYA2X","either","5","24","","","","","","","1","0","0","0.2701305136","","0.8","0.4","0.6","0.2","","","","","0.06585574052","0.2341903104","0.2701305136","0.2579605047","","","","","","","","","","75","K","2","","","213","main_expt",""
"","bandit","293","695124","0.0-255.0-0.0","75770132","wem/bandit_party_1","AJZZOD77TYA2X","either","5","92","","","","","","","1","0","0","0.302599165","","0.8","0.4","0.6","0.2","","","","","0.08686614453","0.2097526345","0.302599165","0.2470456849","","","","","","","","","","75","K","2","","","214","main_expt",""
"","bandit","294","696976","0.0-256.0-0.0","75770132","wem/bandit_party_1","AJZZOD77TYA2X","either","5","342","","","","","","","0","0","1","0.2968005471","","0.8","0.4","0.6","0.2","","","","","0.1068548489","0.1796882487","0.2968005471","0.3285383036","","","","","","","","","","75","K","2","","","215","main_expt",""
"","bandit","295","698540","0.0-257.0-0.0","75770132","wem/bandit_party_1","AJZZOD77TYA2X","either","5","47","","","","","","","0","0","1","","0.3780044773","0.8","0.4","0.6","0.2","0.1211736082","0.2237900511","0.2835536598","0.3780044773","","","","","","","","","","","","","","76","L","3","","","216","main_expt",""
"","bandit","296","700357","0.0-258.0-0.0","75770132","wem/bandit_party_1","AJZZOD77TYA2X","either","5","307","","","","","","","0","0","1","0.2520762718","","0.8","0.4","0.6","0.2","","","","","0.09343701815","0.2265358539","0.2520762718","0.3939228946","","","","","","","","","","75","K","2","","","217","main_expt",""
"","bandit","297","701887","0.0-259.0-0.0","75770132","wem/bandit_party_1","AJZZOD77TYA2X","either","5","21","","","","","","","0","0","1","","0.3198270803","0.8","0.4","0.6","0.2","0.1001055386","0.2364013437","0.2562699476","0.3198270803","","","","","","","","","","","","","","76","L","3","","","218","main_expt",""
"","bandit","298","703601","0.0-260.0-0.0","75770132","wem/bandit_party_1","AJZZOD77TYA2X","either","5","204","","","","","","","0","0","1","","0.3502502288","0.8","0.4","0.6","0.2","0.09524874014","0.2810560361","0.3002431464","0.3502502288","","","","","","","","","","","","","","76","L","3","","","219","main_expt",""
"","bandit","299","705202","0.0-261.0-0.0","75770132","wem/bandit_party_1","AJZZOD77TYA2X","either","5","92","","","","","","","1","0","0","0.3402456168","","0.8","0.4","0.6","0.2","","","","","0.1304899995","0.3027429446","0.3365413303","0.3402456168","","","","","","","","","","76","L","3","","","220","main_expt",""
"","bandit","300","706838","0.0-262.0-0.0","75770132","wem/bandit_party_1","AJZZOD77TYA2X","either","5","126","","","","","","","0","0","1","0.3770059732","","0.8","0.4","0.6","0.2","","","","","0.1272814923","0.3132134988","0.2946103072","0.3770059732","","","","","","","","","","76","L","3","","","221","main_expt",""
"","bandit","301","708482","0.0-263.0-0.0","75770132","wem/bandit_party_1","AJZZOD77TYA2X","either","5","135","","","","","","","0","1","0","","0.3267284332","0.8","0.4","0.6","0.2","0.1654407056","0.2424821827","0.3267284332","0.3864421123","","","","","","","","","","","","","","75","K","2","","","222","main_expt",""
"","bandit","302","710131","0.0-264.0-0.0","75770132","wem/bandit_party_1","AJZZOD77TYA2X","either","5","138","","","","","","","0","0","1","","0.3175152631","0.8","0.4","0.6","0.2","0.1788325852","0.2595367495","0.3175152631","0.4205211408","","","","","","","","","","","","","","75","K","2","","","223","main_expt",""
"","bandit","303","711690","0.0-265.0-0.0","75770132","wem/bandit_party_1","AJZZOD77TYA2X","either","5","50","","","","","","","0","0","1","","0.4131889957","0.8","0.4","0.6","0.2","0.1736623033","0.328819141","0.3192400935","0.4131889957","","","","","","","","","","","","","","76","L","3","","","224","main_expt",""
"","bandit","304","713226","0.0-266.0-0.0","75770132","wem/bandit_party_1","AJZZOD77TYA2X","either","5","24","","","","","","","0","0","1","","0.4001513574","0.8","0.4","0.6","0.2","0.1721911447","0.356121412","0.3096750449","0.4001513574","","","","","","","","","","","","","","76","L","3","","","225","main_expt",""
"","bandit","305","714816","0.0-267.0-0.0","75770132","wem/bandit_party_1","AJZZOD77TYA2X","either","5","82","","","","","","","0","1","0","","0.3963688582","0.8","0.4","0.6","0.2","0.2133818582","0.3394019192","0.3142833063","0.3963688582","","","","","","","","","","","","","","76","L","3","","","226","main_expt",""
"","bandit","306","716331","0.0-268.0-0.0","75770132","wem/bandit_party_1","AJZZOD77TYA2X","either","5","0","","","","","","","0","1","0","","0.3979714495","0.8","0.4","0.6","0.2","0.2620007467","0.2860553004","0.3096885674","0.3979714495","","","","","","","","","","","","","","76","L","3","","","227","main_expt",""
"","bandit","307","718081","0.0-269.0-0.0","75770132","wem/bandit_party_1","AJZZOD77TYA2X","either","5","237","","","","","","","0","0","1","","0.3811043637","0.8","0.4","0.6","0.2","0.2961930455","0.2967856672","0.3048295172","0.3811043637","","","","","","","","","","","","","","76","L","3","","","228","main_expt",""
"","bandit","308","719699","0.0-270.0-0.0","75770132","wem/bandit_party_1","AJZZOD77TYA2X","either","5","108","","","","","","","0","0","1","","0.2553920021","0.8","0.4","0.6","0.2","0.3081123415","0.2857745529","0.2553920021","0.3488149186","","","","","","","","","","","","","","75","K","2","","","229","main_expt",""
"","bandit","309","721422","0.0-271.0-0.0","75770132","wem/bandit_party_1","AJZZOD77TYA2X","either","5","209","","","","","","","0","0","1","0.2783794412","","0.8","0.4","0.6","0.2","","","","","0.3027177586","0.2589404948","0.2783794412","0.2883621188","","","","","","","","","","75","K","2","","","230","main_expt",""
"","bandit","310","723058","0.0-272.0-0.0","75770132","wem/bandit_party_1","AJZZOD77TYA2X","either","5","122","","","","","","","0","0","1","","0.2444465504","0.8","0.4","0.6","0.2","0.2495346478","0.2628441024","0.2735536708","0.2444465504","","","","","","","","","","","","","","76","L","3","","","231","main_expt",""
"","bandit","311","724764","0.0-273.0-0.0","75770132","wem/bandit_party_1","AJZZOD77TYA2X","either","5","194","","","","","","","0","0","1","","0.276537748","0.8","0.4","0.6","0.2","0.2185872191","0.276537748","0.2262440502","0.2996930955","","","","","","","","","","","","","","74","J","1","","","232","main_expt",""
"","bandit","312","726466","0.0-274.0-0.0","75770132","wem/bandit_party_1","AJZZOD77TYA2X","either","5","194","","","","","","","0","0","1","","0.3103031796","0.8","0.4","0.6","0.2","0.1874863907","0.2485723575","0.2171974885","0.3103031796","","","","","","","","","","","","","","76","L","3","","","233","main_expt",""
"","bandit","313","728027","0.0-275.0-0.0","75770132","wem/bandit_party_1","AJZZOD77TYA2X","either","5","25","","","","","","","0","0","1","0.2172766866","","0.8","0.4","0.6","0.2","","","","","0.2165838284","0.2172766866","0.2951485073","0.2971988612","","","","","","","","","","74","J","1","","","234","main_expt",""
"","bandit","314","729620","0.0-276.0-0.0","75770132","wem/bandit_party_1","AJZZOD77TYA2X","either","5","80","","","","","","","1","0","0","0.3135740045","","0.8","0.4","0.6","0.2","","","","","0.1791302586","0.221542824","0.3135740045","0.3266576642","","","","","","","","","","75","K","2","","","235","main_expt",""
"","bandit","315","731230","0.0-277.0-0.0","75770132","wem/bandit_party_1","AJZZOD77TYA2X","either","5","98","","","","","","","0","0","1","","0.2945285262","0.8","0.4","0.6","0.2","0.2463713802","0.2200573756","0.2945285262","0.3596878827","","","","","","","","","","","","","","75","K","2","","","236","main_expt",""
"","bandit","316","732848","0.0-278.0-0.0","75770132","wem/bandit_party_1","AJZZOD77TYA2X","either","5","109","","","","","","","0","0","1","","0.3951370387","0.8","0.4","0.6","0.2","0.2204623923","0.2146478317","0.2797454337","0.3951370387","","","","","","","","","","","","","","76","L","3","","","237","main_expt",""
"","bandit","317","734433","0.0-279.0-0.0","75770132","wem/bandit_party_1","AJZZOD77TYA2X","either","5","73","","","","","","","0","0","1","","0.2237656472","0.8","0.4","0.6","0.2","0.2316256556","0.2237656472","0.266453507","0.3863552979","","","","","","","","","","","","","","74","J","1","","","238","main_expt",""
"","bandit","318","736072","0.0-280.0-0.0","75770132","wem/bandit_party_1","AJZZOD77TYA2X","either","5","128","","","","","","","0","0","1","0.310831157","","0.8","0.4","0.6","0.2","","","","","0.2406304147","0.2302611888","0.310831157","0.3962704677","","","","","","","","","","75","K","2","","","239","main_expt",""
"","bandit","319","737592","0.0-281.0-0.0","75770132","wem/bandit_party_1","AJZZOD77TYA2X","either","5","4","","","","","","","1","0","0","0.3926977495","","0.8","0.4","0.6","0.2","","","","","0.2624476398","0.2253069634","0.331950591","0.3926977495","","","","","","","","","","76","L","3","","","240","main_expt",""
"","bandit","320","739543","0.0-282.0-0.0","75770132","wem/bandit_party_1","AJZZOD77TYA2X","either","5","441","","","","","","","0","0","1","","0.3381110468","0.8","0.4","0.6","0.2","0.2627099727","0.2523404353","0.3223776605","0.3381110468","","","","","","","","","","","","","","76","L","3","","","241","main_expt",""
