"consent","trial_type","trial_index","time_elapsed","internal_node_id","subjID","study","MID","cond","drift","rt","responses","button_pressed","key_press","like","value","connected","gems","bombs","no_reward","GemPrChosen","BombPrChosen","GainOverPainPr_0","GainOverPainPr_1","GainOverPainPr_2","GainOverPainPr_3","LosePr_0","LosePr_1","LosePr_2","LosePr_3","WinPr_0","WinPr_1","WinPr_2","WinPr_3","Q0","Q1","Q2","gender","age","ethnicity","label","expt_phase","target","respCharCode","respKey","respChoiceNum","respChoice","practice","trial_counter","trial_label","Q0_index"
"GDM/GDM_behavioral_consent_30min_online.html","consent","0","19518","0.0-0.0","75889744","wem/bandit_party_1","AAM0Q3DCSSQ0A","either","2","","","","","","","","","","","","","","","","","","","","","","","","","","","","","","","","","","","","","","","","",""
"","survey-text","1","27568","0.0-1.0","75889744","wem/bandit_party_1","AAM0Q3DCSSQ0A","either","2","7026","{""Q0"":""AAM0Q3DCSSQ0A""}","","","","","","","","","","","","","","","","","","","","","","","","","","","","","","","","","","","","","","",""
"","button-response","2","30867","0.0-2.0","75889744","wem/bandit_party_1","AAM0Q3DCSSQ0A","either","2","2291","","1","","","","","","","","","","","","","","","","","","","","","","","","","","","","","","","","","","","","","",""
"","text-replacement","3","41735","0.0-3.0","75889744","wem/bandit_party_1","AAM0Q3DCSSQ0A","either","2","9859","","","32","","","","","","","","","","","","","","","","","","","","","","","","","","","","","","","","","","","","",""
"","text-replacement","4","49327","0.0-4.0","75889744","wem/bandit_party_1","AAM0Q3DCSSQ0A","either","2","7587","","","32","","","","","","","","","","","","","","","","","","","","","","","","","","","","","","","","","","","","",""
"","identification","5","55728","0.0-6.0-0.0","75889744","wem/bandit_party_1","AAM0Q3DCSSQ0A","either","2","6367","","","","1","2","0","","","","","","","","","","","","","","","","","","","","","","","","pre","identification_pre","the Republican party","","","","","","","",""
"","identification","6","61703","0.0-6.0-1.0","75889744","wem/bandit_party_1","AAM0Q3DCSSQ0A","either","2","4934","","","","6","6","5","","","","","","","","","","","","","","","","","","","","","","","","pre","identification_pre","the Democratic Party","","","","","","","",""
"","text-replacement","7","75498","0.0-7.0","75889744","wem/bandit_party_1","AAM0Q3DCSSQ0A","either","2","12789","","","32","","","","","","","","","","","","","","","","","","","","","","","","","","","","","","","","","","","","",""
"","text-replacement","8","78830","0.0-8.0","75889744","wem/bandit_party_1","AAM0Q3DCSSQ0A","either","2","3327","","","32","","","","","","","","","","","","","","","","","","","","","","","","","","","","","","","","","","","","",""
"","text-replacement","9","84741","0.0-9.0","75889744","wem/bandit_party_1","AAM0Q3DCSSQ0A","either","2","5904","","","32","","","","","","","","","","","","","","","","","","","","","","","","","","","","","","","","","","","","",""
"","text-replacement","10","88224","0.0-10.0","75889744","wem/bandit_party_1","AAM0Q3DCSSQ0A","either","2","3477","","","32","","","","","","","","","","","","","","","","","","","","","","","","","","","","","","","","","","","","",""
"","text-replacement","11","90825","0.0-11.0","75889744","wem/bandit_party_1","AAM0Q3DCSSQ0A","either","2","2598","","","32","","","","","","","","","","","","","","","","","","","","","","","","","","","","","","","","","","","","",""
"","bandit","12","95034","0.0-12.0-0.0","75889744","wem/bandit_party_1","AAM0Q3DCSSQ0A","either","2","2683","","","","","","","0","0","1","0","0","","","","","0","","","","0","","","","","","","","","","","","","74","J","0","img/none_selected_demo.jpg","true","0","",""
"","bandit","13","97741","0.0-13.0-0.0","75889744","wem/bandit_party_1","AAM0Q3DCSSQ0A","either","2","1190","","","","","","","0","0","1","0","0","","","","","0","","","","0","","","","","","","","","","","","","75","K","0","img/none_selected_demo.jpg","true","0","",""
"","text-replacement","14","97962","0.0-14.0","75889744","wem/bandit_party_1","AAM0Q3DCSSQ0A","either","2","218","","","32","","","","","","","","","","","","","","","","","","","","","","","","","","","","","","","","","","","","",""
"","text-replacement","15","102172","0.0-15.0","75889744","wem/bandit_party_1","AAM0Q3DCSSQ0A","either","2","4204","","","32","","","","","","","","","","","","","","","","","","","","","","","","","","","","","","","","","","","","",""
"","text-replacement","16","107028","0.0-16.0","75889744","wem/bandit_party_1","AAM0Q3DCSSQ0A","either","2","4852","","","32","","","","","","","","","","","","","","","","","","","","","","","","","","","","","","","","","","","","",""
"","text-replacement","17","108816","0.0-17.0","75889744","wem/bandit_party_1","AAM0Q3DCSSQ0A","either","2","1786","","","32","","","","","","","","","","","","","","","","","","","","","","","","","","","","","","","","","","","","",""
"","bandit","18","111204","0.0-18.0-0.0","75889744","wem/bandit_party_1","AAM0Q3DCSSQ0A","either","2","872","","","","","","","0","1","0","","0.8","0.5","0.5","","","0.8","0.2","","","","","","","","","","","","","","","","74","J","0","img/none_selected_demo.jpg","true","0","80_20_practice",""
"","bandit","19","113490","0.0-18.0-1.0","75889744","wem/bandit_party_1","AAM0Q3DCSSQ0A","either","2","764","","","","","","","1","0","0","0.8","","0.5","0.5","","","","","","","0.8","0.2","","","","","","","","","","","","74","J","0","img/none_selected_demo.jpg","true","0","80_20_practice",""
"","bandit","20","115378","0.0-18.0-2.0","75889744","wem/bandit_party_1","AAM0Q3DCSSQ0A","either","2","354","","","","","","","0","1","0","","0.8","0.5","0.5","","","0.8","0.2","","","","","","","","","","","","","","","","74","J","0","img/none_selected_demo.jpg","true","0","80_20_practice",""
"","bandit","21","117427","0.0-18.0-3.0","75889744","wem/bandit_party_1","AAM0Q3DCSSQ0A","either","2","527","","","","","","","0","1","0","","0.8","0.5","0.5","","","0.8","0.2","","","","","","","","","","","","","","","","74","J","0","img/none_selected_demo.jpg","true","0","80_20_practice",""
"","bandit","22","119116","0.0-18.0-4.0","75889744","wem/bandit_party_1","AAM0Q3DCSSQ0A","either","2","162","","","","","","","1","0","0","0.2","","0.5","0.5","","","","","","","0.8","0.2","","","","","","","","","","","","75","K","1","","true","0","80_20_practice",""
"","bandit","23","120665","0.0-18.0-5.0","75889744","wem/bandit_party_1","AAM0Q3DCSSQ0A","either","2","31","","","","","","","0","0","1","0.2","","0.5","0.5","","","","","","","0.8","0.2","","","","","","","","","","","","75","K","1","","true","0","80_20_practice",""
"","bandit","24","123243","0.0-18.0-6.0","75889744","wem/bandit_party_1","AAM0Q3DCSSQ0A","either","2","1058","","","","","","","0","0","1","0.2","","0.5","0.5","","","","","","","0.8","0.2","","","","","","","","","","","","75","K","1","","true","0","80_20_practice",""
"","bandit","25","124859","0.0-18.0-7.0","75889744","wem/bandit_party_1","AAM0Q3DCSSQ0A","either","2","87","","","","","","","0","1","0","","0.8","0.5","0.5","","","0.8","0.2","","","","","","","","","","","","","","","","74","J","0","img/none_selected_demo.jpg","true","0","80_20_practice",""
"","bandit","26","126476","0.0-18.0-8.0","75889744","wem/bandit_party_1","AAM0Q3DCSSQ0A","either","2","91","","","","","","","1","0","0","0.8","","0.5","0.5","","","","","","","0.8","0.2","","","","","","","","","","","","74","J","0","img/none_selected_demo.jpg","true","0","80_20_practice",""
"","bandit","27","129536","0.0-18.0-9.0","75889744","wem/bandit_party_1","AAM0Q3DCSSQ0A","either","2","1531","","","","","","","1","0","0","0.8","","0.5","0.5","","","","","","","0.8","0.2","","","","","","","","","","","","74","J","0","img/none_selected_demo.jpg","true","0","80_20_practice",""
"","bandit","28","131294","0.0-18.0-10.0","75889744","wem/bandit_party_1","AAM0Q3DCSSQ0A","either","2","240","","","","","","","0","0","1","","0.2","0.5","0.5","","","0.8","0.2","","","","","","","","","","","","","","","","75","K","1","","true","0","80_20_practice",""
"","bandit","29","133353","0.0-18.0-11.0","75889744","wem/bandit_party_1","AAM0Q3DCSSQ0A","either","2","541","","","","","","","0","0","1","","0.2","0.5","0.5","","","0.8","0.2","","","","","","","","","","","","","","","","75","K","1","","true","0","80_20_practice",""
"","bandit","30","136663","0.0-18.0-12.0","75889744","wem/bandit_party_1","AAM0Q3DCSSQ0A","either","2","1789","","","","","","","0","0","1","","0.2","0.5","0.5","","","0.8","0.2","","","","","","","","","","","","","","","","75","K","1","","true","0","80_20_practice",""
"","bandit","31","138466","0.0-18.0-13.0","75889744","wem/bandit_party_1","AAM0Q3DCSSQ0A","either","2","279","","","","","","","0","1","0","","0.2","0.5","0.5","","","0.8","0.2","","","","","","","","","","","","","","","","75","K","1","","true","0","80_20_practice",""
"","bandit","32","140160","0.0-18.0-14.0","75889744","wem/bandit_party_1","AAM0Q3DCSSQ0A","either","2","171","","","","","","","0","0","1","","0.2","0.5","0.5","","","0.8","0.2","","","","","","","","","","","","","","","","75","K","1","","true","0","80_20_practice",""
"","bandit","33","142842","0.0-18.0-15.0","75889744","wem/bandit_party_1","AAM0Q3DCSSQ0A","either","2","1154","","","","","","","0","1","0","","0.8","0.5","0.5","","","0.8","0.2","","","","","","","","","","","","","","","","74","J","0","img/none_selected_demo.jpg","true","0","80_20_practice",""
"","bandit","34","146194","0.0-18.0-16.0","75889744","wem/bandit_party_1","AAM0Q3DCSSQ0A","either","2","1824","","","","","","","0","0","1","0.8","","0.5","0.5","","","","","","","0.8","0.2","","","","","","","","","","","","74","J","0","img/none_selected_demo.jpg","true","0","80_20_practice",""
"","bandit","35","149399","0.0-18.0-17.0","75889744","wem/bandit_party_1","AAM0Q3DCSSQ0A","either","2","1676","","","","","","","1","0","0","0.8","","0.5","0.5","","","","","","","0.8","0.2","","","","","","","","","","","","74","J","0","img/none_selected_demo.jpg","true","0","80_20_practice",""
"","bandit","36","151256","0.0-18.0-18.0","75889744","wem/bandit_party_1","AAM0Q3DCSSQ0A","either","2","333","","","","","","","1","0","0","0.8","","0.5","0.5","","","","","","","0.8","0.2","","","","","","","","","","","","74","J","0","img/none_selected_demo.jpg","true","0","80_20_practice",""
"","bandit","37","153187","0.0-18.0-19.0","75889744","wem/bandit_party_1","AAM0Q3DCSSQ0A","either","2","400","","","","","","","0","1","0","","0.8","0.5","0.5","","","0.8","0.2","","","","","","","","","","","","","","","","74","J","0","img/none_selected_demo.jpg","true","0","80_20_practice",""
"","text-replacement","38","155760","0.0-19.0","75889744","wem/bandit_party_1","AAM0Q3DCSSQ0A","either","2","2568","","","32","","","","","","","","","","","","","","","","","","","","","","","","","","","","","","","","","","","","",""
"","bandit","39","158124","0.0-20.0-0.0","75889744","wem/bandit_party_1","AAM0Q3DCSSQ0A","either","2","842","","","","","","","1","0","0","1","0","","","","","0","1","","","1","0","","","","","","","","","","","","74","J","0","img/none_selected_demo.jpg","true","0","",""
"","text-replacement","40","160490","0.0-21.0","75889744","wem/bandit_party_1","AAM0Q3DCSSQ0A","either","2","2360","","","32","","","","","","","","","","","","","","","","","","","","","","","","","","","","","","","","","","","","",""
"","text-replacement","41","162579","0.0-22.0","75889744","wem/bandit_party_1","AAM0Q3DCSSQ0A","either","2","2083","","","32","","","","","","","","","","","","","","","","","","","","","","","","","","","","","","","","","","","","",""
"","text-replacement","42","164560","0.0-23.0","75889744","wem/bandit_party_1","AAM0Q3DCSSQ0A","either","2","1976","","","32","","","","","","","","","","","","","","","","","","","","","","","","","","","","","","","","","","","","",""
"","text-replacement","43","166633","0.0-24.0","75889744","wem/bandit_party_1","AAM0Q3DCSSQ0A","either","2","2069","","","32","","","","","","","","","","","","","","","","","","","","","","","","","","","","","","","","","","","","",""
"","text-replacement","44","170308","0.0-25.0","75889744","wem/bandit_party_1","AAM0Q3DCSSQ0A","either","2","3671","","","32","","","","","","","","","","","","","","","","","","","","","","","","","","","","","","","","","","","","",""
"","text-replacement","45","173041","0.0-26.0","75889744","wem/bandit_party_1","AAM0Q3DCSSQ0A","either","2","2728","","","32","","","","","","","","","","","","","","","","","","","","","","","","","","","","","","","","","","","","",""
"","text-replacement","46","176922","0.0-27.0","75889744","wem/bandit_party_1","AAM0Q3DCSSQ0A","either","2","3877","","","32","","","","","","","","","","","","","","","","","","","","","","","","","","","","","","","","","","","","",""
"","text-replacement","47","179054","0.0-28.0","75889744","wem/bandit_party_1","AAM0Q3DCSSQ0A","either","2","2128","","","32","","","","","","","","","","","","","","","","","","","","","","","","","","","","","","","","","","","","",""
"","text-replacement","48","182030","0.0-29.0","75889744","wem/bandit_party_1","AAM0Q3DCSSQ0A","either","2","2971","","","32","","","","","","","","","","","","","","","","","","","","","","","","","","","","","","","","","","","","",""
"","text-replacement","49","183480","0.0-30.0","75889744","wem/bandit_party_1","AAM0Q3DCSSQ0A","either","2","1443","","","32","","","","","","","","","","","","","","","","","","","","","","","","","","","","","","","","","","","","",""
"","text-replacement","50","184498","0.0-31.0","75889744","wem/bandit_party_1","AAM0Q3DCSSQ0A","either","2","1014","","","32","","","","","","","","","","","","","","","","","","","","","","","","","","","","","","","","","","","","",""
"","bandit","51","187253","0.0-32.0-0.0","75889744","wem/bandit_party_1","AAM0Q3DCSSQ0A","either","2","1232","","","","","","","0","1","0","","0.8","0.5","0.5","0.5","0.5","0.8","0.2","0.6","0.2","","","","","","","","","","","","","","72","H","0","img/none_selected.jpg","true","0","full_practice",""
"","bandit","52","188935","0.0-32.0-1.0","75889744","wem/bandit_party_1","AAM0Q3DCSSQ0A","either","2","158","","","","","","","0","1","0","","0.8","0.5","0.5","0.5","0.5","0.8","0.2","0.6","0.2","","","","","","","","","","","","","","72","H","0","img/none_selected.jpg","true","0","full_practice",""
"","bandit","53","190605","0.0-32.0-2.0","75889744","wem/bandit_party_1","AAM0Q3DCSSQ0A","either","2","138","","","","","","","0","0","1","","0.8","0.5","0.5","0.5","0.5","0.8","0.2","0.6","0.2","","","","","","","","","","","","","","72","H","0","img/none_selected.jpg","true","0","full_practice",""
"","bandit","54","192626","0.0-32.0-3.0","75889744","wem/bandit_party_1","AAM0Q3DCSSQ0A","either","2","497","","","","","","","0","0","1","","0.2","0.5","0.5","0.5","0.5","0.8","0.2","0.6","0.2","","","","","","","","","","","","","","74","J","1","","true","0","full_practice",""
"","bandit","55","194579","0.0-32.0-4.0","75889744","wem/bandit_party_1","AAM0Q3DCSSQ0A","either","2","431","","","","","","","0","0","1","","0.2","0.5","0.5","0.5","0.5","0.8","0.2","0.6","0.2","","","","","","","","","","","","","","74","J","1","","true","0","full_practice",""
"","bandit","56","196837","0.0-32.0-5.0","75889744","wem/bandit_party_1","AAM0Q3DCSSQ0A","either","2","730","","","","","","","0","0","1","","0.2","0.5","0.5","0.5","0.5","0.8","0.2","0.6","0.2","","","","","","","","","","","","","","74","J","1","","true","0","full_practice",""
"","bandit","57","199393","0.0-32.0-6.0","75889744","wem/bandit_party_1","AAM0Q3DCSSQ0A","either","2","1030","","","","","","","1","0","0","0.6","","0.5","0.5","0.5","0.5","","","","","0.8","0.2","0.6","0.2","","","","","","","","","","75","K","2","","true","0","full_practice",""
"","bandit","58","201227","0.0-32.0-7.0","75889744","wem/bandit_party_1","AAM0Q3DCSSQ0A","either","2","307","","","","","","","1","0","0","0.6","","0.5","0.5","0.5","0.5","","","","","0.8","0.2","0.6","0.2","","","","","","","","","","75","K","2","","true","0","full_practice",""
"","bandit","59","203129","0.0-32.0-8.0","75889744","wem/bandit_party_1","AAM0Q3DCSSQ0A","either","2","380","","","","","","","1","0","0","0.6","","0.5","0.5","0.5","0.5","","","","","0.8","0.2","0.6","0.2","","","","","","","","","","75","K","2","","true","0","full_practice",""
"","bandit","60","204892","0.0-32.0-9.0","75889744","wem/bandit_party_1","AAM0Q3DCSSQ0A","either","2","239","","","","","","","0","0","1","","0.2","0.5","0.5","0.5","0.5","0.8","0.2","0.6","0.2","","","","","","","","","","","","","","76","L","3","","true","0","full_practice",""
"","bandit","61","207848","0.0-32.0-10.0","75889744","wem/bandit_party_1","AAM0Q3DCSSQ0A","either","2","1421","","","","","","","0","0","1","0.2","","0.5","0.5","0.5","0.5","","","","","0.8","0.2","0.6","0.2","","","","","","","","","","76","L","3","","true","0","full_practice",""
"","bandit","62","209983","0.0-32.0-11.0","75889744","wem/bandit_party_1","AAM0Q3DCSSQ0A","either","2","611","","","","","","","0","1","0","","0.2","0.5","0.5","0.5","0.5","0.8","0.2","0.6","0.2","","","","","","","","","","","","","","76","L","3","","true","0","full_practice",""
"","bandit","63","212304","0.0-32.0-12.0","75889744","wem/bandit_party_1","AAM0Q3DCSSQ0A","either","2","797","","","","","","","0","1","0","","0.2","0.5","0.5","0.5","0.5","0.8","0.2","0.6","0.2","","","","","","","","","","","","","","76","L","3","","true","0","full_practice",""
"","bandit","64","214046","0.0-32.0-13.0","75889744","wem/bandit_party_1","AAM0Q3DCSSQ0A","either","2","212","","","","","","","1","0","0","0.2","","0.5","0.5","0.5","0.5","","","","","0.8","0.2","0.6","0.2","","","","","","","","","","76","L","3","","true","0","full_practice",""
"","bandit","65","217191","0.0-32.0-14.0","75889744","wem/bandit_party_1","AAM0Q3DCSSQ0A","either","2","1617","","","","","","","0","0","1","0.6","","0.5","0.5","0.5","0.5","","","","","0.8","0.2","0.6","0.2","","","","","","","","","","75","K","2","","true","0","full_practice",""
"","bandit","66","219645","0.0-32.0-15.0","75889744","wem/bandit_party_1","AAM0Q3DCSSQ0A","either","2","924","","","","","","","0","0","1","","0.2","0.5","0.5","0.5","0.5","0.8","0.2","0.6","0.2","","","","","","","","","","","","","","74","J","1","","true","0","full_practice",""
"","bandit","67","221545","0.0-32.0-16.0","75889744","wem/bandit_party_1","AAM0Q3DCSSQ0A","either","2","370","","","","","","","0","0","1","0.2","","0.5","0.5","0.5","0.5","","","","","0.8","0.2","0.6","0.2","","","","","","","","","","74","J","1","","true","0","full_practice",""
"","bandit","68","223628","0.0-32.0-17.0","75889744","wem/bandit_party_1","AAM0Q3DCSSQ0A","either","2","553","","","","","","","0","1","0","","0.8","0.5","0.5","0.5","0.5","0.8","0.2","0.6","0.2","","","","","","","","","","","","","","72","H","0","img/none_selected.jpg","true","0","full_practice",""
"","bandit","69","225929","0.0-32.0-18.0","75889744","wem/bandit_party_1","AAM0Q3DCSSQ0A","either","2","775","","","","","","","1","0","0","0.8","","0.5","0.5","0.5","0.5","","","","","0.8","0.2","0.6","0.2","","","","","","","","","","72","H","0","img/none_selected.jpg","true","0","full_practice",""
"","bandit","70","228136","0.0-32.0-19.0","75889744","wem/bandit_party_1","AAM0Q3DCSSQ0A","either","2","674","","","","","","","0","1","0","","0.8","0.5","0.5","0.5","0.5","0.8","0.2","0.6","0.2","","","","","","","","","","","","","","72","H","0","img/none_selected.jpg","true","0","full_practice",""
"","text","71","231774","0.0-33.0","75889744","wem/bandit_party_1","AAM0Q3DCSSQ0A","either","2","3622","","","32","","","","","","","","","","","","","","","","","","","","","","","","","","","","","","","","","","","","",""
"","text-replacement","72","240636","0.0-34.0","75889744","wem/bandit_party_1","AAM0Q3DCSSQ0A","either","2","7857","","","32","","","","","","","","","","","","","","","","","","","","","","","","","","","","","","","","","","","","",""
"","text-replacement","73","251345","0.0-35.0","75889744","wem/bandit_party_1","AAM0Q3DCSSQ0A","either","2","10703","","","32","","","","","","","","","","","","","","","","","","","","","","","","","","","","","","","","","","","","",""
"","text-replacement","74","256191","0.0-36.0","75889744","wem/bandit_party_1","AAM0Q3DCSSQ0A","either","2","4841","","","32","","","","","","","","","","","","","","","","","","","","","","","","","","","","","","","","","","","","",""
"","text-replacement","75","260687","0.0-37.0","75889744","wem/bandit_party_1","AAM0Q3DCSSQ0A","either","2","4490","","","32","","","","","","","","","","","","","","","","","","","","","","","","","","","","","","","","","","","","",""
"","text-replacement","76","263499","0.0-38.0","75889744","wem/bandit_party_1","AAM0Q3DCSSQ0A","either","2","2806","","","32","","","","","","","","","","","","","","","","","","","","","","","","","","","","","","","","","","","","",""
"","survey-multi-choice-replacement","77","268769","0.0-39.0-0.0","75889744","wem/bandit_party_1","AAM0Q3DCSSQ0A","either","2","5247","","","","","","","","","","","","","","","","","","","","","","","","Money will be added to the pool for <span style='color:blue;'>DEMOCRATS</span>","","","","","","","attn_check","","","","","","","","","0"
"","survey-multi-choice-replacement","78","278789","0.0-40.0-0.0","75889744","wem/bandit_party_1","AAM0Q3DCSSQ0A","either","2","8987","","","","","","","","","","","","","","","","","","","","","","","","Equal amounts of money will be added to the pool for <span style='color:blue;'>DEMOCRATS</span> and subtracted from the pool for <span style='color:red;'>REPUBLICANS</span>","","","","","","","attn_check","","","","","","","","","2"
"","survey-multi-choice-replacement","79","283670","0.0-41.0-0.0","75889744","wem/bandit_party_1","AAM0Q3DCSSQ0A","either","2","3857","","","","","","","","","","","","","","","","","","","","","","","","No money will be added to either pool","","","","","","","attn_check","","","","","","","","","3"
"","bandit","80","311063","0.0-42.0-0.0","75889744","wem/bandit_party_1","AAM0Q3DCSSQ0A","either","2","24867","","","","","","","0","0","1","0.4781977867","","0.6","0.4","0.2","0.8","","","","","0.4781977867","0.362799796","0.3653736811","0.326135308","","","","","","","","","","72","H","0","img/none_selected.jpg","","1","main_expt",""
"","bandit","81","313129","0.0-43.0-0.0","75889744","wem/bandit_party_1","AAM0Q3DCSSQ0A","either","2","549","","","","","","","0","0","1","","0.4765481994","0.6","0.4","0.2","0.8","0.4765481994","0.3891507205","0.3999069229","0.3564958201","","","","","","","","","","","","","","72","H","0","img/none_selected.jpg","","2","main_expt",""
"","bandit","82","314700","0.0-44.0-0.0","75889744","wem/bandit_party_1","AAM0Q3DCSSQ0A","either","2","39","","","","","","","1","0","0","0.4722158263","","0.6","0.4","0.2","0.8","","","","","0.4722158263","0.3151339382","0.4363582421","0.3309056029","","","","","","","","","","72","H","0","img/none_selected.jpg","","3","main_expt",""
"","bandit","83","316935","0.0-45.0-0.0","75889744","wem/bandit_party_1","AAM0Q3DCSSQ0A","either","2","704","","","","","","","0","0","1","","0.250648122","0.6","0.4","0.2","0.8","0.4609570051","0.250648122","0.4300921111","0.308467875","","","","","","","","","","","","","","74","J","1","","","4","main_expt",""
"","bandit","84","318782","0.0-46.0-0.0","75889744","wem/bandit_party_1","AAM0Q3DCSSQ0A","either","2","325","","","","","","","0","0","1","","0.2382585344","0.6","0.4","0.2","0.8","0.4707799186","0.2382585344","0.3863220662","0.3349995635","","","","","","","","","","","","","","74","J","1","","","5","main_expt",""
"","bandit","85","320421","0.0-47.0-0.0","75889744","wem/bandit_party_1","AAM0Q3DCSSQ0A","either","2","115","","","","","","","0","1","0","","0.4192648028","0.6","0.4","0.2","0.8","0.4676743975","0.2088101903","0.4192648028","0.3743101545","","","","","","","","","","","","","","75","K","2","","","6","main_expt",""
"","bandit","86","322403","0.0-48.0-0.0","75889744","wem/bandit_party_1","AAM0Q3DCSSQ0A","either","2","454","","","","","","","0","0","1","","0.4218548145","0.6","0.4","0.2","0.8","0.4767364015","0.1884279889","0.4218548145","0.377506125","","","","","","","","","","","","","","75","K","2","","","7","main_expt",""
"","bandit","87","324350","0.0-49.0-0.0","75889744","wem/bandit_party_1","AAM0Q3DCSSQ0A","either","2","418","","","","","","","1","0","0","0.4298914749","","0.6","0.4","0.2","0.8","","","","","0.4837409877","0.2297930851","0.4298914749","0.3452849142","","","","","","","","","","75","K","2","","","8","main_expt",""
"","bandit","88","326289","0.0-50.0-0.0","75889744","wem/bandit_party_1","AAM0Q3DCSSQ0A","either","2","408","","","","","","","0","0","1","0.2713567333","","0.6","0.4","0.2","0.8","","","","","0.4825212187","0.2219539873","0.4215440671","0.2713567333","","","","","","","","","","76","L","3","","","9","main_expt",""
"","bandit","89","328163","0.0-51.0-0.0","75889744","wem/bandit_party_1","AAM0Q3DCSSQ0A","either","2","340","","","","","","","0","1","0","","0.3991616263","0.6","0.4","0.2","0.8","0.4791264729","0.2398128751","0.3991616263","0.2712708503","","","","","","","","","","","","","","75","K","2","","","10","main_expt",""
"","bandit","90","329806","0.0-52.0-0.0","75889744","wem/bandit_party_1","AAM0Q3DCSSQ0A","either","2","114","","","","","","","0","0","1","","0.4002673883","0.6","0.4","0.2","0.8","0.4762013833","0.2551733424","0.4002673883","0.2635531688","","","","","","","","","","","","","","75","K","2","","","11","main_expt",""
"","bandit","91","332065","0.0-53.0-0.0","75889744","wem/bandit_party_1","AAM0Q3DCSSQ0A","either","2","741","","","","","","","0","0","1","","0.2593424883","0.6","0.4","0.2","0.8","0.4729837645","0.2593424883","0.368629831","0.2669056975","","","","","","","","","","","","","","74","J","1","","","12","main_expt",""
"","bandit","92","333992","0.0-54.0-0.0","75889744","wem/bandit_party_1","AAM0Q3DCSSQ0A","either","2","399","","","","","","","0","0","1","0.4749786695","","0.6","0.4","0.2","0.8","","","","","0.4749786695","0.2493591627","0.4189726289","0.3204456557","","","","","","","","","","72","H","0","img/none_selected.jpg","","13","main_expt",""
"","bandit","93","335618","0.0-55.0-0.0","75889744","wem/bandit_party_1","AAM0Q3DCSSQ0A","either","2","99","","","","","","","0","0","1","","0.4352425359","0.6","0.4","0.2","0.8","0.4810115094","0.2686446846","0.4352425359","0.3466526728","","","","","","","","","","","","","","75","K","2","","","14","main_expt",""
"","bandit","94","337498","0.0-56.0-0.0","75889744","wem/bandit_party_1","AAM0Q3DCSSQ0A","either","2","351","","","","","","","0","0","1","","0.3819090161","0.6","0.4","0.2","0.8","0.4705329286","0.2690169042","0.3819090161","0.3736671224","","","","","","","","","","","","","","75","K","2","","","15","main_expt",""
"","bandit","95","339379","0.0-57.0-0.0","75889744","wem/bandit_party_1","AAM0Q3DCSSQ0A","either","2","356","","","","","","","0","0","1","","0.3737760256","0.6","0.4","0.2","0.8","0.4687419894","0.2518303543","0.3737760256","0.3778143907","","","","","","","","","","","","","","75","K","2","","","16","main_expt",""
"","bandit","96","341553","0.0-58.0-0.0","75889744","wem/bandit_party_1","AAM0Q3DCSSQ0A","either","2","633","","","","","","","0","0","1","0.4594180265","","0.6","0.4","0.2","0.8","","","","","0.4594180265","0.2406549936","0.4151791473","0.3845750066","","","","","","","","","","72","H","0","img/none_selected.jpg","","17","main_expt",""
"","bandit","97","343515","0.0-59.0-0.0","75889744","wem/bandit_party_1","AAM0Q3DCSSQ0A","either","2","435","","","","","","","0","1","0","","0.425397146","0.6","0.4","0.2","0.8","0.425397146","0.2670149403","0.4137363134","0.4041286345","","","","","","","","","","","","","","72","H","0","img/none_selected.jpg","","18","main_expt",""
"","bandit","98","345442","0.0-60.0-0.0","75889744","wem/bandit_party_1","AAM0Q3DCSSQ0A","either","2","395","","","","","","","0","0","1","","0.4201246927","0.6","0.4","0.2","0.8","0.4201246927","0.2658482338","0.4084056464","0.4127350431","","","","","","","","","","","","","","72","H","0","img/none_selected.jpg","","19","main_expt",""
"","bandit","99","347230","0.0-61.0-0.0","75889744","wem/bandit_party_1","AAM0Q3DCSSQ0A","either","2","255","","","","","","","0","0","1","0.3954271328","","0.6","0.4","0.2","0.8","","","","","0.3954271328","0.2452433766","0.4129175496","0.4107359536","","","","","","","","","","72","H","0","img/none_selected.jpg","","20","main_expt",""
"","bandit","100","349323","0.0-62.0-0.0","75889744","wem/bandit_party_1","AAM0Q3DCSSQ0A","either","2","564","","","","","","","0","0","1","0.4196431029","","0.6","0.4","0.2","0.8","","","","","0.4196431029","0.2298761452","0.3888488162","0.3954861765","","","","","","","","","","72","H","0","img/none_selected.jpg","","21","main_expt",""
"","bandit","101","351031","0.0-63.0-0.0","75889744","wem/bandit_party_1","AAM0Q3DCSSQ0A","either","2","183","","","","","","","0","0","1","0.3843335182","","0.6","0.4","0.2","0.8","","","","","0.3843335182","0.266827693","0.3873149631","0.3805979297","","","","","","","","","","72","H","0","img/none_selected.jpg","","22","main_expt",""
"","bandit","102","352692","0.0-64.0-0.0","75889744","wem/bandit_party_1","AAM0Q3DCSSQ0A","either","2","142","","","","","","","0","0","1","","0.2519769849","0.6","0.4","0.2","0.8","0.3839977458","0.2519769849","0.3659772031","0.425451992","","","","","","","","","","","","","","74","J","1","","","23","main_expt",""
"","bandit","103","354451","0.0-65.0-0.0","75889744","wem/bandit_party_1","AAM0Q3DCSSQ0A","either","2","229","","","","","","","0","0","1","","0.2447613107","0.6","0.4","0.2","0.8","0.3338939571","0.2447613107","0.3594327093","0.4699447661","","","","","","","","","","","","","","74","J","1","","","24","main_expt",""
"","bandit","104","356185","0.0-66.0-0.0","75889744","wem/bandit_party_1","AAM0Q3DCSSQ0A","either","2","204","","","","","","","0","0","1","","0.3719143394","0.6","0.4","0.2","0.8","0.324486952","0.2350413847","0.3719143394","0.4484050393","","","","","","","","","","","","","","75","K","2","","","25","main_expt",""
"","bandit","105","358101","0.0-67.0-0.0","75889744","wem/bandit_party_1","AAM0Q3DCSSQ0A","either","2","386","","","","","","","1","0","0","0.3690014044","","0.6","0.4","0.2","0.8","","","","","0.3095710384","0.207774486","0.3690014044","0.4190234423","","","","","","","","","","75","K","2","","","26","main_expt",""
"","bandit","106","359901","0.0-68.0-0.0","75889744","wem/bandit_party_1","AAM0Q3DCSSQ0A","either","2","269","","","","","","","0","0","1","0.4251478254","","0.6","0.4","0.2","0.8","","","","","0.3355629191","0.2164182795","0.3940030818","0.4251478254","","","","","","","","","","76","L","3","","","27","main_expt",""
"","bandit","107","361903","0.0-69.0-0.0","75889744","wem/bandit_party_1","AAM0Q3DCSSQ0A","either","2","477","","","","","","","1","0","0","0.4287328697","","0.6","0.4","0.2","0.8","","","","","0.3668681485","0.2164031865","0.4111080327","0.4287328697","","","","","","","","","","76","L","3","","","28","main_expt",""
"","bandit","108","363916","0.0-70.0-0.0","75889744","wem/bandit_party_1","AAM0Q3DCSSQ0A","either","2","483","","","","","","","1","0","0","0.4106025245","","0.6","0.4","0.2","0.8","","","","","0.343198694","0.2770000278","0.41290056","0.4106025245","","","","","","","","","","76","L","3","","","29","main_expt",""
"","bandit","109","365984","0.0-71.0-0.0","75889744","wem/bandit_party_1","AAM0Q3DCSSQ0A","either","2","517","","","","","","","0","0","1","0.3942494676","","0.6","0.4","0.2","0.8","","","","","0.326069126","0.2354797847","0.3937480262","0.3942494676","","","","","","","","","","76","L","3","","","30","main_expt",""
"","bandit","110","368061","0.0-72.0-0.0","75889744","wem/bandit_party_1","AAM0Q3DCSSQ0A","either","2","543","","","","","","","0","0","1","0.4285056211","","0.6","0.4","0.2","0.8","","","","","0.3390127419","0.2692030882","0.3997016236","0.4285056211","","","","","","","","","","76","L","3","","","31","main_expt",""
"","bandit","111","370518","0.0-73.0-0.0","75889744","wem/bandit_party_1","AAM0Q3DCSSQ0A","either","2","924","","","","","","","0","1","0","","0.3574295763","0.6","0.4","0.2","0.8","0.3360649894","0.2471118655","0.3574295763","0.4249454459","","","","","","","","","","","","","","75","K","2","","","32","main_expt",""
"","bandit","112","372105","0.0-74.0-0.0","75889744","wem/bandit_party_1","AAM0Q3DCSSQ0A","either","2","67","","","","","","","0","1","0","","0.3877818659","0.6","0.4","0.2","0.8","0.3052602024","0.2879199001","0.3877818659","0.416417765","","","","","","","","","","","","","","75","K","2","","","33","main_expt",""
"","bandit","113","374288","0.0-75.0-0.0","75889744","wem/bandit_party_1","AAM0Q3DCSSQ0A","either","2","653","","","","","","","0","1","0","","0.3799496232","0.6","0.4","0.2","0.8","0.3594788954","0.3180115212","0.3799496232","0.4623714429","","","","","","","","","","","","","","75","K","2","","","34","main_expt",""
"","bandit","114","375994","0.0-76.0-0.0","75889744","wem/bandit_party_1","AAM0Q3DCSSQ0A","either","2","178","","","","","","","0","0","1","","0.3577573403","0.6","0.4","0.2","0.8","0.380235832","0.2524306687","0.3577573403","0.4591977302","","","","","","","","","","","","","","75","K","2","","","35","main_expt",""
"","bandit","115","377907","0.0-77.0-0.0","75889744","wem/bandit_party_1","AAM0Q3DCSSQ0A","either","2","391","","","","","","","0","0","1","","0.3895375856","0.6","0.4","0.2","0.8","0.3459989602","0.2351869563","0.3895375856","0.4686235256","","","","","","","","","","","","","","75","K","2","","","36","main_expt",""
"","bandit","116","379634","0.0-78.0-0.0","75889744","wem/bandit_party_1","AAM0Q3DCSSQ0A","either","2","205","","","","","","","1","0","0","0.4571547709","","0.6","0.4","0.2","0.8","","","","","0.3320905149","0.2629170466","0.3783527007","0.4571547709","","","","","","","","","","76","L","3","","","37","main_expt",""
"","bandit","117","381713","0.0-79.0-0.0","75889744","wem/bandit_party_1","AAM0Q3DCSSQ0A","either","2","551","","","","","","","0","0","1","0.284076782","","0.6","0.4","0.2","0.8","","","","","0.3471020919","0.3090194305","0.284076782","0.4688430709","","","","","","","","","","75","K","2","","","38","main_expt",""
"","bandit","118","383458","0.0-80.0-0.0","75889744","wem/bandit_party_1","AAM0Q3DCSSQ0A","either","2","220","","","","","","","0","0","1","","0.3388972186","0.6","0.4","0.2","0.8","0.3401763967","0.2845371228","0.3388972186","0.4612923778","","","","","","","","","","","","","","75","K","2","","","39","main_expt",""
"","bandit","119","385389","0.0-81.0-0.0","75889744","wem/bandit_party_1","AAM0Q3DCSSQ0A","either","2","408","","","","","","","0","0","1","0.3076259244","","0.6","0.4","0.2","0.8","","","","","0.3260487483","0.3076259244","0.2663655232","0.4576194683","","","","","","","","","","74","J","1","","","40","main_expt",""
"","bandit","120","386927","0.0-82.0-0.0","75889744","wem/bandit_party_1","AAM0Q3DCSSQ0A","either","2","2","","","","","","","0","0","1","","0.2888769276","0.6","0.4","0.2","0.8","0.3390218734","0.2888769276","0.2608266697","0.4473921051","","","","","","","","","","","","","","74","J","1","","","41","main_expt",""
"","bandit","121","388540","0.0-83.0-0.0","75889744","wem/bandit_party_1","AAM0Q3DCSSQ0A","either","2","83","","","","","","","0","0","1","0.2889680017","","0.6","0.4","0.2","0.8","","","","","0.2889680017","0.2639198141","0.2287676803","0.425470286","","","","","","","","","","72","H","0","img/none_selected.jpg","","42","main_expt",""
"","bandit","122","391102","0.0-84.0-0.0","75889744","wem/bandit_party_1","AAM0Q3DCSSQ0A","either","2","1026","","","","","","","0","1","0","","0.2255441472","0.6","0.4","0.2","0.8","0.2784828801","0.2255441472","0.2043112358","0.4030522017","","","","","","","","","","","","","","74","J","1","","","43","main_expt",""
"","bandit","123","392954","0.0-85.0-0.0","75889744","wem/bandit_party_1","AAM0Q3DCSSQ0A","either","2","330","","","","","","","0","0","1","","0.2050272072","0.6","0.4","0.2","0.8","0.2805729819","0.2050272072","0.1957049551","0.4106315797","","","","","","","","","","","","","","74","J","1","","","44","main_expt",""
"","bandit","124","395085","0.0-86.0-0.0","75889744","wem/bandit_party_1","AAM0Q3DCSSQ0A","either","2","606","","","","","","","0","0","1","0.239455925","","0.6","0.4","0.2","0.8","","","","","0.2195119073","0.239455925","0.2207366272","0.4258527362","","","","","","","","","","74","J","1","","","45","main_expt",""
"","bandit","125","397010","0.0-87.0-0.0","75889744","wem/bandit_party_1","AAM0Q3DCSSQ0A","either","2","349","","","","","","","0","0","1","","0.1727988076","0.6","0.4","0.2","0.8","0.2657932304","0.2414778298","0.1727988076","0.4425966235","","","","","","","","","","","","","","75","K","2","","","46","main_expt",""
"","bandit","126","398573","0.0-88.0-0.0","75889744","wem/bandit_party_1","AAM0Q3DCSSQ0A","either","2","28","","","","","","","0","0","1","0.1884211613","","0.6","0.4","0.2","0.8","","","","","0.2678398397","0.1884211613","0.1446735631","0.4428977597","","","","","","","","","","74","J","1","","","47","main_expt",""
"","bandit","127","400439","0.0-89.0-0.0","75889744","wem/bandit_party_1","AAM0Q3DCSSQ0A","either","2","338","","","","","","","0","0","1","","0.1755274282","0.6","0.4","0.2","0.8","0.2866904938","0.1755274282","0.1681765936","0.4479964269","","","","","","","","","","","","","","74","J","1","","","48","main_expt",""
"","bandit","128","402267","0.0-90.0-0.0","75889744","wem/bandit_party_1","AAM0Q3DCSSQ0A","either","2","298","","","","","","","0","0","1","0.1646396384","","0.6","0.4","0.2","0.8","","","","","0.2803848884","0.1646396384","0.1473883531","0.4660387519","","","","","","","","","","74","J","1","","","49","main_expt",""
"","bandit","129","404050","0.0-91.0-0.0","75889744","wem/bandit_party_1","AAM0Q3DCSSQ0A","either","2","253","","","","","","","0","0","1","","0.2024226619","0.6","0.4","0.2","0.8","0.2587411269","0.2024226619","0.1378170987","0.4345757832","","","","","","","","","","","","","","74","J","1","","","50","main_expt",""
"","bandit","130","405946","0.0-92.0-0.0","75889744","wem/bandit_party_1","AAM0Q3DCSSQ0A","either","2","369","","","","","","","0","0","1","","0.1976760068","0.6","0.4","0.2","0.8","0.2212901065","0.1976760068","0.1430360168","0.4450950844","","","","","","","","","","","","","","74","J","1","","","51","main_expt",""
"","bandit","131","408085","0.0-93.0-0.0","75889744","wem/bandit_party_1","AAM0Q3DCSSQ0A","either","2","613","","","","","","","1","0","0","0.4475354499","","0.6","0.4","0.2","0.8","","","","","0.236006857","0.1796352224","0.1731798725","0.4475354499","","","","","","","","","","76","L","3","","","52","main_expt",""
"","bandit","132","410061","0.0-94.0-0.0","75889744","wem/bandit_party_1","AAM0Q3DCSSQ0A","either","2","427","","","","","","","1","0","0","0.4627294295","","0.6","0.4","0.2","0.8","","","","","0.2660825342","0.2451732725","0.1312409056","0.4627294295","","","","","","","","","","76","L","3","","","53","main_expt",""
"","bandit","133","412109","0.0-95.0-0.0","75889744","wem/bandit_party_1","AAM0Q3DCSSQ0A","either","2","514","","","","","","","0","0","1","0.44829207","","0.6","0.4","0.2","0.8","","","","","0.2458345041","0.2621482643","0.1862053218","0.44829207","","","","","","","","","","76","L","3","","","54","main_expt",""
"","bandit","134","414090","0.0-96.0-0.0","75889744","wem/bandit_party_1","AAM0Q3DCSSQ0A","either","2","450","","","","","","","0","0","1","0.4505537928","","0.6","0.4","0.2","0.8","","","","","0.2265690781","0.2441780383","0.1733563037","0.4505537928","","","","","","","","","","76","L","3","","","55","main_expt",""
"","bandit","135","415688","0.0-97.0-0.0","75889744","wem/bandit_party_1","AAM0Q3DCSSQ0A","either","2","73","","","","","","","1","0","0","0.4686400132","","0.6","0.4","0.2","0.8","","","","","0.2741820357","0.199729785","0.1728369204","0.4686400132","","","","","","","","","","76","L","3","","","56","main_expt",""
"","bandit","136","417621","0.0-98.0-0.0","75889744","wem/bandit_party_1","AAM0Q3DCSSQ0A","either","2","403","","","","","","","0","0","1","","0.2937641054","0.6","0.4","0.2","0.8","0.2937641054","0.1945085845","0.09176359954","0.4572679106","","","","","","","","","","","","","","72","H","0","img/none_selected.jpg","","57","main_expt",""
"","bandit","137","419519","0.0-99.0-0.0","75889744","wem/bandit_party_1","AAM0Q3DCSSQ0A","either","2","365","","","","","","","0","0","1","","0.2614759052","0.6","0.4","0.2","0.8","0.2949827607","0.2614759052","0.04991422033","0.4300169527","","","","","","","","","","","","","","74","J","1","","","58","main_expt",""
"","bandit","138","421079","0.0-100.0-0.0","75889744","wem/bandit_party_1","AAM0Q3DCSSQ0A","either","2","26","","","","","","","0","0","1","","0.053239915","0.6","0.4","0.2","0.8","0.2710075273","0.2426118991","0.053239915","0.4050829606","","","","","","","","","","","","","","75","K","2","","","59","main_expt",""
"","bandit","139","422736","0.0-101.0-0.0","75889744","wem/bandit_party_1","AAM0Q3DCSSQ0A","either","2","132","","","","","","","0","0","1","","0.06994226662","0.6","0.4","0.2","0.8","0.2766623035","0.2623750897","0.06994226662","0.4070720156","","","","","","","","","","","","","","75","K","2","","","60","main_expt",""
"","bandit","140","425908","0.0-102.0-0.0","75889744","wem/bandit_party_1","AAM0Q3DCSSQ0A","either","2","1643","","","","","","","0","1","0","","0.07064832373","0.6","0.4","0.2","0.8","0.2574592035","0.2139103784","0.07064832373","0.3895400789","","","","","","","","","","","","","","75","K","2","","","61","main_expt",""
"","bandit","141","427869","0.0-103.0-0.0","75889744","wem/bandit_party_1","AAM0Q3DCSSQ0A","either","2","425","","","","","","","0","0","1","0.4050708951","","0.6","0.4","0.2","0.8","","","","","0.2425209234","0.2566580444","0.08925217872","0.4050708951","","","","","","","","","","76","L","3","","","62","main_expt",""
"","bandit","142","429695","0.0-104.0-0.0","75889744","wem/bandit_party_1","AAM0Q3DCSSQ0A","either","2","298","","","","","","","0","0","1","","0.08505035955","0.6","0.4","0.2","0.8","0.2294211584","0.2393402704","0.08505035955","0.3765761212","","","","","","","","","","","","","","75","K","2","","","63","main_expt",""
"","bandit","143","432148","0.0-105.0-0.0","75889744","wem/bandit_party_1","AAM0Q3DCSSQ0A","either","2","924","","","","","","","0","0","1","0.300105392","","0.6","0.4","0.2","0.8","","","","","0.2350173232","0.300105392","0.09892528285","0.3859881554","","","","","","","","","","74","J","1","","","64","main_expt",""
"","bandit","144","433880","0.0-106.0-0.0","75889744","wem/bandit_party_1","AAM0Q3DCSSQ0A","either","2","206","","","","","","","0","0","1","0.2775473173","","0.6","0.4","0.2","0.8","","","","","0.2775473173","0.2584268813","0.1428545766","0.3817039273","","","","","","","","","","72","H","0","img/none_selected.jpg","","65","main_expt",""
"","bandit","145","435906","0.0-107.0-0.0","75889744","wem/bandit_party_1","AAM0Q3DCSSQ0A","either","2","495","","","","","","","0","0","1","0.3622232449","","0.6","0.4","0.2","0.8","","","","","0.298861572","0.2536378703","0.120440259","0.3622232449","","","","","","","","","","76","L","3","","","66","main_expt",""
"","bandit","146","437673","0.0-108.0-0.0","75889744","wem/bandit_party_1","AAM0Q3DCSSQ0A","either","2","234","","","","","","","0","0","1","0.3768721334","","0.6","0.4","0.2","0.8","","","","","0.3043747659","0.2548884231","0.2019700983","0.3768721334","","","","","","","","","","76","L","3","","","67","main_expt",""
"","bandit","147","439624","0.0-109.0-0.0","75889744","wem/bandit_party_1","AAM0Q3DCSSQ0A","either","2","427","","","","","","","0","0","1","0.1467862533","","0.6","0.4","0.2","0.8","","","","","0.2533072519","0.2105458193","0.1467862533","0.3826604183","","","","","","","","","","75","K","2","","","68","main_expt",""
"","bandit","148","441709","0.0-110.0-0.0","75889744","wem/bandit_party_1","AAM0Q3DCSSQ0A","either","2","550","","","","","","","0","0","1","","0.2901666962","0.6","0.4","0.2","0.8","0.2451677402","0.2901666962","0.09022805221","0.3981811202","","","","","","","","","","","","","","74","J","1","","","69","main_expt",""
"","bandit","149","443274","0.0-111.0-0.0","75889744","wem/bandit_party_1","AAM0Q3DCSSQ0A","either","2","14","","","","","","","0","0","1","0.3936557204","","0.6","0.4","0.2","0.8","","","","","0.2403061491","0.2973761433","0.1128827508","0.3936557204","","","","","","","","","","76","L","3","","","70","main_expt",""
"","bandit","150","444930","0.0-112.0-0.0","75889744","wem/bandit_party_1","AAM0Q3DCSSQ0A","either","2","132","","","","","","","0","0","1","0.3949471057","","0.6","0.4","0.2","0.8","","","","","0.1917576795","0.2737706179","0.1184182172","0.3949471057","","","","","","","","","","76","L","3","","","71","main_expt",""
"","bandit","151","446957","0.0-113.0-0.0","75889744","wem/bandit_party_1","AAM0Q3DCSSQ0A","either","2","490","","","","","","","1","0","0","0.3005227265","","0.6","0.4","0.2","0.8","","","","","0.1894079546","0.3005227265","0.1038133506","0.3888869603","","","","","","","","","","74","J","1","","","72","main_expt",""
"","bandit","152","448574","0.0-114.0-0.0","75889744","wem/bandit_party_1","AAM0Q3DCSSQ0A","either","2","76","","","","","","","0","0","1","0.07830871569","","0.6","0.4","0.2","0.8","","","","","0.235909594","0.3205676235","0.07830871569","0.4015056825","","","","","","","","","","75","K","2","","","73","main_expt",""
"","bandit","153","450683","0.0-115.0-0.0","75889744","wem/bandit_party_1","AAM0Q3DCSSQ0A","either","2","583","","","","","","","0","0","1","0.4200542591","","0.6","0.4","0.2","0.8","","","","","0.2772030277","0.3040473008","0.09226686474","0.4200542591","","","","","","","","","","76","L","3","","","74","main_expt",""
"","bandit","154","452375","0.0-116.0-0.0","75889744","wem/bandit_party_1","AAM0Q3DCSSQ0A","either","2","167","","","","","","","0","0","1","","0.4353174817","0.6","0.4","0.2","0.8","0.2237268092","0.2686744794","0.07948082514","0.4353174817","","","","","","","","","","","","","","76","L","3","","","75","main_expt",""
"","bandit","155","454108","0.0-117.0-0.0","75889744","wem/bandit_party_1","AAM0Q3DCSSQ0A","either","2","203","","","","","","","0","0","1","","0.1279570505","0.6","0.4","0.2","0.8","0.1739375455","0.258707356","0.1279570505","0.4196821318","","","","","","","","","","","","","","75","K","2","","","76","main_expt",""
"","bandit","156","455720","0.0-118.0-0.0","75889744","wem/bandit_party_1","AAM0Q3DCSSQ0A","either","2","82","","","","","","","0","0","1","","0.1202820049","0.6","0.4","0.2","0.8","0.1648796623","0.3010070056","0.1202820049","0.3787369199","","","","","","","","","","","","","","75","K","2","","","77","main_expt",""
"","bandit","157","457604","0.0-119.0-0.0","75889744","wem/bandit_party_1","AAM0Q3DCSSQ0A","either","2","351","","","","","","","0","0","1","","0.2648586626","0.6","0.4","0.2","0.8","0.1637798684","0.2648586626","0.1054071572","0.4314930014","","","","","","","","","","","","","","74","J","1","","","78","main_expt",""
"","bandit","158","459656","0.0-120.0-0.0","75889744","wem/bandit_party_1","AAM0Q3DCSSQ0A","either","2","518","","","","","","","1","0","0","0.1984114041","","0.6","0.4","0.2","0.8","","","","","0.1490076182","0.1984114041","0.1403095361","0.4155078174","","","","","","","","","","74","J","1","","","79","main_expt",""
"","bandit","159","461347","0.0-121.0-0.0","75889744","wem/bandit_party_1","AAM0Q3DCSSQ0A","either","2","162","","","","","","","0","0","1","","0.1093198388","0.6","0.4","0.2","0.8","0.1093198388","0.180325551","0.1891235553","0.4226243671","","","","","","","","","","","","","","72","H","0","img/none_selected.jpg","","80","main_expt",""
"","bandit","160","463262","0.0-122.0-0.0","75889744","wem/bandit_party_1","AAM0Q3DCSSQ0A","either","2","389","","","","","","","0","0","1","0.224531153","","0.6","0.4","0.2","0.8","","","","","0.08868186825","0.224531153","0.1858030354","0.4474166549","","","","","","","","","","74","J","1","","","81","main_expt",""
"","bandit","161","465340","0.0-123.0-0.0","75889744","wem/bandit_party_1","AAM0Q3DCSSQ0A","either","2","536","","","","","","","0","0","1","0.221125015","","0.6","0.4","0.2","0.8","","","","","0.1073880826","0.221125015","0.2476542501","0.4636297045","","","","","","","","","","74","J","1","","","82","main_expt",""
"","bandit","162","466908","0.0-124.0-0.0","75889744","wem/bandit_party_1","AAM0Q3DCSSQ0A","either","2","35","","","","","","","0","0","1","","0.1022587498","0.6","0.4","0.2","0.8","0.1022587498","0.2143237207","0.2188241074","0.467509749","","","","","","","","","","","","","","72","H","0","img/none_selected.jpg","","83","main_expt",""
"","bandit","163","469079","0.0-125.0-0.0","75889744","wem/bandit_party_1","AAM0Q3DCSSQ0A","either","2","640","","","","","","","0","1","0","","0.2754771977","0.6","0.4","0.2","0.8","0.1085807699","0.2097367537","0.2754771977","0.4551111531","","","","","","","","","","","","","","75","K","2","","","84","main_expt",""
"","bandit","164","470920","0.0-126.0-0.0","75889744","wem/bandit_party_1","AAM0Q3DCSSQ0A","either","2","320","","","","","","","0","1","0","","0.2965575968","0.6","0.4","0.2","0.8","0.1263918358","0.1661536269","0.2965575968","0.4621419017","","","","","","","","","","","","","","75","K","2","","","85","main_expt",""
"","bandit","165","472874","0.0-127.0-0.0","75889744","wem/bandit_party_1","AAM0Q3DCSSQ0A","either","2","419","","","","","","","0","1","0","","0.257129161","0.6","0.4","0.2","0.8","0.1481941301","0.1364458955","0.257129161","0.4612050897","","","","","","","","","","","","","","75","K","2","","","86","main_expt",""
"","bandit","166","474790","0.0-128.0-0.0","75889744","wem/bandit_party_1","AAM0Q3DCSSQ0A","either","2","389","","","","","","","0","0","1","0.2338967043","","0.6","0.4","0.2","0.8","","","","","0.1447872846","0.08235553135","0.2338967043","0.4334675206","","","","","","","","","","75","K","2","","","87","main_expt",""
"","bandit","167","476514","0.0-129.0-0.0","75889744","wem/bandit_party_1","AAM0Q3DCSSQ0A","either","2","191","","","","","","","0","0","1","","0.1391637727","0.6","0.4","0.2","0.8","0.1391637727","0.0754832669","0.2161535794","0.4397617206","","","","","","","","","","","","","","72","H","0","img/none_selected.jpg","","88","main_expt",""
"","bandit","168","478412","0.0-130.0-0.0","75889744","wem/bandit_party_1","AAM0Q3DCSSQ0A","either","2","367","","","","","","","0","1","0","","0.109361408","0.6","0.4","0.2","0.8","0.1476089376","0.109361408","0.2043146745","0.4635478967","","","","","","","","","","","","","","74","J","1","","","89","main_expt",""
"","bandit","169","480124","0.0-131.0-0.0","75889744","wem/bandit_party_1","AAM0Q3DCSSQ0A","either","2","160","","","","","","","0","0","1","0.07391079866","","0.6","0.4","0.2","0.8","","","","","0.2081489191","0.07391079866","0.2346009907","0.4234969579","","","","","","","","","","74","J","1","","","90","main_expt",""
"","bandit","170","482715","0.0-132.0-0.0","75889744","wem/bandit_party_1","AAM0Q3DCSSQ0A","either","2","1061","","","","","","","0","0","1","0.4267507071","","0.6","0.4","0.2","0.8","","","","","0.1834039029","0.1164594673","0.2333967219","0.4267507071","","","","","","","","","","76","L","3","","","91","main_expt",""
"","bandit","171","484574","0.0-133.0-0.0","75889744","wem/bandit_party_1","AAM0Q3DCSSQ0A","either","2","333","","","","","","","1","0","0","0.4089505196","","0.6","0.4","0.2","0.8","","","","","0.2027314649","0.113043345","0.2150480475","0.4089505196","","","","","","","","","","76","L","3","","","92","main_expt",""
"","bandit","172","486256","0.0-134.0-0.0","75889744","wem/bandit_party_1","AAM0Q3DCSSQ0A","either","2","144","","","","","","","0","0","1","0.4112501448","","0.6","0.4","0.2","0.8","","","","","0.1738894496","0.1714352716","0.2588080464","0.4112501448","","","","","","","","","","76","L","3","","","93","main_expt",""
"","bandit","173","487966","0.0-135.0-0.0","75889744","wem/bandit_party_1","AAM0Q3DCSSQ0A","either","2","180","","","","","","","1","0","0","0.452415855","","0.6","0.4","0.2","0.8","","","","","0.2484708832","0.1253024032","0.2748849181","0.452415855","","","","","","","","","","76","L","3","","","94","main_expt",""
"","bandit","174","490103","0.0-136.0-0.0","75889744","wem/bandit_party_1","AAM0Q3DCSSQ0A","either","2","608","","","","","","","0","0","1","0.4589197587","","0.6","0.4","0.2","0.8","","","","","0.2914685715","0.1401284447","0.2791739054","0.4589197587","","","","","","","","","","76","L","3","","","95","main_expt",""
"","bandit","175","492415","0.0-137.0-0.0","75889744","wem/bandit_party_1","AAM0Q3DCSSQ0A","either","2","779","","","","","","","1","0","0","0.2417524935","","0.6","0.4","0.2","0.8","","","","","0.2417524935","0.1320491369","0.3149564315","0.4481870348","","","","","","","","","","72","H","0","img/none_selected.jpg","","96","main_expt",""
"","bandit","176","494362","0.0-138.0-0.0","75889744","wem/bandit_party_1","AAM0Q3DCSSQ0A","either","2","421","","","","","","","0","0","1","","0.2492821404","0.6","0.4","0.2","0.8","0.2492821404","0.1518453759","0.372564007","0.4597072186","","","","","","","","","","","","","","72","H","0","img/none_selected.jpg","","97","main_expt",""
"","bandit","177","496359","0.0-139.0-0.0","75889744","wem/bandit_party_1","AAM0Q3DCSSQ0A","either","2","465","","","","","","","1","0","0","0.3002958449","","0.6","0.4","0.2","0.8","","","","","0.3002958449","0.2173959583","0.393328365","0.4705619112","","","","","","","","","","72","H","0","img/none_selected.jpg","","98","main_expt",""
"","bandit","178","498554","0.0-140.0-0.0","75889744","wem/bandit_party_1","AAM0Q3DCSSQ0A","either","2","662","","","","","","","0","0","1","0.2618725657","","0.6","0.4","0.2","0.8","","","","","0.3544832656","0.2618725657","0.421239771","0.4800968761","","","","","","","","","","74","J","1","","","99","main_expt",""
"","bandit","179","500401","0.0-141.0-0.0","75889744","wem/bandit_party_1","AAM0Q3DCSSQ0A","either","2","311","","","","","","","1","0","0","0.3810954338","","0.6","0.4","0.2","0.8","","","","","0.3810954338","0.2487788848","0.4130759476","0.4780143146","","","","","","","","","","72","H","0","img/none_selected.jpg","","100","main_expt",""
"","bandit","180","502770","0.0-142.0-0.0","75889744","wem/bandit_party_1","AAM0Q3DCSSQ0A","either","2","838","","","","","","","0","0","1","","0.4042362267","0.6","0.4","0.2","0.8","0.4042362267","0.2890792313","0.4089462913","0.4849002763","","","","","","","","","","","","","","72","H","0","img/none_selected.jpg","","101","main_expt",""
"","bandit","181","504529","0.0-143.0-0.0","75889744","wem/bandit_party_1","AAM0Q3DCSSQ0A","either","2","223","","","","","","","1","0","0","0.3136369757","","0.6","0.4","0.2","0.8","","","","","0.4594696392","0.3136369757","0.370330464","0.4886078379","","","","","","","","","","74","J","1","","","102","main_expt",""
"","bandit","182","506066","0.0-144.0-0.0","75889744","wem/bandit_party_1","AAM0Q3DCSSQ0A","either","2","2","","","","","","","0","1","0","","0.3306315663","0.6","0.4","0.2","0.8","0.4588766667","0.2364671533","0.3306315663","0.47121906","","","","","","","","","","","","","","75","K","2","","","103","main_expt",""
"","bandit","183","507631","0.0-145.0-0.0","75889744","wem/bandit_party_1","AAM0Q3DCSSQ0A","either","2","40","","","","","","","0","0","1","","0.354634178","0.6","0.4","0.2","0.8","0.4372785745","0.2202486688","0.354634178","0.4760763377","","","","","","","","","","","","","","75","K","2","","","104","main_expt",""
"","bandit","184","509559","0.0-146.0-0.0","75889744","wem/bandit_party_1","AAM0Q3DCSSQ0A","either","2","399","","","","","","","0","0","1","","0.3896605338","0.6","0.4","0.2","0.8","0.4063887309","0.1854418088","0.3896605338","0.4701389446","","","","","","","","","","","","","","75","K","2","","","105","main_expt",""
"","bandit","185","511323","0.0-147.0-0.0","75889744","wem/bandit_party_1","AAM0Q3DCSSQ0A","either","2","217","","","","","","","0","0","1","0.3778019321","","0.6","0.4","0.2","0.8","","","","","0.3778019321","0.1596754559","0.414339711","0.471324938","","","","","","","","","","72","H","0","img/none_selected.jpg","","106","main_expt",""
"","bandit","186","513415","0.0-148.0-0.0","75889744","wem/bandit_party_1","AAM0Q3DCSSQ0A","either","2","564","","","","","","","0","1","0","","0.4164239898","0.6","0.4","0.2","0.8","0.3614143111","0.137099288","0.4164239898","0.4786694594","","","","","","","","","","","","","","75","K","2","","","107","main_expt",""
"","bandit","187","515936","0.0-149.0-0.0","75889744","wem/bandit_party_1","AAM0Q3DCSSQ0A","either","2","990","","","","","","","0","0","1","","0.3836571442","0.6","0.4","0.2","0.8","0.3681250399","0.1443984823","0.3836571442","0.4810065258","","","","","","","","","","","","","","75","K","2","","","108","main_expt",""
"","bandit","188","518749","0.0-150.0-0.0","75889744","wem/bandit_party_1","AAM0Q3DCSSQ0A","either","2","1278","","","","","","","0","0","1","0.1409511773","","0.6","0.4","0.2","0.8","","","","","0.3446081275","0.1409511773","0.3881214568","0.4816764674","","","","","","","","","","74","J","1","","","109","main_expt",""
"","bandit","189","524476","0.0-151.0-0.0","75889744","wem/bandit_party_1","AAM0Q3DCSSQ0A","either","2","4191","","","","","","","0","1","0","","0.4882082215","0.6","0.4","0.2","0.8","0.3681270965","0.1787750665","0.4266873791","0.4882082215","","","","","","","","","","","","","","76","L","3","","","110","main_expt",""
"","bandit","190","526660","0.0-152.0-0.0","75889744","wem/bandit_party_1","AAM0Q3DCSSQ0A","either","2","654","","","","","","","0","1","0","","0.478642168","0.6","0.4","0.2","0.8","0.391379093","0.1862786225","0.4475699482","0.478642168","","","","","","","","","","","","","","76","L","3","","","111","main_expt",""
"","bandit","191","528963","0.0-153.0-0.0","75889744","wem/bandit_party_1","AAM0Q3DCSSQ0A","either","2","783","","","","","","","1","0","0","0.4841415165","","0.6","0.4","0.2","0.8","","","","","0.4131544452","0.1654620982","0.4190314983","0.4841415165","","","","","","","","","","76","L","3","","","112","main_expt",""
"","bandit","192","530844","0.0-154.0-0.0","75889744","wem/bandit_party_1","AAM0Q3DCSSQ0A","either","2","350","","","","","","","1","0","0","0.4883212127","","0.6","0.4","0.2","0.8","","","","","0.3963985948","0.1582981878","0.3666128881","0.4883212127","","","","","","","","","","76","L","3","","","113","main_expt",""
"","bandit","193","532760","0.0-155.0-0.0","75889744","wem/bandit_party_1","AAM0Q3DCSSQ0A","either","2","383","","","","","","","1","0","0","0.4883790739","","0.6","0.4","0.2","0.8","","","","","0.4117985871","0.1922757069","0.3866259854","0.4883790739","","","","","","","","","","76","L","3","","","114","main_expt",""
"","bandit","194","534810","0.0-156.0-0.0","75889744","wem/bandit_party_1","AAM0Q3DCSSQ0A","either","2","518","","","","","","","1","0","0","0.4902011966","","0.6","0.4","0.2","0.8","","","","","0.394381103","0.185618385","0.354161152","0.4902011966","","","","","","","","","","76","L","3","","","115","main_expt",""
"","bandit","195","536916","0.0-157.0-0.0","75889744","wem/bandit_party_1","AAM0Q3DCSSQ0A","either","2","573","","","","","","","0","0","1","0.4844723045","","0.6","0.4","0.2","0.8","","","","","0.3762408663","0.2057277395","0.3170745426","0.4844723045","","","","","","","","","","76","L","3","","","116","main_expt",""
"","bandit","196","539034","0.0-158.0-0.0","75889744","wem/bandit_party_1","AAM0Q3DCSSQ0A","either","2","585","","","","","","","1","0","0","0.4895589844","","0.6","0.4","0.2","0.8","","","","","0.3823674378","0.2288411079","0.304536318","0.4895589844","","","","","","","","","","76","L","3","","","117","main_expt",""
"","bandit","197","541112","0.0-159.0-0.0","75889744","wem/bandit_party_1","AAM0Q3DCSSQ0A","either","2","547","","","","","","","0","0","1","0.4899729034","","0.6","0.4","0.2","0.8","","","","","0.4050195855","0.2207517482","0.3411026949","0.4899729034","","","","","","","","","","76","L","3","","","118","main_expt",""
"","bandit","198","543114","0.0-160.0-0.0","75889744","wem/bandit_party_1","AAM0Q3DCSSQ0A","either","2","474","","","","","","","0","1","0","","0.4947041593","0.6","0.4","0.2","0.8","0.4227562767","0.1955286499","0.3447942488","0.4947041593","","","","","","","","","","","","","","76","L","3","","","119","main_expt",""
"","bandit","199","545087","0.0-161.0-0.0","75889744","wem/bandit_party_1","AAM0Q3DCSSQ0A","either","2","439","","","","","","","0","0","1","","0.4916865355","0.6","0.4","0.2","0.8","0.4163810796","0.2427950695","0.3686185352","0.4916865355","","","","","","","","","","","","","","76","L","3","","","120","main_expt",""
"","bandit","200","547015","0.0-162.0-0.0","75889744","wem/bandit_party_1","AAM0Q3DCSSQ0A","either","2","362","","","","","","","0","1","0","","0.3547669752","0.6","0.4","0.2","0.8","0.406821829","0.2479682904","0.3547669752","0.4860386064","","","","","","","","","","","","","","75","K","2","","","121","main_expt",""
"","bandit","201","549002","0.0-163.0-0.0","75889744","wem/bandit_party_1","AAM0Q3DCSSQ0A","either","2","466","","","","","","","0","1","0","","0.365994073","0.6","0.4","0.2","0.8","0.3999449125","0.3081985406","0.365994073","0.483083859","","","","","","","","","","","","","","75","K","2","","","122","main_expt",""
"","bandit","202","551379","0.0-164.0-0.0","75889744","wem/bandit_party_1","AAM0Q3DCSSQ0A","either","2","835","","","","","","","0","0","1","","0.3120596142","0.6","0.4","0.2","0.8","0.366626489","0.3089359708","0.3120596142","0.4791491275","","","","","","","","","","","","","","75","K","2","","","123","main_expt",""
"","bandit","203","553549","0.0-165.0-0.0","75889744","wem/bandit_party_1","AAM0Q3DCSSQ0A","either","2","638","","","","","","","0","1","0","","0.302161917","0.6","0.4","0.2","0.8","0.3706278578","0.3298338218","0.302161917","0.4776777384","","","","","","","","","","","","","","75","K","2","","","124","main_expt",""
"","bandit","204","555795","0.0-166.0-0.0","75889744","wem/bandit_party_1","AAM0Q3DCSSQ0A","either","2","715","","","","","","","0","0","1","","0.2794370347","0.6","0.4","0.2","0.8","0.3545504723","0.2795250441","0.2794370347","0.478983255","","","","","","","","","","","","","","75","K","2","","","125","main_expt",""
"","bandit","205","558139","0.0-167.0-0.0","75889744","wem/bandit_party_1","AAM0Q3DCSSQ0A","either","2","814","","","","","","","0","0","1","","0.2466154908","0.6","0.4","0.2","0.8","0.3106298006","0.2184127205","0.2466154908","0.4724726719","","","","","","","","","","","","","","75","K","2","","","126","main_expt",""
"","bandit","206","560266","0.0-168.0-0.0","75889744","wem/bandit_party_1","AAM0Q3DCSSQ0A","either","2","595","","","","","","","1","0","0","0.4796244369","","0.6","0.4","0.2","0.8","","","","","0.3351405197","0.2488858907","0.2712823261","0.4796244369","","","","","","","","","","76","L","3","","","127","main_expt",""
"","bandit","207","562756","0.0-169.0-0.0","75889744","wem/bandit_party_1","AAM0Q3DCSSQ0A","either","2","964","","","","","","","1","0","0","0.4825212971","","0.6","0.4","0.2","0.8","","","","","0.2984422464","0.2850827173","0.2095517986","0.4825212971","","","","","","","","","","76","L","3","","","128","main_expt",""
"","bandit","208","565511","0.0-170.0-0.0","75889744","wem/bandit_party_1","AAM0Q3DCSSQ0A","either","2","1219","","","","","","","1","0","0","0.4877535013","","0.6","0.4","0.2","0.8","","","","","0.2027892291","0.2867242009","0.1986866195","0.4877535013","","","","","","","","","","76","L","3","","","129","main_expt",""
"","bandit","209","568190","0.0-171.0-0.0","75889744","wem/bandit_party_1","AAM0Q3DCSSQ0A","either","2","1146","","","","","","","0","0","1","0.4833646461","","0.6","0.4","0.2","0.8","","","","","0.13768179","0.2509552002","0.172959111","0.4833646461","","","","","","","","","","76","L","3","","","130","main_expt",""
"","bandit","210","569981","0.0-172.0-0.0","75889744","wem/bandit_party_1","AAM0Q3DCSSQ0A","either","2","254","","","","","","","0","0","1","0.4790990265","","0.6","0.4","0.2","0.8","","","","","0.1352832961","0.2172434631","0.163172462","0.4790990265","","","","","","","","","","76","L","3","","","131","main_expt",""
"","bandit","211","573232","0.0-173.0-0.0","75889744","wem/bandit_party_1","AAM0Q3DCSSQ0A","either","2","1717","","","","","","","0","0","1","","0.161148659","0.6","0.4","0.2","0.8","0.08660982753","0.158295755","0.161148659","0.4882311922","","","","","","","","","","","","","","75","K","2","","","132","main_expt",""
"","bandit","212","575071","0.0-174.0-0.0","75889744","wem/bandit_party_1","AAM0Q3DCSSQ0A","either","2","308","","","","","","","0","0","1","","0.185310911","0.6","0.4","0.2","0.8","0.1020907376","0.185310911","0.1735641072","0.4889625365","","","","","","","","","","","","","","74","J","1","","","133","main_expt",""
"","bandit","213","578267","0.0-175.0-0.0","75889744","wem/bandit_party_1","AAM0Q3DCSSQ0A","either","2","1662","","","","","","","0","0","1","0.1966535246","","0.6","0.4","0.2","0.8","","","","","0.1231499397","0.1966535246","0.1597390633","0.4916783795","","","","","","","","","","74","J","1","","","134","main_expt",""
"","bandit","214","580414","0.0-176.0-0.0","75889744","wem/bandit_party_1","AAM0Q3DCSSQ0A","either","2","612","","","","","","","0","0","1","","0.2290191974","0.6","0.4","0.2","0.8","0.1524236556","0.2290191974","0.1460070414","0.4904315354","","","","","","","","","","","","","","74","J","1","","","135","main_expt",""
"","bandit","215","582484","0.0-177.0-0.0","75889744","wem/bandit_party_1","AAM0Q3DCSSQ0A","either","2","533","","","","","","","0","0","1","0.1954247664","","0.6","0.4","0.2","0.8","","","","","0.1954247664","0.2929229053","0.105474526","0.491666595","","","","","","","","","","72","H","0","img/none_selected.jpg","","136","main_expt",""
"","bandit","216","584612","0.0-178.0-0.0","75889744","wem/bandit_party_1","AAM0Q3DCSSQ0A","either","2","595","","","","","","","0","0","1","","0.1833989084","0.6","0.4","0.2","0.8","0.1833989084","0.2780805385","0.08835118593","0.4917142499","","","","","","","","","","","","","","72","H","0","img/none_selected.jpg","","137","main_expt",""
"","bandit","217","587160","0.0-179.0-0.0","75889744","wem/bandit_party_1","AAM0Q3DCSSQ0A","either","2","1020","","","","","","","0","0","1","0.1490533902","","0.6","0.4","0.2","0.8","","","","","0.1490533902","0.217224157","0.06418360449","0.4870170403","","","","","","","","","","72","H","0","img/none_selected.jpg","","138","main_expt",""
"","bandit","218","588710","0.0-180.0-0.0","75889744","wem/bandit_party_1","AAM0Q3DCSSQ0A","either","2","2","","","","","","","0","0","1","","0.2323391466","0.6","0.4","0.2","0.8","0.1318817547","0.2323391466","0.03554325754","0.4834992155","","","","","","","","","","","","","","74","J","1","","","139","main_expt",""
"","bandit","219","592297","0.0-181.0-0.0","75889744","wem/bandit_party_1","AAM0Q3DCSSQ0A","either","2","2043","","","","","","","0","0","1","","0.244475209","0.6","0.4","0.2","0.8","0.1877412345","0.244475209","0.04477370895","0.4927392517","","","","","","","","","","","","","","74","J","1","","","140","main_expt",""
"","bandit","220","594883","0.0-182.0-0.0","75889744","wem/bandit_party_1","AAM0Q3DCSSQ0A","either","2","1039","","","","","","","0","0","1","0.232604034","","0.6","0.4","0.2","0.8","","","","","0.2363671377","0.232604034","0.03780119019","0.4872377518","","","","","","","","","","74","J","1","","","141","main_expt",""
"","bandit","221","596579","0.0-183.0-0.0","75889744","wem/bandit_party_1","AAM0Q3DCSSQ0A","either","2","164","","","","","","","0","0","1","","0.03149913875","0.6","0.4","0.2","0.8","0.2546402356","0.2447345556","0.03149913875","0.4846254936","","","","","","","","","","","","","","75","K","2","","","142","main_expt",""
"","bandit","222","598198","0.0-184.0-0.0","75889744","wem/bandit_party_1","AAM0Q3DCSSQ0A","either","2","85","","","","","","","0","0","1","","0.04191513266","0.6","0.4","0.2","0.8","0.2825544685","0.26413271","0.04191513266","0.4815328815","","","","","","","","","","","","","","75","K","2","","","143","main_expt",""
"","bandit","223","600308","0.0-185.0-0.0","75889744","wem/bandit_party_1","AAM0Q3DCSSQ0A","either","2","573","","","","","","","0","0","1","0.05613120157","","0.6","0.4","0.2","0.8","","","","","0.2731230023","0.1988203511","0.05613120157","0.4854048375","","","","","","","","","","75","K","2","","","144","main_expt",""
"","bandit","224","601844","0.0-186.0-0.0","75889744","wem/bandit_party_1","AAM0Q3DCSSQ0A","either","2","3","","","","","","","0","1","0","","0.4813029389","0.6","0.4","0.2","0.8","0.2943814715","0.217822638","0.03827589539","0.4813029389","","","","","","","","","","","","","","76","L","3","","","145","main_expt",""
"","bandit","225","603971","0.0-187.0-0.0","75889744","wem/bandit_party_1","AAM0Q3DCSSQ0A","either","2","584","","","","","","","0","0","1","0.4884824202","","0.6","0.4","0.2","0.8","","","","","0.328634005","0.2009042904","0.02861175853","0.4884824202","","","","","","","","","","76","L","3","","","146","main_expt",""
"","bandit","226","605707","0.0-188.0-0.0","75889744","wem/bandit_party_1","AAM0Q3DCSSQ0A","either","2","205","","","","","","","0","0","1","0.4835291327","","0.6","0.4","0.2","0.8","","","","","0.3511209141","0.2080446297","0.02140640811","0.4835291327","","","","","","","","","","76","L","3","","","147","main_expt",""
"","bandit","227","607782","0.0-189.0-0.0","75889744","wem/bandit_party_1","AAM0Q3DCSSQ0A","either","2","540","","","","","","","1","0","0","0.4716003481","","0.6","0.4","0.2","0.8","","","","","0.3874996206","0.1536700415","0.0202041473","0.4716003481","","","","","","","","","","76","L","3","","","148","main_expt",""
"","bandit","228","609321","0.0-190.0-0.0","75889744","wem/bandit_party_1","AAM0Q3DCSSQ0A","either","2","9","","","","","","","1","0","0","0.4341886607","","0.6","0.4","0.2","0.8","","","","","0.3476646045","0.1593661633","0.01154190459","0.4341886607","","","","","","","","","","76","L","3","","","149","main_expt",""
"","bandit","229","612075","0.0-191.0-0.0","75889744","wem/bandit_party_1","AAM0Q3DCSSQ0A","either","2","1222","","","","","","","0","0","1","0.01291237021","","0.6","0.4","0.2","0.8","","","","","0.3323010919","0.144955896","0.01291237021","0.4014438172","","","","","","","","","","75","K","2","","","150","main_expt",""
"","bandit","230","615025","0.0-192.0-0.0","75889744","wem/bandit_party_1","AAM0Q3DCSSQ0A","either","2","1420","","","","","","","0","0","1","0.3980713407","","0.6","0.4","0.2","0.8","","","","","0.3954477196","0.2123564028","0.0137789916","0.3980713407","","","","","","","","","","76","L","3","","","151","main_expt",""
"","bandit","231","618079","0.0-193.0-0.0","75889744","wem/bandit_party_1","AAM0Q3DCSSQ0A","either","2","1523","","","","","","","0","1","0","","0.2301890466","0.6","0.4","0.2","0.8","0.4186327087","0.2301890466","0.01985271471","0.4002357887","","","","","","","","","","","","","","74","J","1","","","152","main_expt",""
"","bandit","232","620330","0.0-194.0-0.0","75889744","wem/bandit_party_1","AAM0Q3DCSSQ0A","either","2","719","","","","","","","0","0","1","","0.2295153641","0.6","0.4","0.2","0.8","0.4029566754","0.2295153641","0.02951100453","0.388677987","","","","","","","","","","","","","","74","J","1","","","153","main_expt",""
"","bandit","233","622397","0.0-195.0-0.0","75889744","wem/bandit_party_1","AAM0Q3DCSSQ0A","either","2","534","","","","","","","0","0","1","","0.2163321136","0.6","0.4","0.2","0.8","0.4037751878","0.2163321136","0.02325572033","0.3817747688","","","","","","","","","","","","","","74","J","1","","","154","main_expt",""
"","bandit","234","625036","0.0-196.0-0.0","75889744","wem/bandit_party_1","AAM0Q3DCSSQ0A","either","2","1100","","","","","","","0","0","1","","0.2257858177","0.6","0.4","0.2","0.8","0.4078727314","0.2257858177","0.03925092562","0.327727533","","","","","","","","","","","","","","74","J","1","","","155","main_expt",""
"","bandit","235","628958","0.0-197.0-0.0","75889744","wem/bandit_party_1","AAM0Q3DCSSQ0A","either","2","2390","","","","","","","0","0","1","0.2821504166","","0.6","0.4","0.2","0.8","","","","","0.3941681487","0.2077891775","0.05532081832","0.2821504166","","","","","","","","","","76","L","3","","","156","main_expt",""
"","bandit","236","631473","0.0-198.0-0.0","75889744","wem/bandit_party_1","AAM0Q3DCSSQ0A","either","2","981","","","","","","","0","0","1","0.3417147062","","0.6","0.4","0.2","0.8","","","","","0.3417147062","0.1742908387","0.05983660039","0.2784527126","","","","","","","","","","72","H","0","img/none_selected.jpg","","157","main_expt",""
"","bandit","237","633921","0.0-199.0-0.0","75889744","wem/bandit_party_1","AAM0Q3DCSSQ0A","either","2","914","","","","","","","0","0","1","0.2963220618","","0.6","0.4","0.2","0.8","","","","","0.2963220618","0.162057643","0.09347744845","0.2857058734","","","","","","","","","","72","H","0","img/none_selected.jpg","","158","main_expt",""
"","bandit","238","636024","0.0-200.0-0.0","75889744","wem/bandit_party_1","AAM0Q3DCSSQ0A","either","2","569","","","","","","","0","0","1","","0.2961528309","0.6","0.4","0.2","0.8","0.2961528309","0.1805514511","0.09649648717","0.2349295223","","","","","","","","","","","","","","72","H","0","img/none_selected.jpg","","159","main_expt",""
"","bandit","239","639298","0.0-201.0-0.0","75889744","wem/bandit_party_1","AAM0Q3DCSSQ0A","either","2","1745","","","","","","","0","0","1","0.1724629995","","0.6","0.4","0.2","0.8","","","","","0.2842772575","0.1724629995","0.08382429791","0.2275717407","","","","","","","","","","74","J","1","","","160","main_expt",""
"","bandit","240","641449","0.0-202.0-0.0","75889744","wem/bandit_party_1","AAM0Q3DCSSQ0A","either","2","619","","","","","","","0","0","1","","0.1660992999","0.6","0.4","0.2","0.8","0.2747674873","0.1660992999","0.1466352983","0.2559884592","","","","","","","","","","","","","","74","J","1","","","161","main_expt",""
"","bandit","241","644896","0.0-203.0-0.0","75889744","wem/bandit_party_1","AAM0Q3DCSSQ0A","either","2","1916","","","","","","","0","0","1","","0.1569467617","0.6","0.4","0.2","0.8","0.2993190406","0.2281832109","0.1569467617","0.2670526618","","","","","","","","","","","","","","75","K","2","","","162","main_expt",""
"","bandit","242","646538","0.0-204.0-0.0","75889744","wem/bandit_party_1","AAM0Q3DCSSQ0A","either","2","109","","","","","","","0","0","1","","0.1437935099","0.6","0.4","0.2","0.8","0.3102408377","0.2144285545","0.1437935099","0.2618894379","","","","","","","","","","","","","","75","K","2","","","163","main_expt",""
"","bandit","243","648872","0.0-205.0-0.0","75889744","wem/bandit_party_1","AAM0Q3DCSSQ0A","either","2","789","","","","","","","0","0","1","","0.1503677763","0.6","0.4","0.2","0.8","0.2607878409","0.2131293933","0.1503677763","0.2977476978","","","","","","","","","","","","","","75","K","2","","","164","main_expt",""
"","bandit","244","651861","0.0-206.0-0.0","75889744","wem/bandit_party_1","AAM0Q3DCSSQ0A","either","2","1454","","","","","","","0","1","0","","0.3138636066","0.6","0.4","0.2","0.8","0.2470054868","0.251698227","0.1574825995","0.3138636066","","","","","","","","","","","","","","76","L","3","","","165","main_expt",""
"","bandit","245","653973","0.0-207.0-0.0","75889744","wem/bandit_party_1","AAM0Q3DCSSQ0A","either","2","575","","","","","","","1","0","0","0.3204338644","","0.6","0.4","0.2","0.8","","","","","0.2629624785","0.2831539445","0.1500633275","0.3204338644","","","","","","","","","","76","L","3","","","166","main_expt",""
"","bandit","246","656552","0.0-208.0-0.0","75889744","wem/bandit_party_1","AAM0Q3DCSSQ0A","either","2","1044","","","","","","","1","0","0","0.3600517585","","0.6","0.4","0.2","0.8","","","","","0.2745713682","0.2496169508","0.1137242654","0.3600517585","","","","","","","","","","76","L","3","","","167","main_expt",""
"","bandit","247","658595","0.0-209.0-0.0","75889744","wem/bandit_party_1","AAM0Q3DCSSQ0A","either","2","517","","","","","","","1","0","0","0.3678373827","","0.6","0.4","0.2","0.8","","","","","0.2557249153","0.2315540067","0.145192941","0.3678373827","","","","","","","","","","76","L","3","","","168","main_expt",""
"","bandit","248","660698","0.0-210.0-0.0","75889744","wem/bandit_party_1","AAM0Q3DCSSQ0A","either","2","570","","","","","","","0","0","1","0.3421512568","","0.6","0.4","0.2","0.8","","","","","0.2016321063","0.1825517174","0.1863479632","0.3421512568","","","","","","","","","","76","L","3","","","169","main_expt",""
"","bandit","249","662962","0.0-211.0-0.0","75889744","wem/bandit_party_1","AAM0Q3DCSSQ0A","either","2","730","","","","","","","0","0","1","0.3917895485","","0.6","0.4","0.2","0.8","","","","","0.2210696627","0.2535959064","0.142304713","0.3917895485","","","","","","","","","","76","L","3","","","170","main_expt",""
"","bandit","250","665230","0.0-212.0-0.0","75889744","wem/bandit_party_1","AAM0Q3DCSSQ0A","either","2","745","","","","","","","0","0","1","","0.1739768979","0.6","0.4","0.2","0.8","0.1627904758","0.3004284576","0.1739768979","0.3206692194","","","","","","","","","","","","","","75","K","2","","","171","main_expt",""
"","bandit","251","667304","0.0-213.0-0.0","75889744","wem/bandit_party_1","AAM0Q3DCSSQ0A","either","2","536","","","","","","","0","0","1","0.3198600846","","0.6","0.4","0.2","0.8","","","","","0.1421076649","0.2716191145","0.2172659048","0.3198600846","","","","","","","","","","76","L","3","","","172","main_expt",""
"","bandit","252","669298","0.0-214.0-0.0","75889744","wem/bandit_party_1","AAM0Q3DCSSQ0A","either","2","461","","","","","","","0","0","1","0.2641483633","","0.6","0.4","0.2","0.8","","","","","0.165050165","0.3253138029","0.2419731025","0.2641483633","","","","","","","","","","76","L","3","","","173","main_expt",""
"","bandit","253","671062","0.0-215.0-0.0","75889744","wem/bandit_party_1","AAM0Q3DCSSQ0A","either","2","220","","","","","","","0","0","1","","0.3419591401","0.6","0.4","0.2","0.8","0.1406738207","0.3419591401","0.2239571331","0.2248062597","","","","","","","","","","","","","","74","J","1","","","174","main_expt",""
"","bandit","254","672990","0.0-216.0-0.0","75889744","wem/bandit_party_1","AAM0Q3DCSSQ0A","either","2","383","","","","","","","0","0","1","","0.138310495","0.6","0.4","0.2","0.8","0.138310495","0.3442692367","0.2311410243","0.2370379408","","","","","","","","","","","","","","72","H","0","img/none_selected.jpg","","175","main_expt",""
"","bandit","255","674838","0.0-217.0-0.0","75889744","wem/bandit_party_1","AAM0Q3DCSSQ0A","either","2","322","","","","","","","0","0","1","0.1675243642","","0.6","0.4","0.2","0.8","","","","","0.1675243642","0.3397266539","0.2610077479","0.2157433706","","","","","","","","","","72","H","0","img/none_selected.jpg","","176","main_expt",""
"","bandit","256","676920","0.0-218.0-0.0","75889744","wem/bandit_party_1","AAM0Q3DCSSQ0A","either","2","549","","","","","","","0","0","1","0.1919885971","","0.6","0.4","0.2","0.8","","","","","0.1919885971","0.2997078274","0.2780938204","0.2014791824","","","","","","","","","","72","H","0","img/none_selected.jpg","","177","main_expt",""
"","bandit","257","678854","0.0-219.0-0.0","75889744","wem/bandit_party_1","AAM0Q3DCSSQ0A","either","2","398","","","","","","","0","0","1","0.3064007527","","0.6","0.4","0.2","0.8","","","","","0.2365392944","0.3064007527","0.3151752793","0.1913564418","","","","","","","","","","74","J","1","","","178","main_expt",""
"","bandit","258","680440","0.0-220.0-0.0","75889744","wem/bandit_party_1","AAM0Q3DCSSQ0A","either","2","61","","","","","","","0","0","1","","0.3533432679","0.6","0.4","0.2","0.8","0.2509455726","0.3533432679","0.2799621139","0.1980728016","","","","","","","","","","","","","","74","J","1","","","179","main_expt",""
"","bandit","259","682340","0.0-221.0-0.0","75889744","wem/bandit_party_1","AAM0Q3DCSSQ0A","either","2","369","","","","","","","0","1","0","","0.3652522579","0.6","0.4","0.2","0.8","0.2767223981","0.3652522579","0.3170936092","0.1833491223","","","","","","","","","","","","","","74","J","1","","","180","main_expt",""
"","bandit","260","684496","0.0-222.0-0.0","75889744","wem/bandit_party_1","AAM0Q3DCSSQ0A","either","2","628","","","","","","","0","0","1","0.3383156657","","0.6","0.4","0.2","0.8","","","","","0.314600373","0.3383156657","0.28101752","0.1342686697","","","","","","","","","","74","J","1","","","181","main_expt",""
"","bandit","261","686628","0.0-223.0-0.0","75889744","wem/bandit_party_1","AAM0Q3DCSSQ0A","either","2","594","","","","","","","0","0","1","0.2902116232","","0.6","0.4","0.2","0.8","","","","","0.3943610609","0.2902116232","0.3043342224","0.1636660304","","","","","","","","","","74","J","1","","","182","main_expt",""
"","bandit","262","688490","0.0-224.0-0.0","75889744","wem/bandit_party_1","AAM0Q3DCSSQ0A","either","2","329","","","","","","","0","1","0","","0.3192524042","0.6","0.4","0.2","0.8","0.3586422101","0.3026157476","0.3192524042","0.136761637","","","","","","","","","","","","","","75","K","2","","","183","main_expt",""
"","bandit","263","690773","0.0-225.0-0.0","75889744","wem/bandit_party_1","AAM0Q3DCSSQ0A","either","2","743","","","","","","","0","0","1","","0.3332516821","0.6","0.4","0.2","0.8","0.3879999062","0.3360229169","0.3332516821","0.1685989701","","","","","","","","","","","","","","75","K","2","","","184","main_expt",""
"","bandit","264","692684","0.0-226.0-0.0","75889744","wem/bandit_party_1","AAM0Q3DCSSQ0A","either","2","390","","","","","","","0","0","1","","0.3228184693","0.6","0.4","0.2","0.8","0.3831340227","0.3336456265","0.3228184693","0.1663529744","","","","","","","","","","","","","","75","K","2","","","185","main_expt",""
"","bandit","265","695508","0.0-227.0-0.0","75889744","wem/bandit_party_1","AAM0Q3DCSSQ0A","either","2","1287","","","","","","","1","0","0","0.3111703144","","0.6","0.4","0.2","0.8","","","","","0.3999004662","0.3308881938","0.3111703144","0.1916836285","","","","","","","","","","75","K","2","","","186","main_expt",""
"","bandit","266","697787","0.0-228.0-0.0","75889744","wem/bandit_party_1","AAM0Q3DCSSQ0A","either","2","745","","","","","","","0","1","0","","0.3353611299","0.6","0.4","0.2","0.8","0.3875363153","0.325530054","0.3353611299","0.1686829448","","","","","","","","","","","","","","75","K","2","","","187","main_expt",""
"","bandit","267","699967","0.0-229.0-0.0","75889744","wem/bandit_party_1","AAM0Q3DCSSQ0A","either","2","642","","","","","","","0","0","1","","0.3646937268","0.6","0.4","0.2","0.8","0.3875691392","0.3055482451","0.3646937268","0.1461675531","","","","","","","","","","","","","","75","K","2","","","188","main_expt",""
"","bandit","268","702029","0.0-230.0-0.0","75889744","wem/bandit_party_1","AAM0Q3DCSSQ0A","either","2","528","","","","","","","0","0","1","0.1382971047","","0.6","0.4","0.2","0.8","","","","","0.4166866882","0.3002345065","0.3891323825","0.1382971047","","","","","","","","","","76","L","3","","","189","main_expt",""
"","bandit","269","704065","0.0-231.0-0.0","75889744","wem/bandit_party_1","AAM0Q3DCSSQ0A","either","2","498","","","","","","","0","0","1","","0.2693931213","0.6","0.4","0.2","0.8","0.4124474499","0.2693931213","0.3860741766","0.1898135375","","","","","","","","","","","","","","74","J","1","","","190","main_expt",""
"","bandit","270","707424","0.0-232.0-0.0","75889744","wem/bandit_party_1","AAM0Q3DCSSQ0A","either","2","1820","","","","","","","0","0","1","","0.3864243721","0.6","0.4","0.2","0.8","0.3638199534","0.3009284261","0.3864243721","0.1264917812","","","","","","","","","","","","","","75","K","2","","","191","main_expt",""
"","bandit","271","709944","0.0-233.0-0.0","75889744","wem/bandit_party_1","AAM0Q3DCSSQ0A","either","2","992","","","","","","","0","0","1","","0.1185409567","0.6","0.4","0.2","0.8","0.3711146034","0.3157917784","0.400448014","0.1185409567","","","","","","","","","","","","","","76","L","3","","","192","main_expt",""
"","bandit","272","712751","0.0-234.0-0.0","75889744","wem/bandit_party_1","AAM0Q3DCSSQ0A","either","2","1270","","","","","","","0","0","1","","0.3654165885","0.6","0.4","0.2","0.8","0.3654165885","0.2999212614","0.3895367297","0.09837948322","","","","","","","","","","","","","","72","H","0","img/none_selected.jpg","","193","main_expt",""
"","bandit","273","714672","0.0-235.0-0.0","75889744","wem/bandit_party_1","AAM0Q3DCSSQ0A","either","2","396","","","","","","","0","0","1","","0.3537818584","0.6","0.4","0.2","0.8","0.3537818584","0.3287494418","0.4032313792","0.137690802","","","","","","","","","","","","","","72","H","0","img/none_selected.jpg","","194","main_expt",""
"","bandit","274","716542","0.0-236.0-0.0","75889744","wem/bandit_party_1","AAM0Q3DCSSQ0A","either","2","336","","","","","","","0","0","1","0.3597494918","","0.6","0.4","0.2","0.8","","","","","0.3597494918","0.3031978913","0.337234763","0.1683354775","","","","","","","","","","72","H","0","img/none_selected.jpg","","195","main_expt",""
"","bandit","275","718370","0.0-237.0-0.0","75889744","wem/bandit_party_1","AAM0Q3DCSSQ0A","either","2","294","","","","","","","0","1","0","","0.2901303692","0.6","0.4","0.2","0.8","0.3479121901","0.2901303692","0.3950764453","0.1561951964","","","","","","","","","","","","","","74","J","1","","","196","main_expt",""
"","bandit","276","720286","0.0-238.0-0.0","75889744","wem/bandit_party_1","AAM0Q3DCSSQ0A","either","2","383","","","","","","","1","0","0","0.2444781728","","0.6","0.4","0.2","0.8","","","","","0.3596292454","0.2444781728","0.4193743727","0.1329868482","","","","","","","","","","74","J","1","","","197","main_expt",""
"","bandit","277","723013","0.0-239.0-0.0","75889744","wem/bandit_party_1","AAM0Q3DCSSQ0A","either","2","1191","","","","","","","0","0","1","","0.2140047665","0.6","0.4","0.2","0.8","0.3555371828","0.2140047665","0.4375347816","0.1730826789","","","","","","","","","","","","","","74","J","1","","","198","main_expt",""
"","bandit","278","725086","0.0-240.0-0.0","75889744","wem/bandit_party_1","AAM0Q3DCSSQ0A","either","2","542","","","","","","","0","0","1","0.2077842613","","0.6","0.4","0.2","0.8","","","","","0.4016486285","0.2077842613","0.4315030007","0.1385649096","","","","","","","","","","74","J","1","","","199","main_expt",""
"","bandit","279","726625","0.0-241.0-0.0","75889744","wem/bandit_party_1","AAM0Q3DCSSQ0A","either","2","2","","","","","","","0","0","1","","0.180488049","0.6","0.4","0.2","0.8","0.3871107612","0.180488049","0.4340108373","0.1941139053","","","","","","","","","","","","","","74","J","1","","","200","main_expt",""
"","bandit","280","728722","0.0-242.0-0.0","75889744","wem/bandit_party_1","AAM0Q3DCSSQ0A","either","2","564","","","","","","","0","0","1","","0.2084987087","0.6","0.4","0.2","0.8","0.3856539452","0.2084987087","0.441078118","0.1825013029","","","","","","","","","","","","","","74","J","1","","","201","main_expt",""
"","bandit","281","731006","0.0-243.0-0.0","75889744","wem/bandit_party_1","AAM0Q3DCSSQ0A","either","2","749","","","","","","","0","1","0","","0.4143682719","0.6","0.4","0.2","0.8","0.358588673","0.1869669721","0.4143682719","0.162440572","","","","","","","","","","","","","","75","K","2","","","202","main_expt",""
"","bandit","282","733341","0.0-244.0-0.0","75889744","wem/bandit_party_1","AAM0Q3DCSSQ0A","either","2","811","","","","","","","1","0","0","0.4280720422","","0.6","0.4","0.2","0.8","","","","","0.3460881607","0.1383076553","0.4280720422","0.1914238456","","","","","","","","","","75","K","2","","","203","main_expt",""
"","bandit","283","734880","0.0-245.0-0.0","75889744","wem/bandit_party_1","AAM0Q3DCSSQ0A","either","2","11","","","","","","","1","0","0","0.4113524858","","0.6","0.4","0.2","0.8","","","","","0.3091432968","0.1656187697","0.4113524858","0.1849793247","","","","","","","","","","75","K","2","","","204","main_expt",""
"","bandit","284","736960","0.0-246.0-0.0","75889744","wem/bandit_party_1","AAM0Q3DCSSQ0A","either","2","526","","","","","","","0","0","1","0.4151465815","","0.6","0.4","0.2","0.8","","","","","0.3016396897","0.1699285253","0.4151465815","0.1722293799","","","","","","","","","","75","K","2","","","205","main_expt",""
"","bandit","285","739924","0.0-247.0-0.0","75889744","wem/bandit_party_1","AAM0Q3DCSSQ0A","either","2","1423","","","","","","","0","0","1","","0.4002359997","0.6","0.4","0.2","0.8","0.3300702997","0.161732949","0.4002359997","0.1625694713","","","","","","","","","","","","","","75","K","2","","","206","main_expt",""
"","bandit","286","743092","0.0-248.0-0.0","75889744","wem/bandit_party_1","AAM0Q3DCSSQ0A","either","2","1635","","","","","","","0","1","0","","0.1079769143","0.6","0.4","0.2","0.8","0.2648848683","0.1699017951","0.3692387261","0.1079769143","","","","","","","","","","","","","","76","L","3","","","207","main_expt",""
"","bandit","287","746751","0.0-249.0-0.0","75889744","wem/bandit_party_1","AAM0Q3DCSSQ0A","either","2","2130","","","","","","","0","0","1","0.1380178959","","0.6","0.4","0.2","0.8","","","","","0.2502792914","0.1592107695","0.3283471685","0.1380178959","","","","","","","","","","76","L","3","","","208","main_expt",""
"","bandit","288","748737","0.0-250.0-0.0","75889744","wem/bandit_party_1","AAM0Q3DCSSQ0A","either","2","451","","","","","","","0","0","1","0.1538506734","","0.6","0.4","0.2","0.8","","","","","0.2770073026","0.1659907122","0.2924758898","0.1538506734","","","","","","","","","","76","L","3","","","209","main_expt",""
"","bandit","289","751013","0.0-251.0-0.0","75889744","wem/bandit_party_1","AAM0Q3DCSSQ0A","either","2","740","","","","","","","0","0","1","0.1406222791","","0.6","0.4","0.2","0.8","","","","","0.3451435735","0.229525517","0.2279470939","0.1406222791","","","","","","","","","","76","L","3","","","210","main_expt",""
"","bandit","290","753295","0.0-252.0-0.0","75889744","wem/bandit_party_1","AAM0Q3DCSSQ0A","either","2","732","","","","","","","0","0","1","0.2131844406","","0.6","0.4","0.2","0.8","","","","","0.3514478275","0.2434605193","0.2131844406","0.08987887408","","","","","","","","","","75","K","2","","","211","main_expt",""
"","bandit","291","755521","0.0-253.0-0.0","75889744","wem/bandit_party_1","AAM0Q3DCSSQ0A","either","2","679","","","","","","","0","0","1","0.1633214123","","0.6","0.4","0.2","0.8","","","","","0.3579324364","0.1633214123","0.1601793481","0.1277875359","","","","","","","","","","74","J","1","","","212","main_expt",""
"","bandit","292","757388","0.0-254.0-0.0","75889744","wem/bandit_party_1","AAM0Q3DCSSQ0A","either","2","327","","","","","","","0","0","1","0.1014835246","","0.6","0.4","0.2","0.8","","","","","0.3231243524","0.1014835246","0.1354109392","0.134271297","","","","","","","","","","74","J","1","","","213","main_expt",""
"","bandit","293","759217","0.0-255.0-0.0","75889744","wem/bandit_party_1","AAM0Q3DCSSQ0A","either","2","299","","","","","","","0","0","1","0.09587264096","","0.6","0.4","0.2","0.8","","","","","0.2798540136","0.09587264096","0.1142105534","0.1385204111","","","","","","","","","","74","J","1","","","214","main_expt",""
"","bandit","294","761295","0.0-256.0-0.0","75889744","wem/bandit_party_1","AAM0Q3DCSSQ0A","either","2","538","","","","","","","0","0","1","","0.1031311673","0.6","0.4","0.2","0.8","0.2469391402","0.08342689115","0.1031311673","0.1089132689","","","","","","","","","","","","","","75","K","2","","","215","main_expt",""
"","bandit","295","762958","0.0-257.0-0.0","75889744","wem/bandit_party_1","AAM0Q3DCSSQ0A","either","2","127","","","","","","","0","0","1","","0.1031732366","0.6","0.4","0.2","0.8","0.3211823944","0.05361264496","0.1031732366","0.1299508563","","","","","","","","","","","","","","75","K","2","","","216","main_expt",""
"","bandit","296","764964","0.0-258.0-0.0","75889744","wem/bandit_party_1","AAM0Q3DCSSQ0A","either","2","449","","","","","","","0","1","0","","0.1188097379","0.6","0.4","0.2","0.8","0.3545519007","0.09912420903","0.1188097379","0.131109262","","","","","","","","","","","","","","75","K","2","","","217","main_expt",""
"","bandit","297","766592","0.0-259.0-0.0","75889744","wem/bandit_party_1","AAM0Q3DCSSQ0A","either","2","101","","","","","","","0","1","0","","0.1096623481","0.6","0.4","0.2","0.8","0.3781539282","0.1021137889","0.1096623481","0.1039495344","","","","","","","","","","","","","","75","K","2","","","218","main_expt",""
"","bandit","298","768594","0.0-260.0-0.0","75889744","wem/bandit_party_1","AAM0Q3DCSSQ0A","either","2","463","","","","","","","0","1","0","","0.08679630722","0.6","0.4","0.2","0.8","0.3674409598","0.1025207236","0.08679630722","0.09488552944","","","","","","","","","","","","","","75","K","2","","","219","main_expt",""
"","bandit","299","770169","0.0-261.0-0.0","75889744","wem/bandit_party_1","AAM0Q3DCSSQ0A","either","2","34","","","","","","","0","0","1","","0.1482089448","0.6","0.4","0.2","0.8","0.315237632","0.1049734862","0.1482089448","0.1311925698","","","","","","","","","","","","","","75","K","2","","","220","main_expt",""
"","bandit","300","772169","0.0-262.0-0.0","75889744","wem/bandit_party_1","AAM0Q3DCSSQ0A","either","2","471","","","","","","","1","0","0","0.08224132258","","0.6","0.4","0.2","0.8","","","","","0.3572442142","0.08244295151","0.217172314","0.08224132258","","","","","","","","","","76","L","3","","","221","main_expt",""
"","bandit","301","773996","0.0-263.0-0.0","75889744","wem/bandit_party_1","AAM0Q3DCSSQ0A","either","2","293","","","","","","","0","0","1","","0.06870998364","0.6","0.4","0.2","0.8","0.2796125419","0.09815111748","0.2227738938","0.06870998364","","","","","","","","","","","","","","76","L","3","","","222","main_expt",""
"","bandit","302","776343","0.0-264.0-0.0","75889744","wem/bandit_party_1","AAM0Q3DCSSQ0A","either","2","816","","","","","","","0","0","1","","0.111762886","0.6","0.4","0.2","0.8","0.2265565182","0.09925351505","0.2768694491","0.111762886","","","","","","","","","","","","","","76","L","3","","","223","main_expt",""
"","bandit","303","778287","0.0-265.0-0.0","75889744","wem/bandit_party_1","AAM0Q3DCSSQ0A","either","2","409","","","","","","","0","0","1","","0.2895694018","0.6","0.4","0.2","0.8","0.1727872262","0.07842644678","0.2895694018","0.09652303785","","","","","","","","","","","","","","75","K","2","","","224","main_expt",""
"","bandit","304","779926","0.0-266.0-0.0","75889744","wem/bandit_party_1","AAM0Q3DCSSQ0A","either","2","100","","","","","","","0","0","1","","0.05284632075","0.6","0.4","0.2","0.8","0.1580797834","0.05284632075","0.3515154126","0.09424892582","","","","","","","","","","","","","","74","J","1","","","225","main_expt",""
"","bandit","305","782014","0.0-267.0-0.0","75889744","wem/bandit_party_1","AAM0Q3DCSSQ0A","either","2","540","","","","","","","1","0","0","0.1206031336","","0.6","0.4","0.2","0.8","","","","","0.1206031336","0.06788221328","0.3960872924","0.1094697254","","","","","","","","","","72","H","0","img/none_selected.jpg","","226","main_expt",""
"","bandit","306","783847","0.0-268.0-0.0","75889744","wem/bandit_party_1","AAM0Q3DCSSQ0A","either","2","298","","","","","","","0","0","1","0.1218099769","","0.6","0.4","0.2","0.8","","","","","0.1218099769","0.04226868229","0.3301105445","0.1055794081","","","","","","","","","","72","H","0","img/none_selected.jpg","","227","main_expt",""
"","bandit","307","785772","0.0-269.0-0.0","75889744","wem/bandit_party_1","AAM0Q3DCSSQ0A","either","2","389","","","","","","","0","0","1","0.08458740206","","0.6","0.4","0.2","0.8","","","","","0.08458740206","0.06174471126","0.3679650562","0.1210232629","","","","","","","","","","72","H","0","img/none_selected.jpg","","228","main_expt",""
"","bandit","308","787331","0.0-270.0-0.0","75889744","wem/bandit_party_1","AAM0Q3DCSSQ0A","either","2","15","","","","","","","0","0","1","","0.06311990622","0.6","0.4","0.2","0.8","0.06311990622","0.06122033102","0.3413725311","0.1249199002","","","","","","","","","","","","","","72","H","0","img/none_selected.jpg","","229","main_expt",""
"","bandit","309","789193","0.0-271.0-0.0","75889744","wem/bandit_party_1","AAM0Q3DCSSQ0A","either","2","334","","","","","","","0","1","0","","0.09369367087","0.6","0.4","0.2","0.8","0.04674316758","0.09369367087","0.3652503211","0.1423167866","","","","","","","","","","","","","","74","J","1","","","230","main_expt",""
"","bandit","310","791079","0.0-272.0-0.0","75889744","wem/bandit_party_1","AAM0Q3DCSSQ0A","either","2","355","","","","","","","0","0","1","0.1378364932","","0.6","0.4","0.2","0.8","","","","","0.06697327866","0.1378364932","0.3774172636","0.1441411413","","","","","","","","","","74","J","1","","","231","main_expt",""
"","bandit","311","793034","0.0-273.0-0.0","75889744","wem/bandit_party_1","AAM0Q3DCSSQ0A","either","2","420","","","","","","","0","0","1","","0.3507397895","0.6","0.4","0.2","0.8","0.08617656909","0.1138343256","0.3507397895","0.1132866493","","","","","","","","","","","","","","75","K","2","","","232","main_expt",""
"","bandit","312","794578","0.0-274.0-0.0","75889744","wem/bandit_party_1","AAM0Q3DCSSQ0A","either","2","1","","","","","","","0","1","0","","0.1602674987","0.6","0.4","0.2","0.8","0.08388286328","0.1602674987","0.3228668676","0.07587191469","","","","","","","","","","","","","","74","J","1","","","233","main_expt",""
"","bandit","313","796795","0.0-275.0-0.0","75889744","wem/bandit_party_1","AAM0Q3DCSSQ0A","either","2","668","","","","","","","0","1","0","","0.1399599793","0.6","0.4","0.2","0.8","0.08303297831","0.1399599793","0.3219168209","0.08330376307","","","","","","","","","","","","","","74","J","1","","","234","main_expt",""
"","bandit","314","799837","0.0-276.0-0.0","75889744","wem/bandit_party_1","AAM0Q3DCSSQ0A","either","2","1507","","","","","","","0","0","1","","0.1577883936","0.6","0.4","0.2","0.8","0.08228619446","0.1577883936","0.2907257894","0.07960395758","","","","","","","","","","","","","","74","J","1","","","235","main_expt",""
"","bandit","315","802947","0.0-277.0-0.0","75889744","wem/bandit_party_1","AAM0Q3DCSSQ0A","either","2","1573","","","","","","","0","0","1","0.2879125653","","0.6","0.4","0.2","0.8","","","","","0.07856112713","0.1206463377","0.2879125653","0.06703487678","","","","","","","","","","75","K","2","","","236","main_expt",""
"","bandit","316","805704","0.0-278.0-0.0","75889744","wem/bandit_party_1","AAM0Q3DCSSQ0A","either","2","1216","","","","","","","0","0","1","","0.07970276757","0.6","0.4","0.2","0.8","0.09394336493","0.1224948263","0.3055933028","0.07970276757","","","","","","","","","","","","","","76","L","3","","","237","main_expt",""
"","bandit","317","808977","0.0-279.0-0.0","75889744","wem/bandit_party_1","AAM0Q3DCSSQ0A","either","2","1736","","","","","","","0","0","1","","0.05589422377","0.6","0.4","0.2","0.8","0.1044036833","0.1163601633","0.3197806133","0.05589422377","","","","","","","","","","","","","","76","L","3","","","238","main_expt",""
"","bandit","318","811353","0.0-280.0-0.0","75889744","wem/bandit_party_1","AAM0Q3DCSSQ0A","either","2","840","","","","","","","0","1","0","","0.2699970134","0.6","0.4","0.2","0.8","0.1010835707","0.09302868556","0.2699970134","0.07304711058","","","","","","","","","","","","","","75","K","2","","","239","main_expt",""
