"consent","trial_type","trial_index","time_elapsed","internal_node_id","subjID","study","MID","cond","drift","rt","responses","button_pressed","key_press","like","value","connected","gems","bombs","no_reward","GemPrChosen","BombPrChosen","GainOverPainPr_0","GainOverPainPr_1","GainOverPainPr_2","GainOverPainPr_3","LosePr_0","LosePr_1","LosePr_2","LosePr_3","WinPr_0","WinPr_1","WinPr_2","WinPr_3","Q0","Q1","Q2","gender","age","ethnicity","label","expt_phase","target","respCharCode","respKey","respChoiceNum","respChoice","practice","trial_counter","trial_label","Q0_index","view_history"
"GDM/GDM_behavioral_consent_30min_online.html","consent","0","17405","0.0-0.0","76895159","wem/bandit_party_1","A3A8P4UR9A0DWQ","either","5","","","","","","","","","","","","","","","","","","","","","","","","","","","","","","","","","","","","","","","","","",""
"","survey-text","1","20967","0.0-1.0","76895159","wem/bandit_party_1","A3A8P4UR9A0DWQ","either","5","2546","{""Q0"":""A3A8P4UR9A0DWQ""}","","","","","","","","","","","","","","","","","","","","","","","","","","","","","","","","","","","","","","","",""
"","button-response","2","23052","0.0-2.0","76895159","wem/bandit_party_1","A3A8P4UR9A0DWQ","either","5","1074","","0","","","","","","","","","","","","","","","","","","","","","","","","","","","","","","","","","","","","","","",""
"","text-replacement","3","36227","0.0-3.0","76895159","wem/bandit_party_1","A3A8P4UR9A0DWQ","either","5","12166","","","32","","","","","","","","","","","","","","","","","","","","","","","","","","","","","","","","","","","","","",""
"","text-replacement","4","40855","0.0-4.0","76895159","wem/bandit_party_1","A3A8P4UR9A0DWQ","either","5","4624","","","32","","","","","","","","","","","","","","","","","","","","","","","","","","","","","","","","","","","","","",""
"","identification","5","48101","0.0-6.0-0.0","76895159","wem/bandit_party_1","A3A8P4UR9A0DWQ","either","5","7213","","","","0","0","0","","","","","","","","","","","","","","","","","","","","","","","","pre","identification_pre","the Democratic Party","","","","","","","","",""
"","identification","6","54813","0.0-6.0-1.0","76895159","wem/bandit_party_1","A3A8P4UR9A0DWQ","either","5","5681","","","","4","4","4","","","","","","","","","","","","","","","","","","","","","","","","pre","identification_pre","the Republican party","","","","","","","","",""
"","text-replacement","7","60573","0.0-7.0","76895159","wem/bandit_party_1","A3A8P4UR9A0DWQ","either","5","4755","","","32","","","","","","","","","","","","","","","","","","","","","","","","","","","","","","","","","","","","","",""
"","text-replacement","8","62610","0.0-8.0","76895159","wem/bandit_party_1","A3A8P4UR9A0DWQ","either","5","2033","","","32","","","","","","","","","","","","","","","","","","","","","","","","","","","","","","","","","","","","","",""
"","text-replacement","9","64585","0.0-9.0","76895159","wem/bandit_party_1","A3A8P4UR9A0DWQ","either","5","1970","","","32","","","","","","","","","","","","","","","","","","","","","","","","","","","","","","","","","","","","","",""
"","text-replacement","10","73060","0.0-10.0","76895159","wem/bandit_party_1","A3A8P4UR9A0DWQ","either","5","8471","","","32","","","","","","","","","","","","","","","","","","","","","","","","","","","","","","","","","","","","","",""
"","text-replacement","11","74726","0.0-11.0","76895159","wem/bandit_party_1","A3A8P4UR9A0DWQ","either","5","1662","","","32","","","","","","","","","","","","","","","","","","","","","","","","","","","","","","","","","","","","","",""
"","bandit","12","80042","0.0-12.0-0.0","76895159","wem/bandit_party_1","A3A8P4UR9A0DWQ","either","5","3793","","","","","","","0","0","1","0","0","","","","","0","","","","0","","","","","","","","","","","","","74","J","0","img/none_selected_demo.jpg","true","0","","",""
"","bandit","13","82732","0.0-13.0-0.0","76895159","wem/bandit_party_1","A3A8P4UR9A0DWQ","either","5","1144","","","","","","","0","0","1","0","0","","","","","0","","","","0","","","","","","","","","","","","","75","K","0","img/none_selected_demo.jpg","true","0","","",""
"","text-replacement","14","88509","0.0-14.0","76895159","wem/bandit_party_1","A3A8P4UR9A0DWQ","either","5","5774","","","32","","","","","","","","","","","","","","","","","","","","","","","","","","","","","","","","","","","","","",""
"","text-replacement","15","91923","0.0-15.0","76895159","wem/bandit_party_1","A3A8P4UR9A0DWQ","either","5","3409","","","32","","","","","","","","","","","","","","","","","","","","","","","","","","","","","","","","","","","","","",""
"","text-replacement","16","96805","0.0-16.0","76895159","wem/bandit_party_1","A3A8P4UR9A0DWQ","either","5","4878","","","32","","","","","","","","","","","","","","","","","","","","","","","","","","","","","","","","","","","","","",""
"","text-replacement","17","100521","0.0-17.0","76895159","wem/bandit_party_1","A3A8P4UR9A0DWQ","either","5","3712","","","32","","","","","","","","","","","","","","","","","","","","","","","","","","","","","","","","","","","","","",""
"","bandit","18","103325","0.0-18.0-0.0","76895159","wem/bandit_party_1","A3A8P4UR9A0DWQ","either","5","1291","","","","","","","0","0","1","0.2","","0.5","0.5","","","","","","","0.8","0.2","","","","","","","","","","","","75","K","1","","true","0","80_20_practice","",""
"","bandit","19","105689","0.0-18.0-1.0","76895159","wem/bandit_party_1","A3A8P4UR9A0DWQ","either","5","820","","","","","","","1","0","0","0.2","","0.5","0.5","","","","","","","0.8","0.2","","","","","","","","","","","","75","K","1","","true","0","80_20_practice","",""
"","bandit","20","107685","0.0-18.0-2.0","76895159","wem/bandit_party_1","A3A8P4UR9A0DWQ","either","5","484","","","","","","","0","0","1","0.2","","0.5","0.5","","","","","","","0.8","0.2","","","","","","","","","","","","75","K","1","","true","0","80_20_practice","",""
"","bandit","21","109595","0.0-18.0-3.0","76895159","wem/bandit_party_1","A3A8P4UR9A0DWQ","either","5","378","","","","","","","0","0","1","","0.2","0.5","0.5","","","0.8","0.2","","","","","","","","","","","","","","","","75","K","1","","true","0","80_20_practice","",""
"","bandit","22","111597","0.0-18.0-4.0","76895159","wem/bandit_party_1","A3A8P4UR9A0DWQ","either","5","482","","","","","","","0","0","1","","0.2","0.5","0.5","","","0.8","0.2","","","","","","","","","","","","","","","","75","K","1","","true","0","80_20_practice","",""
"","bandit","23","113519","0.0-18.0-5.0","76895159","wem/bandit_party_1","A3A8P4UR9A0DWQ","either","5","401","","","","","","","0","1","0","","0.8","0.5","0.5","","","0.8","0.2","","","","","","","","","","","","","","","","74","J","0","img/none_selected_demo.jpg","true","0","80_20_practice","",""
"","bandit","24","115635","0.0-18.0-6.0","76895159","wem/bandit_party_1","A3A8P4UR9A0DWQ","either","5","599","","","","","","","1","0","0","0.8","","0.5","0.5","","","","","","","0.8","0.2","","","","","","","","","","","","74","J","0","img/none_selected_demo.jpg","true","0","80_20_practice","",""
"","bandit","25","117464","0.0-18.0-7.0","76895159","wem/bandit_party_1","A3A8P4UR9A0DWQ","either","5","318","","","","","","","0","0","1","","0.2","0.5","0.5","","","0.8","0.2","","","","","","","","","","","","","","","","75","K","1","","true","0","80_20_practice","",""
"","bandit","26","119298","0.0-18.0-8.0","76895159","wem/bandit_party_1","A3A8P4UR9A0DWQ","either","5","298","","","","","","","0","0","1","0.2","","0.5","0.5","","","","","","","0.8","0.2","","","","","","","","","","","","75","K","1","","true","0","80_20_practice","",""
"","bandit","27","121108","0.0-18.0-9.0","76895159","wem/bandit_party_1","A3A8P4UR9A0DWQ","either","5","298","","","","","","","0","0","1","0.8","","0.5","0.5","","","","","","","0.8","0.2","","","","","","","","","","","","74","J","0","img/none_selected_demo.jpg","true","0","80_20_practice","",""
"","bandit","28","122916","0.0-18.0-10.0","76895159","wem/bandit_party_1","A3A8P4UR9A0DWQ","either","5","295","","","","","","","0","1","0","","0.8","0.5","0.5","","","0.8","0.2","","","","","","","","","","","","","","","","74","J","0","img/none_selected_demo.jpg","true","0","80_20_practice","",""
"","bandit","29","124749","0.0-18.0-11.0","76895159","wem/bandit_party_1","A3A8P4UR9A0DWQ","either","5","301","","","","","","","0","0","1","0.8","","0.5","0.5","","","","","","","0.8","0.2","","","","","","","","","","","","74","J","0","img/none_selected_demo.jpg","true","0","80_20_practice","",""
"","bandit","30","126521","0.0-18.0-12.0","76895159","wem/bandit_party_1","A3A8P4UR9A0DWQ","either","5","261","","","","","","","0","0","1","","0.2","0.5","0.5","","","0.8","0.2","","","","","","","","","","","","","","","","75","K","1","","true","0","80_20_practice","",""
"","bandit","31","128108","0.0-18.0-13.0","76895159","wem/bandit_party_1","A3A8P4UR9A0DWQ","either","5","75","","","","","","","0","0","1","","0.2","0.5","0.5","","","0.8","0.2","","","","","","","","","","","","","","","","75","K","1","","true","0","80_20_practice","",""
"","bandit","32","129912","0.0-18.0-14.0","76895159","wem/bandit_party_1","A3A8P4UR9A0DWQ","either","5","259","","","","","","","0","0","1","","0.2","0.5","0.5","","","0.8","0.2","","","","","","","","","","","","","","","","75","K","1","","true","0","80_20_practice","",""
"","bandit","33","131724","0.0-18.0-15.0","76895159","wem/bandit_party_1","A3A8P4UR9A0DWQ","either","5","300","","","","","","","0","0","1","0.2","","0.5","0.5","","","","","","","0.8","0.2","","","","","","","","","","","","75","K","1","","true","0","80_20_practice","",""
"","bandit","34","133577","0.0-18.0-16.0","76895159","wem/bandit_party_1","A3A8P4UR9A0DWQ","either","5","328","","","","","","","1","0","0","0.8","","0.5","0.5","","","","","","","0.8","0.2","","","","","","","","","","","","74","J","0","img/none_selected_demo.jpg","true","0","80_20_practice","",""
"","bandit","35","135397","0.0-18.0-17.0","76895159","wem/bandit_party_1","A3A8P4UR9A0DWQ","either","5","306","","","","","","","0","1","0","","0.8","0.5","0.5","","","0.8","0.2","","","","","","","","","","","","","","","","74","J","0","img/none_selected_demo.jpg","true","0","80_20_practice","",""
"","bandit","36","137211","0.0-18.0-18.0","76895159","wem/bandit_party_1","A3A8P4UR9A0DWQ","either","5","298","","","","","","","1","0","0","0.8","","0.5","0.5","","","","","","","0.8","0.2","","","","","","","","","","","","74","J","0","img/none_selected_demo.jpg","true","0","80_20_practice","",""
"","bandit","37","139033","0.0-18.0-19.0","76895159","wem/bandit_party_1","A3A8P4UR9A0DWQ","either","5","310","","","","","","","0","0","1","0.8","","0.5","0.5","","","","","","","0.8","0.2","","","","","","","","","","","","74","J","0","img/none_selected_demo.jpg","true","0","80_20_practice","",""
"","text-replacement","38","143403","0.0-19.0","76895159","wem/bandit_party_1","A3A8P4UR9A0DWQ","either","5","4365","","","32","","","","","","","","","","","","","","","","","","","","","","","","","","","","","","","","","","","","","",""
"","bandit","39","145901","0.0-20.0-0.0","76895159","wem/bandit_party_1","A3A8P4UR9A0DWQ","either","5","983","","","","","","","1","0","0","1","0","","","","","0","1","","","1","0","","","","","","","","","","","","74","J","0","img/none_selected_demo.jpg","true","0","","",""
"","text-replacement","40","155060","0.0-21.0","76895159","wem/bandit_party_1","A3A8P4UR9A0DWQ","either","5","9153","","","32","","","","","","","","","","","","","","","","","","","","","","","","","","","","","","","","","","","","","",""
"","text-replacement","41","160786","0.0-22.0","76895159","wem/bandit_party_1","A3A8P4UR9A0DWQ","either","5","5719","","","32","","","","","","","","","","","","","","","","","","","","","","","","","","","","","","","","","","","","","",""
"","text-replacement","42","164411","0.0-23.0","76895159","wem/bandit_party_1","A3A8P4UR9A0DWQ","either","5","3620","","","32","","","","","","","","","","","","","","","","","","","","","","","","","","","","","","","","","","","","","",""
"","text-replacement","43","166200","0.0-24.0","76895159","wem/bandit_party_1","A3A8P4UR9A0DWQ","either","5","1785","","","32","","","","","","","","","","","","","","","","","","","","","","","","","","","","","","","","","","","","","",""
"","text-replacement","44","168525","0.0-25.0","76895159","wem/bandit_party_1","A3A8P4UR9A0DWQ","either","5","2321","","","32","","","","","","","","","","","","","","","","","","","","","","","","","","","","","","","","","","","","","",""
"","text-replacement","45","169790","0.0-26.0","76895159","wem/bandit_party_1","A3A8P4UR9A0DWQ","either","5","1257","","","32","","","","","","","","","","","","","","","","","","","","","","","","","","","","","","","","","","","","","",""
"","text-replacement","46","171534","0.0-27.0","76895159","wem/bandit_party_1","A3A8P4UR9A0DWQ","either","5","1738","","","32","","","","","","","","","","","","","","","","","","","","","","","","","","","","","","","","","","","","","",""
"","text-replacement","47","173406","0.0-28.0","76895159","wem/bandit_party_1","A3A8P4UR9A0DWQ","either","5","1867","","","32","","","","","","","","","","","","","","","","","","","","","","","","","","","","","","","","","","","","","",""
"","text-replacement","48","175579","0.0-29.0","76895159","wem/bandit_party_1","A3A8P4UR9A0DWQ","either","5","2169","","","32","","","","","","","","","","","","","","","","","","","","","","","","","","","","","","","","","","","","","",""
"","text-replacement","49","177378","0.0-30.0","76895159","wem/bandit_party_1","A3A8P4UR9A0DWQ","either","5","1794","","","32","","","","","","","","","","","","","","","","","","","","","","","","","","","","","","","","","","","","","",""
"","text-replacement","50","180328","0.0-31.0","76895159","wem/bandit_party_1","A3A8P4UR9A0DWQ","either","5","2945","","","32","","","","","","","","","","","","","","","","","","","","","","","","","","","","","","","","","","","","","",""
"","bandit","51","182483","0.0-32.0-0.0","76895159","wem/bandit_party_1","A3A8P4UR9A0DWQ","either","5","643","","","","","","","0","1","0","","0.8","0.5","0.5","0.5","0.5","0.8","0.2","0.6","0.2","","","","","","","","","","","","","","72","H","0","img/none_selected.jpg","true","0","full_practice","",""
"","bandit","52","184402","0.0-32.0-1.0","76895159","wem/bandit_party_1","A3A8P4UR9A0DWQ","either","5","403","","","","","","","0","0","1","","0.2","0.5","0.5","0.5","0.5","0.8","0.2","0.6","0.2","","","","","","","","","","","","","","74","J","1","","true","0","full_practice","",""
"","bandit","53","186009","0.0-32.0-2.0","76895159","wem/bandit_party_1","A3A8P4UR9A0DWQ","either","5","72","","","","","","","0","1","0","","0.6","0.5","0.5","0.5","0.5","0.8","0.2","0.6","0.2","","","","","","","","","","","","","","75","K","2","","true","0","full_practice","",""
"","bandit","54","187927","0.0-32.0-3.0","76895159","wem/bandit_party_1","A3A8P4UR9A0DWQ","either","5","389","","","","","","","0","0","1","","0.2","0.5","0.5","0.5","0.5","0.8","0.2","0.6","0.2","","","","","","","","","","","","","","76","L","3","","true","0","full_practice","",""
"","bandit","55","189770","0.0-32.0-4.0","76895159","wem/bandit_party_1","A3A8P4UR9A0DWQ","either","5","331","","","","","","","1","0","0","0.6","","0.5","0.5","0.5","0.5","","","","","0.8","0.2","0.6","0.2","","","","","","","","","","75","K","2","","true","0","full_practice","",""
"","bandit","56","191580","0.0-32.0-5.0","76895159","wem/bandit_party_1","A3A8P4UR9A0DWQ","either","5","296","","","","","","","0","0","1","0.6","","0.5","0.5","0.5","0.5","","","","","0.8","0.2","0.6","0.2","","","","","","","","","","75","K","2","","true","0","full_practice","",""
"","bandit","57","193446","0.0-32.0-6.0","76895159","wem/bandit_party_1","A3A8P4UR9A0DWQ","either","5","349","","","","","","","0","1","0","","0.8","0.5","0.5","0.5","0.5","0.8","0.2","0.6","0.2","","","","","","","","","","","","","","72","H","0","img/none_selected.jpg","true","0","full_practice","",""
"","bandit","58","195307","0.0-32.0-7.0","76895159","wem/bandit_party_1","A3A8P4UR9A0DWQ","either","5","350","","","","","","","0","1","0","","0.8","0.5","0.5","0.5","0.5","0.8","0.2","0.6","0.2","","","","","","","","","","","","","","72","H","0","img/none_selected.jpg","true","0","full_practice","",""
"","bandit","59","197416","0.0-32.0-8.0","76895159","wem/bandit_party_1","A3A8P4UR9A0DWQ","either","5","597","","","","","","","0","0","1","","0.6","0.5","0.5","0.5","0.5","0.8","0.2","0.6","0.2","","","","","","","","","","","","","","75","K","2","","true","0","full_practice","",""
"","bandit","60","199055","0.0-32.0-9.0","76895159","wem/bandit_party_1","A3A8P4UR9A0DWQ","either","5","125","","","","","","","0","0","1","0.2","","0.5","0.5","0.5","0.5","","","","","0.8","0.2","0.6","0.2","","","","","","","","","","74","J","1","","true","0","full_practice","",""
"","bandit","61","200877","0.0-32.0-10.0","76895159","wem/bandit_party_1","A3A8P4UR9A0DWQ","either","5","309","","","","","","","0","0","1","","0.2","0.5","0.5","0.5","0.5","0.8","0.2","0.6","0.2","","","","","","","","","","","","","","76","L","3","","true","0","full_practice","",""
"","bandit","62","202690","0.0-32.0-11.0","76895159","wem/bandit_party_1","A3A8P4UR9A0DWQ","either","5","298","","","","","","","0","1","0","","0.6","0.5","0.5","0.5","0.5","0.8","0.2","0.6","0.2","","","","","","","","","","","","","","75","K","2","","true","0","full_practice","",""
"","bandit","63","204521","0.0-32.0-12.0","76895159","wem/bandit_party_1","A3A8P4UR9A0DWQ","either","5","316","","","","","","","0","0","1","","0.6","0.5","0.5","0.5","0.5","0.8","0.2","0.6","0.2","","","","","","","","","","","","","","75","K","2","","true","0","full_practice","",""
"","bandit","64","206317","0.0-32.0-13.0","76895159","wem/bandit_party_1","A3A8P4UR9A0DWQ","either","5","283","","","","","","","0","0","1","0.6","","0.5","0.5","0.5","0.5","","","","","0.8","0.2","0.6","0.2","","","","","","","","","","75","K","2","","true","0","full_practice","",""
"","bandit","65","208085","0.0-32.0-14.0","76895159","wem/bandit_party_1","A3A8P4UR9A0DWQ","either","5","252","","","","","","","0","0","1","0.6","","0.5","0.5","0.5","0.5","","","","","0.8","0.2","0.6","0.2","","","","","","","","","","75","K","2","","true","0","full_practice","",""
"","bandit","66","209834","0.0-32.0-15.0","76895159","wem/bandit_party_1","A3A8P4UR9A0DWQ","either","5","234","","","","","","","1","0","0","0.6","","0.5","0.5","0.5","0.5","","","","","0.8","0.2","0.6","0.2","","","","","","","","","","75","K","2","","true","0","full_practice","",""
"","bandit","67","211596","0.0-32.0-16.0","76895159","wem/bandit_party_1","A3A8P4UR9A0DWQ","either","5","242","","","","","","","0","0","1","0.2","","0.5","0.5","0.5","0.5","","","","","0.8","0.2","0.6","0.2","","","","","","","","","","74","J","1","","true","0","full_practice","",""
"","bandit","68","213405","0.0-32.0-17.0","76895159","wem/bandit_party_1","A3A8P4UR9A0DWQ","either","5","278","","","","","","","0","1","0","","0.8","0.5","0.5","0.5","0.5","0.8","0.2","0.6","0.2","","","","","","","","","","","","","","72","H","0","img/none_selected.jpg","true","0","full_practice","",""
"","bandit","69","215077","0.0-32.0-18.0","76895159","wem/bandit_party_1","A3A8P4UR9A0DWQ","either","5","155","","","","","","","0","0","1","","0.2","0.5","0.5","0.5","0.5","0.8","0.2","0.6","0.2","","","","","","","","","","","","","","76","L","3","","true","0","full_practice","",""
"","bandit","70","216747","0.0-32.0-19.0","76895159","wem/bandit_party_1","A3A8P4UR9A0DWQ","either","5","156","","","","","","","1","0","0","0.2","","0.5","0.5","0.5","0.5","","","","","0.8","0.2","0.6","0.2","","","","","","","","","","76","L","3","","true","0","full_practice","",""
"","text","71","220679","0.0-33.0","76895159","wem/bandit_party_1","A3A8P4UR9A0DWQ","either","5","3913","","","32","","","","","","","","","","","","","","","","","","","","","","","","","","","","","","","","","","","","","",""
"","text-replacement","72","235914","0.0-34.0","76895159","wem/bandit_party_1","A3A8P4UR9A0DWQ","either","5","14227","","","32","","","","","","","","","","","","","","","","","","","","","","","","","","","","","","","","","","","","","",""
"","text-replacement","73","240909","0.0-35.0","76895159","wem/bandit_party_1","A3A8P4UR9A0DWQ","either","5","4989","","","32","","","","","","","","","","","","","","","","","","","","","","","","","","","","","","","","","","","","","",""
"","text-replacement","74","244041","0.0-36.0","76895159","wem/bandit_party_1","A3A8P4UR9A0DWQ","either","5","3127","","","32","","","","","","","","","","","","","","","","","","","","","","","","","","","","","","","","","","","","","",""
"","text-replacement","75","247700","0.0-37.0","76895159","wem/bandit_party_1","A3A8P4UR9A0DWQ","either","5","3652","","","32","","","","","","","","","","","","","","","","","","","","","","","","","","","","","","","","","","","","","",""
"","text-replacement","76","252780","0.0-38.0","76895159","wem/bandit_party_1","A3A8P4UR9A0DWQ","either","5","5075","","","32","","","","","","","","","","","","","","","","","","","","","","","","","","","","","","","","","","","","","",""
"","survey-multi-choice-replacement","77","260726","0.0-39.0-0.0","76895159","wem/bandit_party_1","A3A8P4UR9A0DWQ","either","5","7927","","","","","","","","","","","","","","","","","","","","","","","","Money will be added to the pool for <span style='color:red;'>REPUBLICANS</span>","","","","","","","attn_check","","","","","","","","","0",""
"","survey-multi-choice-replacement","78","267853","0.0-40.0-0.0","76895159","wem/bandit_party_1","A3A8P4UR9A0DWQ","either","5","6105","","","","","","","","","","","","","","","","","","","","","","","","Money will be added to the pool for <span style='color:red;'>REPUBLICANS</span>","","","","","","","attn_check","","","","","","","","","0",""
"","instructions","79","270243","0.0-40.0-1.0-0.0","76895159","wem/bandit_party_1","A3A8P4UR9A0DWQ","either","5","1383","","","","","","","","","","","","","","","","","","","","","","","","","","","","","","","","","","","","","","","","","[{""page_index"":0,""viewing_time"":1382}]"
"","survey-multi-choice-replacement","80","277659","0.0-40.1-0.1","76895159","wem/bandit_party_1","A3A8P4UR9A0DWQ","either","5","6397","","","","","","","","","","","","","","","","","","","","","","","","No money will be added to either pool","","","","","","","attn_check","","","","","","","","","3",""
"","instructions","81","280178","0.0-40.1-1.1-0.1","76895159","wem/bandit_party_1","A3A8P4UR9A0DWQ","either","5","1511","","","","","","","","","","","","","","","","","","","","","","","","","","","","","","","","","","","","","","","","","[{""page_index"":0,""viewing_time"":1510}]"
"","survey-multi-choice-replacement","82","282732","0.0-40.2-0.2","76895159","wem/bandit_party_1","A3A8P4UR9A0DWQ","either","5","1537","","","","","","","","","","","","","","","","","","","","","","","","Equal amounts of money will be added to the pool for <span style='color:red;'>REPUBLICANS</span> and subtracted from the pool for <span style='color:blue;'>DEMOCRATS</span>","","","","","","","attn_check","","","","","","","","","2",""
"","survey-multi-choice-replacement","83","287435","0.0-41.0-0.0","76895159","wem/bandit_party_1","A3A8P4UR9A0DWQ","either","5","3686","","","","","","","","","","","","","","","","","","","","","","","","No money will be added to either pool","","","","","","","attn_check","","","","","","","","","3",""
"","bandit","84","292277","0.0-42.0-0.0","76895159","wem/bandit_party_1","A3A8P4UR9A0DWQ","either","5","2318","","","","","","","1","0","0","0.4265570961","","0.6","0.2","0.8","0.4","","","","","0.3340388524","0.1165465043","0.4265570961","0.3897275569","","","","","","","","","","75","K","2","","","1","main_expt","",""
"","bandit","85","294290","0.0-43.0-0.0","76895159","wem/bandit_party_1","A3A8P4UR9A0DWQ","either","5","486","","","","","","","0","0","1","0.3223834482","","0.6","0.2","0.8","0.4","","","","","0.3223834482","0.08371899021","0.4177099958","0.3911966266","","","","","","","","","","72","H","0","img/none_selected.jpg","","2","main_expt","",""
"","bandit","86","296067","0.0-44.0-0.0","76895159","wem/bandit_party_1","A3A8P4UR9A0DWQ","either","5","261","","","","","","","0","0","1","","0.04339790364","0.6","0.2","0.8","0.4","0.3585509001","0.04339790364","0.4192185534","0.4074861021","","","","","","","","","","","","","","74","J","1","","","3","main_expt","",""
"","bandit","87","297869","0.0-45.0-0.0","76895159","wem/bandit_party_1","A3A8P4UR9A0DWQ","either","5","286","","","","","","","0","0","1","","0.3965638453","0.6","0.2","0.8","0.4","0.3416436242","0.04073472785","0.4241610434","0.3965638453","","","","","","","","","","","","","","76","L","3","","","4","main_expt","",""
"","bandit","88","299759","0.0-46.0-0.0","76895159","wem/bandit_party_1","A3A8P4UR9A0DWQ","either","5","343","","","","","","","0","0","1","0.4284837315","","0.6","0.2","0.8","0.4","","","","","0.3444758892","0.04731773769","0.4284837315","0.3688269119","","","","","","","","","","75","K","2","","","5","main_expt","",""
"","bandit","89","301572","0.0-47.0-0.0","76895159","wem/bandit_party_1","A3A8P4UR9A0DWQ","either","5","278","","","","","","","0","0","1","0.05617088868","","0.6","0.2","0.8","0.4","","","","","0.3574177426","0.05617088868","0.4328708062","0.3865867917","","","","","","","","","","74","J","1","","","6","main_expt","",""
"","bandit","90","303466","0.0-48.0-0.0","76895159","wem/bandit_party_1","A3A8P4UR9A0DWQ","either","5","376","","","","","","","0","0","1","","0.3634052143","0.6","0.2","0.8","0.4","0.3634052143","0.05606577856","0.4176545671","0.4294719924","","","","","","","","","","","","","","72","H","0","img/none_selected.jpg","","7","main_expt","",""
"","bandit","91","305237","0.0-49.0-0.0","76895159","wem/bandit_party_1","A3A8P4UR9A0DWQ","either","5","255","","","","","","","0","0","1","0.4022395488","","0.6","0.2","0.8","0.4","","","","","0.3675420607","0.09244853328","0.4022395488","0.4210378118","","","","","","","","","","75","K","2","","","8","main_expt","",""
"","bandit","92","306827","0.0-50.0-0.0","76895159","wem/bandit_party_1","A3A8P4UR9A0DWQ","either","5","79","","","","","","","0","0","1","","0.1271341085","0.6","0.2","0.8","0.4","0.3921196104","0.1271341085","0.3929004949","0.4502112583","","","","","","","","","","","","","","74","J","1","","","9","main_expt","",""
"","bandit","93","308975","0.0-51.0-0.0","76895159","wem/bandit_party_1","A3A8P4UR9A0DWQ","either","5","635","","","","","","","1","0","0","0.3863711448","","0.6","0.2","0.8","0.4","","","","","0.4026182126","0.1370717255","0.3863711448","0.4452653155","","","","","","","","","","75","K","2","","","10","main_expt","",""
"","bandit","94","310740","0.0-52.0-0.0","76895159","wem/bandit_party_1","A3A8P4UR9A0DWQ","either","5","247","","","","","","","0","1","0","","0.4205849279","0.6","0.2","0.8","0.4","0.3543069494","0.1275050207","0.4205849279","0.4352349267","","","","","","","","","","","","","","75","K","2","","","11","main_expt","",""
"","bandit","95","312525","0.0-53.0-0.0","76895159","wem/bandit_party_1","A3A8P4UR9A0DWQ","either","5","261","","","","","","","0","0","1","","0.3504097904","0.6","0.2","0.8","0.4","0.3504097904","0.122317004","0.4525069231","0.4029030639","","","","","","","","","","","","","","72","H","0","img/none_selected.jpg","","12","main_expt","",""
"","bandit","96","314234","0.0-54.0-0.0","76895159","wem/bandit_party_1","A3A8P4UR9A0DWQ","either","5","192","","","","","","","0","0","1","","0.4198147105","0.6","0.2","0.8","0.4","0.2787441393","0.1251711411","0.4485799753","0.4198147105","","","","","","","","","","","","","","76","L","3","","","13","main_expt","",""
"","bandit","97","316039","0.0-55.0-0.0","76895159","wem/bandit_party_1","A3A8P4UR9A0DWQ","either","5","291","","","","","","","0","0","1","","0.1380641988","0.6","0.2","0.8","0.4","0.2723245106","0.1380641988","0.4504049656","0.3761312174","","","","","","","","","","","","","","74","J","1","","","14","main_expt","",""
"","bandit","98","318005","0.0-56.0-0.0","76895159","wem/bandit_party_1","A3A8P4UR9A0DWQ","either","5","450","","","","","","","0","0","1","0.4281165459","","0.6","0.2","0.8","0.4","","","","","0.3687644442","0.2010812313","0.4281165459","0.4017507227","","","","","","","","","","75","K","2","","","15","main_expt","",""
"","bandit","99","319799","0.0-57.0-0.0","76895159","wem/bandit_party_1","A3A8P4UR9A0DWQ","either","5","280","","","","","","","1","0","0","0.4035101098","","0.6","0.2","0.8","0.4","","","","","0.3992289848","0.1747275657","0.4035101098","0.3859888637","","","","","","","","","","75","K","2","","","16","main_expt","",""
"","bandit","100","321633","0.0-58.0-0.0","76895159","wem/bandit_party_1","A3A8P4UR9A0DWQ","either","5","306","","","","","","","0","0","1","","0.3706978481","0.6","0.2","0.8","0.4","0.4067061876","0.1816524112","0.4063691663","0.3706978481","","","","","","","","","","","","","","76","L","3","","","17","main_expt","",""
"","bandit","101","323437","0.0-59.0-0.0","76895159","wem/bandit_party_1","A3A8P4UR9A0DWQ","either","5","277","","","","","","","0","0","1","0.4201618032","","0.6","0.2","0.8","0.4","","","","","0.3969002131","0.1700798448","0.4201618032","0.3323991027","","","","","","","","","","75","K","2","","","18","main_expt","",""
"","bandit","102","325343","0.0-60.0-0.0","76895159","wem/bandit_party_1","A3A8P4UR9A0DWQ","either","5","385","","","","","","","0","0","1","","0.1998500639","0.6","0.2","0.8","0.4","0.3930099592","0.1998500639","0.3868389751","0.3301718366","","","","","","","","","","","","","","74","J","1","","","19","main_expt","",""
"","bandit","103","327772","0.0-61.0-0.0","76895159","wem/bandit_party_1","A3A8P4UR9A0DWQ","either","5","906","","","","","","","0","0","1","","0.2418808817","0.6","0.2","0.8","0.4","0.3791602553","0.2418808817","0.3868875991","0.3714618997","","","","","","","","","","","","","","74","J","1","","","20","main_expt","",""
"","bandit","104","329668","0.0-62.0-0.0","76895159","wem/bandit_party_1","A3A8P4UR9A0DWQ","either","5","374","","","","","","","0","0","1","","0.4253770554","0.6","0.2","0.8","0.4","0.4127515201","0.2293341009","0.4253770554","0.3621694591","","","","","","","","","","","","","","75","K","2","","","21","main_expt","",""
"","bandit","105","331704","0.0-63.0-0.0","76895159","wem/bandit_party_1","A3A8P4UR9A0DWQ","either","5","510","","","","","","","0","0","1","0.4164833055","","0.6","0.2","0.8","0.4","","","","","0.4164833055","0.2074184163","0.4285762007","0.3648829928","","","","","","","","","","72","H","0","img/none_selected.jpg","","22","main_expt","",""
"","bandit","106","333352","0.0-64.0-0.0","76895159","wem/bandit_party_1","A3A8P4UR9A0DWQ","either","5","132","","","","","","","0","0","1","","0.4143027846","0.6","0.2","0.8","0.4","0.4143027846","0.1832507358","0.4082522222","0.2856994719","","","","","","","","","","","","","","72","H","0","img/none_selected.jpg","","23","main_expt","",""
"","bandit","107","335189","0.0-65.0-0.0","76895159","wem/bandit_party_1","A3A8P4UR9A0DWQ","either","5","291","","","","","","","0","0","1","","0.1469425149","0.6","0.2","0.8","0.4","0.3649270698","0.1469425149","0.4027270218","0.3152516524","","","","","","","","","","","","","","74","J","1","","","24","main_expt","",""
"","bandit","108","336998","0.0-66.0-0.0","76895159","wem/bandit_party_1","A3A8P4UR9A0DWQ","either","5","276","","","","","","","0","0","1","","0.102794739","0.6","0.2","0.8","0.4","0.392676409","0.102794739","0.4100212433","0.2778145345","","","","","","","","","","","","","","74","J","1","","","25","main_expt","",""
"","bandit","109","338769","0.0-67.0-0.0","76895159","wem/bandit_party_1","A3A8P4UR9A0DWQ","either","5","256","","","","","","","0","0","1","0.4190791169","","0.6","0.2","0.8","0.4","","","","","0.4031565401","0.1173732637","0.4190791169","0.3170506137","","","","","","","","","","75","K","2","","","26","main_expt","",""
"","bandit","110","340626","0.0-68.0-0.0","76895159","wem/bandit_party_1","A3A8P4UR9A0DWQ","either","5","339","","","","","","","1","0","0","0.4527212376","","0.6","0.2","0.8","0.4","","","","","0.4245959001","0.08835016803","0.4527212376","0.3223143746","","","","","","","","","","75","K","2","","","27","main_expt","",""
"","bandit","111","342486","0.0-69.0-0.0","76895159","wem/bandit_party_1","A3A8P4UR9A0DWQ","either","5","301","","","","","","","0","1","0","","0.3234472479","0.6","0.2","0.8","0.4","0.4232885055","0.1134440288","0.4480998813","0.3234472479","","","","","","","","","","","","","","76","L","3","","","28","main_expt","",""
"","bandit","112","344304","0.0-70.0-0.0","76895159","wem/bandit_party_1","A3A8P4UR9A0DWQ","either","5","301","","","","","","","0","0","1","","0.1982905849","0.6","0.2","0.8","0.4","0.4495512981","0.1982905849","0.4628669208","0.2881425904","","","","","","","","","","","","","","74","J","1","","","29","main_expt","",""
"","bandit","113","346046","0.0-71.0-0.0","76895159","wem/bandit_party_1","A3A8P4UR9A0DWQ","either","5","191","","","","","","","0","0","1","0.4565655028","","0.6","0.2","0.8","0.4","","","","","0.4485299892","0.2366655967","0.4565655028","0.2326555855","","","","","","","","","","75","K","2","","","30","main_expt","",""
"","bandit","114","347909","0.0-72.0-0.0","76895159","wem/bandit_party_1","A3A8P4UR9A0DWQ","either","5","347","","","","","","","0","0","1","0.4686031056","","0.6","0.2","0.8","0.4","","","","","0.4599237238","0.1622470467","0.4686031056","0.2364604256","","","","","","","","","","75","K","2","","","31","main_expt","",""
"","bandit","115","349763","0.0-73.0-0.0","76895159","wem/bandit_party_1","A3A8P4UR9A0DWQ","either","5","341","","","","","","","1","0","0","0.4659582456","","0.6","0.2","0.8","0.4","","","","","0.4508116693","0.1771911602","0.4659582456","0.2451982598","","","","","","","","","","75","K","2","","","32","main_expt","",""
"","bandit","116","351580","0.0-74.0-0.0","76895159","wem/bandit_party_1","A3A8P4UR9A0DWQ","either","5","300","","","","","","","0","0","1","0.4810757035","","0.6","0.2","0.8","0.4","","","","","0.45101727","0.1622836308","0.4810757035","0.2360369815","","","","","","","","","","75","K","2","","","33","main_expt","",""
"","bandit","117","353352","0.0-75.0-0.0","76895159","wem/bandit_party_1","A3A8P4UR9A0DWQ","either","5","256","","","","","","","1","0","0","0.4842727378","","0.6","0.2","0.8","0.4","","","","","0.4340174653","0.1655985557","0.4842727378","0.2317763892","","","","","","","","","","75","K","2","","","34","main_expt","",""
"","bandit","118","355198","0.0-76.0-0.0","76895159","wem/bandit_party_1","A3A8P4UR9A0DWQ","either","5","324","","","","","","","0","0","1","0.4745470136","","0.6","0.2","0.8","0.4","","","","","0.4040147441","0.1492797185","0.4745470136","0.2527891731","","","","","","","","","","75","K","2","","","35","main_expt","",""
"","bandit","119","357259","0.0-77.0-0.0","76895159","wem/bandit_party_1","A3A8P4UR9A0DWQ","either","5","534","","","","","","","0","0","1","0.4440965139","","0.6","0.2","0.8","0.4","","","","","0.4268829696","0.1504543003","0.4440965139","0.2641283143","","","","","","","","","","75","K","2","","","36","main_expt","",""
"","bandit","120","358793","0.0-78.0-0.0","76895159","wem/bandit_party_1","A3A8P4UR9A0DWQ","either","5","1","","","","","","","0","0","1","0.4544425755","","0.6","0.2","0.8","0.4","","","","","0.4562327564","0.1064249526","0.4544425755","0.2309310423","","","","","","","","","","75","K","2","","","37","main_expt","",""
"","bandit","121","360866","0.0-79.0-0.0","76895159","wem/bandit_party_1","A3A8P4UR9A0DWQ","either","5","519","","","","","","","0","0","1","0.4700138218","","0.6","0.2","0.8","0.4","","","","","0.4481627861","0.1346530267","0.4700138218","0.2093170459","","","","","","","","","","75","K","2","","","38","main_expt","",""
"","bandit","122","362700","0.0-80.0-0.0","76895159","wem/bandit_party_1","A3A8P4UR9A0DWQ","either","5","319","","","","","","","0","0","1","0.466948448","","0.6","0.2","0.8","0.4","","","","","0.4475890948","0.1303494481","0.466948448","0.1398625959","","","","","","","","","","75","K","2","","","39","main_expt","",""
"","bandit","123","364480","0.0-81.0-0.0","76895159","wem/bandit_party_1","A3A8P4UR9A0DWQ","either","5","263","","","","","","","0","0","1","0.4679256248","","0.6","0.2","0.8","0.4","","","","","0.4501575696","0.1492074344","0.4679256248","0.09690087606","","","","","","","","","","75","K","2","","","40","main_expt","",""
"","bandit","124","366332","0.0-82.0-0.0","76895159","wem/bandit_party_1","A3A8P4UR9A0DWQ","either","5","335","","","","","","","0","0","1","0.445537573","","0.6","0.2","0.8","0.4","","","","","0.4121884666","0.1370672299","0.445537573","0.1129569356","","","","","","","","","","75","K","2","","","41","main_expt","",""
"","bandit","125","368297","0.0-83.0-0.0","76895159","wem/bandit_party_1","A3A8P4UR9A0DWQ","either","5","444","","","","","","","0","0","1","","0.4521531226","0.6","0.2","0.8","0.4","0.4379939247","0.08144147181","0.4521531226","0.1227033228","","","","","","","","","","","","","","75","K","2","","","42","main_expt","",""
"","bandit","126","370263","0.0-84.0-0.0","76895159","wem/bandit_party_1","A3A8P4UR9A0DWQ","either","5","449","","","","","","","1","0","0","0.4695072217","","0.6","0.2","0.8","0.4","","","","","0.4271747655","0.06793865388","0.4695072217","0.08393287497","","","","","","","","","","75","K","2","","","43","main_expt","",""
"","bandit","127","372122","0.0-85.0-0.0","76895159","wem/bandit_party_1","A3A8P4UR9A0DWQ","either","5","339","","","","","","","1","0","0","0.4807409838","","0.6","0.2","0.8","0.4","","","","","0.4480494518","0.05295344446","0.4807409838","0.06260074275","","","","","","","","","","75","K","2","","","44","main_expt","",""
"","bandit","128","374037","0.0-86.0-0.0","76895159","wem/bandit_party_1","A3A8P4UR9A0DWQ","either","5","394","","","","","","","1","0","0","0.4507048108","","0.6","0.2","0.8","0.4","","","","","0.4269729589","0.02744239742","0.4507048108","0.08062123592","","","","","","","","","","75","K","2","","","45","main_expt","",""
"","bandit","129","375870","0.0-87.0-0.0","76895159","wem/bandit_party_1","A3A8P4UR9A0DWQ","either","5","301","","","","","","","0","0","1","0.4382321206","","0.6","0.2","0.8","0.4","","","","","0.4475746277","0.02347437243","0.4382321206","0.1110847749","","","","","","","","","","75","K","2","","","46","main_expt","",""
"","bandit","130","378102","0.0-88.0-0.0","76895159","wem/bandit_party_1","A3A8P4UR9A0DWQ","either","5","682","","","","","","","0","1","0","","0.4295618238","0.6","0.2","0.8","0.4","0.4295618238","0.02418160198","0.4393937913","0.05346849493","","","","","","","","","","","","","","72","H","0","img/none_selected.jpg","","47","main_expt","",""
"","bandit","131","379920","0.0-89.0-0.0","76895159","wem/bandit_party_1","A3A8P4UR9A0DWQ","either","5","299","","","","","","","0","0","1","","0.01182676654","0.6","0.2","0.8","0.4","0.4431907244","0.01182676654","0.440318131","0.04499733497","","","","","","","","","","","","","","74","J","1","","","48","main_expt","",""
"","bandit","132","381802","0.0-90.0-0.0","76895159","wem/bandit_party_1","A3A8P4UR9A0DWQ","either","5","365","","","","","","","0","0","1","0.4362102412","","0.6","0.2","0.8","0.4","","","","","0.4187732916","0.0186287842","0.4362102412","0.07378534534","","","","","","","","","","75","K","2","","","49","main_expt","",""
"","bandit","133","383764","0.0-91.0-0.0","76895159","wem/bandit_party_1","A3A8P4UR9A0DWQ","either","5","445","","","","","","","0","0","1","0.06168845619","","0.6","0.2","0.8","0.4","","","","","0.356579213","0.02550629551","0.44488671","0.06168845619","","","","","","","","","","76","L","3","","","50","main_expt","",""
"","bandit","134","385535","0.0-92.0-0.0","76895159","wem/bandit_party_1","A3A8P4UR9A0DWQ","either","5","254","","","","","","","0","0","1","","0.1062028567","0.6","0.2","0.8","0.4","0.2629404955","0.04366809707","0.4633405548","0.1062028567","","","","","","","","","","","","","","76","L","3","","","51","main_expt","",""
"","bandit","135","387328","0.0-93.0-0.0","76895159","wem/bandit_party_1","A3A8P4UR9A0DWQ","either","5","266","","","","","","","0","0","1","0.4528043762","","0.6","0.2","0.8","0.4","","","","","0.2919747068","0.04357168116","0.4528043762","0.1379608546","","","","","","","","","","75","K","2","","","52","main_expt","",""
"","bandit","136","389098","0.0-94.0-0.0","76895159","wem/bandit_party_1","A3A8P4UR9A0DWQ","either","5","252","","","","","","","0","0","1","","0.03899227154","0.6","0.2","0.8","0.4","0.3809901122","0.03899227154","0.4390431751","0.1356826849","","","","","","","","","","","","","","74","J","1","","","53","main_expt","",""
"","bandit","137","391104","0.0-95.0-0.0","76895159","wem/bandit_party_1","A3A8P4UR9A0DWQ","either","5","478","","","","","","","0","0","1","","0.04009146386","0.6","0.2","0.8","0.4","0.3452518694","0.04009146386","0.4549270822","0.1038772241","","","","","","","","","","","","","","74","J","1","","","54","main_expt","",""
"","bandit","138","392894","0.0-96.0-0.0","76895159","wem/bandit_party_1","A3A8P4UR9A0DWQ","either","5","275","","","","","","","1","0","0","0.3263112327","","0.6","0.2","0.8","0.4","","","","","0.3263112327","0.0155768565","0.4710341864","0.1689791829","","","","","","","","","","72","H","0","img/none_selected.jpg","","55","main_expt","",""
"","bandit","139","394721","0.0-97.0-0.0","76895159","wem/bandit_party_1","A3A8P4UR9A0DWQ","either","5","308","","","","","","","0","1","0","","0.3308963945","0.6","0.2","0.8","0.4","0.3308963945","0.02112461672","0.4745834276","0.1108888145","","","","","","","","","","","","","","72","H","0","img/none_selected.jpg","","56","main_expt","",""
"","bandit","140","396673","0.0-98.0-0.0","76895159","wem/bandit_party_1","A3A8P4UR9A0DWQ","either","5","346","","","","","","","0","0","1","0.3150326571","","0.6","0.2","0.8","0.4","","","","","0.3150326571","0.0126553198","0.489318572","0.1206542402","","","","","","","","","","72","H","0","img/none_selected.jpg","","57","main_expt","",""
"","bandit","141","398458","0.0-99.0-0.0","76895159","wem/bandit_party_1","A3A8P4UR9A0DWQ","either","5","268","","","","","","","0","1","0","","0.3049116772","0.6","0.2","0.8","0.4","0.3049116772","0.01131359515","0.480037986","0.09707343937","","","","","","","","","","","","","","72","H","0","img/none_selected.jpg","","58","main_expt","",""
"","bandit","142","400254","0.0-100.0-0.0","76895159","wem/bandit_party_1","A3A8P4UR9A0DWQ","either","5","277","","","","","","","1","0","0","0.4593461039","","0.6","0.2","0.8","0.4","","","","","0.3050987947","0.01030075821","0.4593461039","0.1044384952","","","","","","","","","","75","K","2","","","59","main_expt","",""
"","bandit","143","402071","0.0-101.0-0.0","76895159","wem/bandit_party_1","A3A8P4UR9A0DWQ","either","5","299","","","","","","","0","0","1","0.446051488","","0.6","0.2","0.8","0.4","","","","","0.3274009355","0.005868957973","0.446051488","0.08890369623","","","","","","","","","","75","K","2","","","60","main_expt","",""
"","bandit","144","403850","0.0-102.0-0.0","76895159","wem/bandit_party_1","A3A8P4UR9A0DWQ","either","5","262","","","","","","","1","0","0","0.4391285327","","0.6","0.2","0.8","0.4","","","","","0.3428943983","0.004361943215","0.4391285327","0.08921221942","","","","","","","","","","75","K","2","","","61","main_expt","",""
"","bandit","145","405663","0.0-103.0-0.0","76895159","wem/bandit_party_1","A3A8P4UR9A0DWQ","either","5","296","","","","","","","1","0","0","0.4063883723","","0.6","0.2","0.8","0.4","","","","","0.3549763931","0.005208412743","0.4063883723","0.09812025034","","","","","","","","","","75","K","2","","","62","main_expt","",""
"","bandit","146","407488","0.0-104.0-0.0","76895159","wem/bandit_party_1","A3A8P4UR9A0DWQ","either","5","310","","","","","","","0","0","1","0.4330387396","","0.6","0.2","0.8","0.4","","","","","0.3496678451","0.006461011255","0.4330387396","0.09006279409","","","","","","","","","","75","K","2","","","63","main_expt","",""
"","bandit","147","409582","0.0-105.0-0.0","76895159","wem/bandit_party_1","A3A8P4UR9A0DWQ","either","5","551","","","","","","","1","0","0","0.4207902426","","0.6","0.2","0.8","0.4","","","","","0.3188537263","0.01267926231","0.4207902426","0.1118976224","","","","","","","","","","75","K","2","","","64","main_expt","",""
"","bandit","148","411393","0.0-106.0-0.0","76895159","wem/bandit_party_1","A3A8P4UR9A0DWQ","either","5","294","","","","","","","0","0","1","","0.3719582347","0.6","0.2","0.8","0.4","0.3191795336","0.009732787917","0.3719582347","0.1053817613","","","","","","","","","","","","","","75","K","2","","","65","main_expt","",""
"","bandit","149","413210","0.0-107.0-0.0","76895159","wem/bandit_party_1","A3A8P4UR9A0DWQ","either","5","302","","","","","","","1","0","0","0.3748569955","","0.6","0.2","0.8","0.4","","","","","0.268616347","0.01092542651","0.3748569955","0.1307356695","","","","","","","","","","75","K","2","","","66","main_expt","",""
"","bandit","150","415103","0.0-108.0-0.0","76895159","wem/bandit_party_1","A3A8P4UR9A0DWQ","either","5","370","","","","","","","0","0","1","0.335252031","","0.6","0.2","0.8","0.4","","","","","0.259194563","0.02125534741","0.335252031","0.1418436428","","","","","","","","","","75","K","2","","","67","main_expt","",""
"","bandit","151","416885","0.0-109.0-0.0","76895159","wem/bandit_party_1","A3A8P4UR9A0DWQ","either","5","266","","","","","","","0","0","1","0.3199157278","","0.6","0.2","0.8","0.4","","","","","0.2281204868","0.02360283027","0.3199157278","0.1459089566","","","","","","","","","","75","K","2","","","68","main_expt","",""
"","bandit","152","418696","0.0-110.0-0.0","76895159","wem/bandit_party_1","A3A8P4UR9A0DWQ","either","5","292","","","","","","","0","0","1","0.3068525281","","0.6","0.2","0.8","0.4","","","","","0.2195844169","0.02539305756","0.3068525281","0.1809721424","","","","","","","","","","75","K","2","","","69","main_expt","",""
"","bandit","153","420540","0.0-111.0-0.0","76895159","wem/bandit_party_1","A3A8P4UR9A0DWQ","either","5","325","","","","","","","0","0","1","0.3181076016","","0.6","0.2","0.8","0.4","","","","","0.1883338509","0.05014388586","0.3181076016","0.1784068974","","","","","","","","","","75","K","2","","","70","main_expt","",""
"","bandit","154","422349","0.0-112.0-0.0","76895159","wem/bandit_party_1","A3A8P4UR9A0DWQ","either","5","287","","","","","","","0","0","1","","0.2926426422","0.6","0.2","0.8","0.4","0.1639708178","0.04209054697","0.2926426422","0.1973023396","","","","","","","","","","","","","","75","K","2","","","71","main_expt","",""
"","bandit","155","424119","0.0-113.0-0.0","76895159","wem/bandit_party_1","A3A8P4UR9A0DWQ","either","5","251","","","","","","","0","0","1","0.2380263643","","0.6","0.2","0.8","0.4","","","","","0.1312842785","0.05611199342","0.2380263643","0.2436342847","","","","","","","","","","75","K","2","","","72","main_expt","",""
"","bandit","156","425809","0.0-114.0-0.0","76895159","wem/bandit_party_1","A3A8P4UR9A0DWQ","either","5","170","","","","","","","1","0","0","0.2407197948","","0.6","0.2","0.8","0.4","","","","","0.1805041857","0.05293238473","0.2407197948","0.1992173182","","","","","","","","","","75","K","2","","","73","main_expt","",""
"","bandit","157","427520","0.0-115.0-0.0","76895159","wem/bandit_party_1","A3A8P4UR9A0DWQ","either","5","178","","","","","","","0","0","1","0.2317468449","","0.6","0.2","0.8","0.4","","","","","0.1739557812","0.0318456884","0.2317468449","0.2347098304","","","","","","","","","","75","K","2","","","74","main_expt","",""
"","bandit","158","429521","0.0-116.0-0.0","76895159","wem/bandit_party_1","A3A8P4UR9A0DWQ","either","5","481","","","","","","","0","0","1","0.2545997551","","0.6","0.2","0.8","0.4","","","","","0.2434916027","0.03873230677","0.2545997551","0.2641442137","","","","","","","","","","75","K","2","","","75","main_expt","",""
"","bandit","159","431860","0.0-117.0-0.0","76895159","wem/bandit_party_1","A3A8P4UR9A0DWQ","either","5","816","","","","","","","1","0","0","0.2890845388","","0.6","0.2","0.8","0.4","","","","","0.2438468568","0.03304947682","0.2890845388","0.3192644053","","","","","","","","","","75","K","2","","","76","main_expt","",""
"","bandit","160","435388","0.0-118.0-0.0","76895159","wem/bandit_party_1","A3A8P4UR9A0DWQ","either","5","1998","","","","","","","0","0","1","0.2386362654","","0.6","0.2","0.8","0.4","","","","","0.2425324642","0.02607887458","0.2386362654","0.3351132613","","","","","","","","","","75","K","2","","","77","main_expt","",""
"","bandit","161","437348","0.0-119.0-0.0","76895159","wem/bandit_party_1","A3A8P4UR9A0DWQ","either","5","444","","","","","","","0","0","1","0.2673679704","","0.6","0.2","0.8","0.4","","","","","0.205588479","0.02492981692","0.2673679704","0.3086784207","","","","","","","","","","75","K","2","","","78","main_expt","",""
"","bandit","162","439484","0.0-120.0-0.0","76895159","wem/bandit_party_1","A3A8P4UR9A0DWQ","either","5","618","","","","","","","0","0","1","","0.01824110002","0.6","0.2","0.8","0.4","0.213062191","0.01824110002","0.2813811921","0.3076482073","","","","","","","","","","","","","","74","J","1","","","79","main_expt","",""
"","bandit","163","442064","0.0-121.0-0.0","76895159","wem/bandit_party_1","A3A8P4UR9A0DWQ","either","5","1043","","","","","","","0","0","1","","0.0202176162","0.6","0.2","0.8","0.4","0.1852926048","0.0202176162","0.2419447949","0.3605025214","","","","","","","","","","","","","","74","J","1","","","80","main_expt","",""
"","bandit","164","444051","0.0-122.0-0.0","76895159","wem/bandit_party_1","A3A8P4UR9A0DWQ","either","5","469","","","","","","","0","0","1","","0.0252752587","0.6","0.2","0.8","0.4","0.2332942271","0.0252752587","0.323481111","0.3286166321","","","","","","","","","","","","","","74","J","1","","","81","main_expt","",""
"","bandit","165","447496","0.0-123.0-0.0","76895159","wem/bandit_party_1","A3A8P4UR9A0DWQ","either","5","1928","","","","","","","0","0","1","","0.05668457717","0.6","0.2","0.8","0.4","0.2087797338","0.05668457717","0.3097244961","0.3459677762","","","","","","","","","","","","","","74","J","1","","","82","main_expt","",""
"","bandit","166","449383","0.0-124.0-0.0","76895159","wem/bandit_party_1","A3A8P4UR9A0DWQ","either","5","368","","","","","","","0","0","1","0.2787498647","","0.6","0.2","0.8","0.4","","","","","0.2049979043","0.07760530004","0.2787498647","0.3092751195","","","","","","","","","","75","K","2","","","83","main_expt","",""
"","bandit","167","451561","0.0-125.0-0.0","76895159","wem/bandit_party_1","A3A8P4UR9A0DWQ","either","5","654","","","","","","","0","1","0","","0.3044630387","0.6","0.2","0.8","0.4","0.2151780091","0.03696005566","0.2589524449","0.3044630387","","","","","","","","","","","","","","76","L","3","","","84","main_expt","",""
"","bandit","168","454556","0.0-126.0-0.0","76895159","wem/bandit_party_1","A3A8P4UR9A0DWQ","either","5","1476","","","","","","","0","0","1","","0.2812480587","0.6","0.2","0.8","0.4","0.1497615914","0.04177257934","0.2769318636","0.2812480587","","","","","","","","","","","","","","76","L","3","","","85","main_expt","",""
"","bandit","169","457057","0.0-127.0-0.0","76895159","wem/bandit_party_1","A3A8P4UR9A0DWQ","either","5","984","","","","","","","0","0","1","","0.2506532223","0.6","0.2","0.8","0.4","0.1223687677","0.0385770192","0.2849222391","0.2506532223","","","","","","","","","","","","","","76","L","3","","","86","main_expt","",""
"","bandit","170","459539","0.0-128.0-0.0","76895159","wem/bandit_party_1","A3A8P4UR9A0DWQ","either","5","959","","","","","","","1","0","0","0.3131087309","","0.6","0.2","0.8","0.4","","","","","0.1472857413","0.03720252147","0.3131087309","0.2269900387","","","","","","","","","","75","K","2","","","87","main_expt","",""
"","bandit","171","463407","0.0-129.0-0.0","76895159","wem/bandit_party_1","A3A8P4UR9A0DWQ","either","5","2349","","","","","","","0","0","1","","0.1504729919","0.6","0.2","0.8","0.4","0.1252586248","0.06746059371","0.3038587512","0.1504729919","","","","","","","","","","","","","","76","L","3","","","88","main_expt","",""
"","bandit","172","466363","0.0-130.0-0.0","76895159","wem/bandit_party_1","A3A8P4UR9A0DWQ","either","5","1438","","","","","","","0","0","1","","0.3308022157","0.6","0.2","0.8","0.4","0.1194927994","0.04069757945","0.3308022157","0.1382070302","","","","","","","","","","","","","","75","K","2","","","89","main_expt","",""
"","bandit","173","468944","0.0-131.0-0.0","76895159","wem/bandit_party_1","A3A8P4UR9A0DWQ","either","5","1051","","","","","","","0","0","1","","0.1364765349","0.6","0.2","0.8","0.4","0.1589750007","0.07325379503","0.3574922351","0.1364765349","","","","","","","","","","","","","","76","L","3","","","90","main_expt","",""
"","bandit","174","472137","0.0-132.0-0.0","76895159","wem/bandit_party_1","A3A8P4UR9A0DWQ","either","5","1666","","","","","","","0","0","1","0.3729517688","","0.6","0.2","0.8","0.4","","","","","0.1859960426","0.06877471811","0.3729517688","0.09318196272","","","","","","","","","","75","K","2","","","91","main_expt","",""
"","bandit","175","475119","0.0-133.0-0.0","76895159","wem/bandit_party_1","A3A8P4UR9A0DWQ","either","5","1465","","","","","","","0","0","1","","0.398352994","0.6","0.2","0.8","0.4","0.192419488","0.04115987362","0.398352994","0.06946097624","","","","","","","","","","","","","","75","K","2","","","92","main_expt","",""
"","bandit","176","479243","0.0-134.0-0.0","76895159","wem/bandit_party_1","A3A8P4UR9A0DWQ","either","5","2605","","","","","","","0","1","0","","0.4135860398","0.6","0.2","0.8","0.4","0.1716033463","0.07078892783","0.4135860398","0.08102832817","","","","","","","","","","","","","","75","K","2","","","93","main_expt","",""
"","bandit","177","481583","0.0-135.0-0.0","76895159","wem/bandit_party_1","A3A8P4UR9A0DWQ","either","5","809","","","","","","","0","1","0","","0.3786880174","0.6","0.2","0.8","0.4","0.1935897604","0.05572868433","0.3786880174","0.1271360848","","","","","","","","","","","","","","75","K","2","","","94","main_expt","",""
"","bandit","178","484308","0.0-136.0-0.0","76895159","wem/bandit_party_1","A3A8P4UR9A0DWQ","either","5","1150","","","","","","","1","0","0","0.3823424718","","0.6","0.2","0.8","0.4","","","","","0.2193228015","0.05056929995","0.3823424718","0.1097592989","","","","","","","","","","75","K","2","","","95","main_expt","",""
"","bandit","179","486523","0.0-137.0-0.0","76895159","wem/bandit_party_1","A3A8P4UR9A0DWQ","either","5","692","","","","","","","1","0","0","0.3642725552","","0.6","0.2","0.8","0.4","","","","","0.3262643469","0.04159874267","0.3642725552","0.1085490834","","","","","","","","","","75","K","2","","","96","main_expt","",""
"","bandit","180","488330","0.0-138.0-0.0","76895159","wem/bandit_party_1","A3A8P4UR9A0DWQ","either","5","287","","","","","","","0","0","1","","0.3197717944","0.6","0.2","0.8","0.4","0.3207405496","0.03654451862","0.3197717944","0.1049812554","","","","","","","","","","","","","","75","K","2","","","97","main_expt","",""
"","bandit","181","490626","0.0-139.0-0.0","76895159","wem/bandit_party_1","A3A8P4UR9A0DWQ","either","5","778","","","","","","","0","0","1","0.2514424369","","0.6","0.2","0.8","0.4","","","","","0.3712856991","0.04190300095","0.2514424369","0.08177978443","","","","","","","","","","75","K","2","","","98","main_expt","",""
"","bandit","182","492454","0.0-140.0-0.0","76895159","wem/bandit_party_1","A3A8P4UR9A0DWQ","either","5","276","","","","","","","0","0","1","","0.08742990617","0.6","0.2","0.8","0.4","0.3740145378","0.08742990617","0.2926772137","0.07574087804","","","","","","","","","","","","","","74","J","1","","","99","main_expt","",""
"","bandit","183","495061","0.0-141.0-0.0","76895159","wem/bandit_party_1","A3A8P4UR9A0DWQ","either","5","1090","","","","","","","0","0","1","","0.08966523481","0.6","0.2","0.8","0.4","0.3776295542","0.08966523481","0.234485335","0.07829319678","","","","","","","","","","","","","","74","J","1","","","100","main_expt","",""
"","bandit","184","496603","0.0-142.0-0.0","76895159","wem/bandit_party_1","A3A8P4UR9A0DWQ","either","5","15","","","","","","","0","0","1","","0.07849065771","0.6","0.2","0.8","0.4","0.3592666398","0.07849065771","0.250352175","0.07919243683","","","","","","","","","","","","","","74","J","1","","","101","main_expt","",""
"","bandit","185","499853","0.0-143.0-0.0","76895159","wem/bandit_party_1","A3A8P4UR9A0DWQ","either","5","1703","","","","","","","0","0","1","0.2139972863","","0.6","0.2","0.8","0.4","","","","","0.3412191773","0.1054267613","0.2139972863","0.1052753188","","","","","","","","","","75","K","2","","","102","main_expt","",""
"","bandit","186","501875","0.0-144.0-0.0","76895159","wem/bandit_party_1","A3A8P4UR9A0DWQ","either","5","490","","","","","","","0","0","1","0.20092706","","0.6","0.2","0.8","0.4","","","","","0.3133100433","0.1120981937","0.20092706","0.1248526142","","","","","","","","","","75","K","2","","","103","main_expt","",""
"","bandit","187","505115","0.0-145.0-0.0","76895159","wem/bandit_party_1","A3A8P4UR9A0DWQ","either","5","1722","","","","","","","0","0","1","0.2305366804","","0.6","0.2","0.8","0.4","","","","","0.3219148419","0.1034740879","0.2305366804","0.142969925","","","","","","","","","","75","K","2","","","104","main_expt","",""
"","bandit","188","507180","0.0-146.0-0.0","76895159","wem/bandit_party_1","A3A8P4UR9A0DWQ","either","5","545","","","","","","","0","0","1","0.2102135581","","0.6","0.2","0.8","0.4","","","","","0.3300892518","0.07597240327","0.2102135581","0.13947254","","","","","","","","","","75","K","2","","","105","main_expt","",""
"","bandit","189","511037","0.0-147.0-0.0","76895159","wem/bandit_party_1","A3A8P4UR9A0DWQ","either","5","2310","","","","","","","0","0","1","0.2219457329","","0.6","0.2","0.8","0.4","","","","","0.3401839058","0.1124257427","0.2219457329","0.1329526997","","","","","","","","","","75","K","2","","","106","main_expt","",""
"","bandit","190","514290","0.0-148.0-0.0","76895159","wem/bandit_party_1","A3A8P4UR9A0DWQ","either","5","1733","","","","","","","0","0","1","","0.1133168519","0.6","0.2","0.8","0.4","0.3784706915","0.1133168519","0.3048423019","0.1727290233","","","","","","","","","","","","","","74","J","1","","","107","main_expt","",""
"","bandit","191","517370","0.0-149.0-0.0","76895159","wem/bandit_party_1","A3A8P4UR9A0DWQ","either","5","1560","","","","","","","0","0","1","","0.1752395656","0.6","0.2","0.8","0.4","0.3945753887","0.1752395656","0.258150515","0.1864487031","","","","","","","","","","","","","","74","J","1","","","108","main_expt","",""
"","bandit","192","526795","0.0-150.0-0.0","76895159","wem/bandit_party_1","A3A8P4UR9A0DWQ","either","5","7905","","","","","","","0","0","1","0.1859129148","","0.6","0.2","0.8","0.4","","","","","0.356827327","0.1862973424","0.1859129148","0.2463216238","","","","","","","","","","75","K","2","","","109","main_expt","",""
"","bandit","193","530396","0.0-151.0-0.0","76895159","wem/bandit_party_1","A3A8P4UR9A0DWQ","either","5","2077","","","","","","","0","0","1","","0.2015845776","0.6","0.2","0.8","0.4","0.2344179837","0.2015845776","0.1371624404","0.2431522628","","","","","","","","","","","","","","74","J","1","","","110","main_expt","",""
"","bandit","194","533018","0.0-152.0-0.0","76895159","wem/bandit_party_1","A3A8P4UR9A0DWQ","either","5","1080","","","","","","","0","1","0","","0.2003651753","0.6","0.2","0.8","0.4","0.2644823096","0.2003651753","0.1258232978","0.1757476643","","","","","","","","","","","","","","74","J","1","","","111","main_expt","",""
"","bandit","195","534656","0.0-153.0-0.0","76895159","wem/bandit_party_1","A3A8P4UR9A0DWQ","either","5","117","","","","","","","0","0","1","0.1529967373","","0.6","0.2","0.8","0.4","","","","","0.28311182","0.21392293","0.1529967373","0.2451518953","","","","","","","","","","75","K","2","","","112","main_expt","",""
"","bandit","196","537201","0.0-154.0-0.0","76895159","wem/bandit_party_1","A3A8P4UR9A0DWQ","either","5","1021","","","","","","","0","0","1","0.148248117","","0.6","0.2","0.8","0.4","","","","","0.2413269532","0.1606798039","0.148248117","0.2407836715","","","","","","","","","","75","K","2","","","113","main_expt","",""
"","bandit","197","539836","0.0-155.0-0.0","76895159","wem/bandit_party_1","A3A8P4UR9A0DWQ","either","5","1080","","","","","","","0","0","1","0.1562208239","","0.6","0.2","0.8","0.4","","","","","0.3100969134","0.2095980235","0.1562208239","0.3099317417","","","","","","","","","","75","K","2","","","114","main_expt","",""
"","bandit","198","542133","0.0-156.0-0.0","76895159","wem/bandit_party_1","A3A8P4UR9A0DWQ","either","5","775","","","","","","","0","1","0","","0.2138032898","0.6","0.2","0.8","0.4","0.329842252","0.2550279667","0.2138032898","0.3180754701","","","","","","","","","","","","","","75","K","2","","","115","main_expt","",""
"","bandit","199","543722","0.0-157.0-0.0","76895159","wem/bandit_party_1","A3A8P4UR9A0DWQ","either","5","69","","","","","","","0","0","1","0.2331260325","","0.6","0.2","0.8","0.4","","","","","0.3223706096","0.2471764387","0.2331260325","0.2919742107","","","","","","","","","","75","K","2","","","116","main_expt","",""
"","bandit","200","545723","0.0-158.0-0.0","76895159","wem/bandit_party_1","A3A8P4UR9A0DWQ","either","5","482","","","","","","","0","0","1","","0.2799774295","0.6","0.2","0.8","0.4","0.3098408215","0.2730878341","0.1826309729","0.2799774295","","","","","","","","","","","","","","76","L","3","","","117","main_expt","",""
"","bandit","201","547691","0.0-159.0-0.0","76895159","wem/bandit_party_1","A3A8P4UR9A0DWQ","either","5","366","","","","","","","0","0","1","","0.2071462199","0.6","0.2","0.8","0.4","0.2974554567","0.2071462199","0.1511269107","0.2646714695","","","","","","","","","","","","","","74","J","1","","","118","main_expt","",""
"","bandit","202","549449","0.0-160.0-0.0","76895159","wem/bandit_party_1","A3A8P4UR9A0DWQ","either","5","238","","","","","","","0","1","0","","0.2275232499","0.6","0.2","0.8","0.4","0.3598468986","0.2275232499","0.1559979654","0.3179839519","","","","","","","","","","","","","","74","J","1","","","119","main_expt","",""
"","bandit","203","553035","0.0-161.0-0.0","76895159","wem/bandit_party_1","A3A8P4UR9A0DWQ","either","5","2070","","","","","","","0","0","1","0.2767559596","","0.6","0.2","0.8","0.4","","","","","0.2984373086","0.2767559596","0.1463004055","0.3302262658","","","","","","","","","","74","J","1","","","120","main_expt","",""
"","bandit","204","556252","0.0-162.0-0.0","76895159","wem/bandit_party_1","A3A8P4UR9A0DWQ","either","5","1692","","","","","","","0","0","1","","0.1418195479","0.6","0.2","0.8","0.4","0.2973090059","0.3448590315","0.1418195479","0.3500549905","","","","","","","","","","","","","","75","K","2","","","121","main_expt","",""
"","bandit","205","561842","0.0-163.0-0.0","76895159","wem/bandit_party_1","A3A8P4UR9A0DWQ","either","5","4064","","","","","","","0","0","1","0.2686616284","","0.6","0.2","0.8","0.4","","","","","0.3382791822","0.3593301016","0.1270782113","0.2686616284","","","","","","","","","","76","L","3","","","122","main_expt","",""
"","bandit","206","563567","0.0-164.0-0.0","76895159","wem/bandit_party_1","A3A8P4UR9A0DWQ","either","5","188","","","","","","","0","0","1","0.1207154071","","0.6","0.2","0.8","0.4","","","","","0.3154347028","0.3680529171","0.1207154071","0.2277230314","","","","","","","","","","75","K","2","","","123","main_expt","",""
"","bandit","207","565664","0.0-165.0-0.0","76895159","wem/bandit_party_1","A3A8P4UR9A0DWQ","either","5","568","","","","","","","0","0","1","0.1229329119","","0.6","0.2","0.8","0.4","","","","","0.2966737815","0.3476523483","0.1229329119","0.3287090939","","","","","","","","","","75","K","2","","","124","main_expt","",""
"","bandit","208","567613","0.0-166.0-0.0","76895159","wem/bandit_party_1","A3A8P4UR9A0DWQ","either","5","379","","","","","","","0","1","0","","0.3564603465","0.6","0.2","0.8","0.4","0.3094831126","0.3564603465","0.09241122996","0.3687339586","","","","","","","","","","","","","","74","J","1","","","125","main_expt","",""
"","bandit","209","570213","0.0-167.0-0.0","76895159","wem/bandit_party_1","A3A8P4UR9A0DWQ","either","5","1082","","","","","","","0","0","1","0.08418962236","","0.6","0.2","0.8","0.4","","","","","0.2488993205","0.3550684458","0.08418962236","0.3836195774","","","","","","","","","","75","K","2","","","126","main_expt","",""
"","bandit","210","572708","0.0-168.0-0.0","76895159","wem/bandit_party_1","A3A8P4UR9A0DWQ","either","5","971","","","","","","","1","0","0","0.154715772","","0.6","0.2","0.8","0.4","","","","","0.1953487027","0.3235559827","0.154715772","0.3617365958","","","","","","","","","","75","K","2","","","127","main_expt","",""
"","bandit","211","575155","0.0-169.0-0.0","76895159","wem/bandit_party_1","A3A8P4UR9A0DWQ","either","5","893","","","","","","","0","0","1","","0.312087491","0.6","0.2","0.8","0.4","0.2171889907","0.312087491","0.1556709078","0.3235283493","","","","","","","","","","","","","","74","J","1","","","128","main_expt","",""
"","bandit","212","577129","0.0-170.0-0.0","76895159","wem/bandit_party_1","A3A8P4UR9A0DWQ","either","5","451","","","","","","","0","0","1","","0.1214200615","0.6","0.2","0.8","0.4","0.2467699801","0.2843272188","0.1214200615","0.3453830546","","","","","","","","","","","","","","75","K","2","","","129","main_expt","",""
"","bandit","213","579104","0.0-171.0-0.0","76895159","wem/bandit_party_1","A3A8P4UR9A0DWQ","either","5","405","","","","","","","0","0","1","0.1377283829","","0.6","0.2","0.8","0.4","","","","","0.2814443482","0.2128416856","0.1377283829","0.3242747857","","","","","","","","","","75","K","2","","","130","main_expt","",""
"","bandit","214","580973","0.0-172.0-0.0","76895159","wem/bandit_party_1","A3A8P4UR9A0DWQ","either","5","335","","","","","","","0","0","1","0.1397421628","","0.6","0.2","0.8","0.4","","","","","0.2834176508","0.2403879813","0.1397421628","0.3417201858","","","","","","","","","","75","K","2","","","131","main_expt","",""
"","bandit","215","583179","0.0-173.0-0.0","76895159","wem/bandit_party_1","A3A8P4UR9A0DWQ","either","5","655","","","","","","","1","0","0","0.2429908031","","0.6","0.2","0.8","0.4","","","","","0.2429908031","0.2811421594","0.1061875113","0.3498614837","","","","","","","","","","72","H","0","img/none_selected.jpg","","132","main_expt","",""
"","bandit","216","585094","0.0-174.0-0.0","76895159","wem/bandit_party_1","A3A8P4UR9A0DWQ","either","5","392","","","","","","","0","0","1","","0.3053559495","0.6","0.2","0.8","0.4","0.3053559495","0.3002858371","0.07774811701","0.3134828643","","","","","","","","","","","","","","72","H","0","img/none_selected.jpg","","133","main_expt","",""
"","bandit","217","586949","0.0-175.0-0.0","76895159","wem/bandit_party_1","A3A8P4UR9A0DWQ","either","5","336","","","","","","","0","0","1","","0.2693478067","0.6","0.2","0.8","0.4","0.2693478067","0.277406375","0.08211281178","0.3554593188","","","","","","","","","","","","","","72","H","0","img/none_selected.jpg","","134","main_expt","",""
"","bandit","218","588845","0.0-176.0-0.0","76895159","wem/bandit_party_1","A3A8P4UR9A0DWQ","either","5","375","","","","","","","1","0","0","0.3369166079","","0.6","0.2","0.8","0.4","","","","","0.3369166079","0.2897147582","0.1123817552","0.3150900126","","","","","","","","","","72","H","0","img/none_selected.jpg","","135","main_expt","",""
"","bandit","219","590656","0.0-177.0-0.0","76895159","wem/bandit_party_1","A3A8P4UR9A0DWQ","either","5","292","","","","","","","0","0","1","","0.268603144","0.6","0.2","0.8","0.4","0.268603144","0.3590576628","0.1478339482","0.3199395785","","","","","","","","","","","","","","72","H","0","img/none_selected.jpg","","136","main_expt","",""
"","bandit","220","592516","0.0-178.0-0.0","76895159","wem/bandit_party_1","A3A8P4UR9A0DWQ","either","5","336","","","","","","","0","0","1","","0.2373427956","0.6","0.2","0.8","0.4","0.2373427956","0.3822427384","0.1374936615","0.33362357","","","","","","","","","","","","","","72","H","0","img/none_selected.jpg","","137","main_expt","",""
"","bandit","221","594289","0.0-179.0-0.0","76895159","wem/bandit_party_1","A3A8P4UR9A0DWQ","either","5","254","","","","","","","0","0","1","","0.2206869265","0.6","0.2","0.8","0.4","0.2206869265","0.3410071165","0.159761955","0.3611324022","","","","","","","","","","","","","","72","H","0","img/none_selected.jpg","","138","main_expt","",""
"","bandit","222","596087","0.0-180.0-0.0","76895159","wem/bandit_party_1","A3A8P4UR9A0DWQ","either","5","273","","","","","","","0","0","1","","0.2177966349","0.6","0.2","0.8","0.4","0.2177966349","0.3738014659","0.1363721132","0.3504145086","","","","","","","","","","","","","","72","H","0","img/none_selected.jpg","","139","main_expt","",""
"","bandit","223","597922","0.0-181.0-0.0","76895159","wem/bandit_party_1","A3A8P4UR9A0DWQ","either","5","304","","","","","","","0","0","1","0.2387685432","","0.6","0.2","0.8","0.4","","","","","0.2387685432","0.422575493","0.1031445192","0.309774603","","","","","","","","","","72","H","0","img/none_selected.jpg","","140","main_expt","",""
"","bandit","224","599774","0.0-182.0-0.0","76895159","wem/bandit_party_1","A3A8P4UR9A0DWQ","either","5","314","","","","","","","0","0","1","0.2575087366","","0.6","0.2","0.8","0.4","","","","","0.2575087366","0.4439129864","0.09805286369","0.3506531288","","","","","","","","","","72","H","0","img/none_selected.jpg","","141","main_expt","",""
"","bandit","225","601610","0.0-183.0-0.0","76895159","wem/bandit_party_1","A3A8P4UR9A0DWQ","either","5","304","","","","","","","0","0","1","0.2392038972","","0.6","0.2","0.8","0.4","","","","","0.2392038972","0.4323802182","0.1149002948","0.2965027242","","","","","","","","","","72","H","0","img/none_selected.jpg","","142","main_expt","",""
"","bandit","226","603452","0.0-184.0-0.0","76895159","wem/bandit_party_1","A3A8P4UR9A0DWQ","either","5","320","","","","","","","0","0","1","0.4358412593","","0.6","0.2","0.8","0.4","","","","","0.2216470548","0.4358412593","0.1209542099","0.2087517366","","","","","","","","","","74","J","1","","","143","main_expt","",""
"","bandit","227","605322","0.0-185.0-0.0","76895159","wem/bandit_party_1","A3A8P4UR9A0DWQ","either","5","342","","","","","","","0","0","1","","0.4407373256","0.6","0.2","0.8","0.4","0.2224896139","0.4407373256","0.1202521083","0.2313605626","","","","","","","","","","","","","","74","J","1","","","144","main_expt","",""
"","bandit","228","608199","0.0-186.0-0.0","76895159","wem/bandit_party_1","A3A8P4UR9A0DWQ","either","5","1358","","","","","","","0","0","1","0.1785565547","","0.6","0.2","0.8","0.4","","","","","0.1925605464","0.4661091035","0.1619743669","0.1785565547","","","","","","","","","","76","L","3","","","145","main_expt","",""
"","bandit","229","610033","0.0-187.0-0.0","76895159","wem/bandit_party_1","A3A8P4UR9A0DWQ","either","5","318","","","","","","","0","1","0","","0.1664631043","0.6","0.2","0.8","0.4","0.2069800611","0.4637097668","0.1664631043","0.1770660648","","","","","","","","","","","","","","75","K","2","","","146","main_expt","",""
"","bandit","230","611755","0.0-188.0-0.0","76895159","wem/bandit_party_1","A3A8P4UR9A0DWQ","either","5","200","","","","","","","0","1","0","","0.1669241763","0.6","0.2","0.8","0.4","0.2489662189","0.4700491642","0.1669241763","0.1063371611","","","","","","","","","","","","","","75","K","2","","","147","main_expt","",""
"","bandit","231","613796","0.0-189.0-0.0","76895159","wem/bandit_party_1","A3A8P4UR9A0DWQ","either","5","522","","","","","","","0","0","1","0.1946464158","","0.6","0.2","0.8","0.4","","","","","0.1946464158","0.4648109734","0.1581456949","0.1216370817","","","","","","","","","","72","H","0","img/none_selected.jpg","","148","main_expt","",""
"","bandit","232","615906","0.0-190.0-0.0","76895159","wem/bandit_party_1","A3A8P4UR9A0DWQ","either","5","588","","","","","","","0","0","1","0.1826562491","","0.6","0.2","0.8","0.4","","","","","0.1826562491","0.4635511513","0.1698392466","0.1024256959","","","","","","","","","","72","H","0","img/none_selected.jpg","","149","main_expt","",""
"","bandit","233","618062","0.0-191.0-0.0","76895159","wem/bandit_party_1","A3A8P4UR9A0DWQ","either","5","638","","","","","","","0","0","1","","0.1750473563","0.6","0.2","0.8","0.4","0.1750473563","0.4445017148","0.2140114634","0.1371094633","","","","","","","","","","","","","","72","H","0","img/none_selected.jpg","","150","main_expt","",""
"","bandit","234","621725","0.0-192.0-0.0","76895159","wem/bandit_party_1","A3A8P4UR9A0DWQ","either","5","2140","","","","","","","0","0","1","0.1109536645","","0.6","0.2","0.8","0.4","","","","","0.1109536645","0.4434799742","0.2392960001","0.1702433702","","","","","","","","","","72","H","0","img/none_selected.jpg","","151","main_expt","",""
"","bandit","235","624063","0.0-193.0-0.0","76895159","wem/bandit_party_1","A3A8P4UR9A0DWQ","either","5","818","","","","","","","0","0","1","0.1143086707","","0.6","0.2","0.8","0.4","","","","","0.1143086707","0.4451665291","0.2095863317","0.1860489046","","","","","","","","","","72","H","0","img/none_selected.jpg","","152","main_expt","",""
"","bandit","236","626797","0.0-194.0-0.0","76895159","wem/bandit_party_1","A3A8P4UR9A0DWQ","either","5","1150","","","","","","","0","0","1","","0.1236290712","0.6","0.2","0.8","0.4","0.1236290712","0.4401532833","0.2543258611","0.2117094388","","","","","","","","","","","","","","72","H","0","img/none_selected.jpg","","153","main_expt","",""
"","bandit","237","629762","0.0-195.0-0.0","76895159","wem/bandit_party_1","A3A8P4UR9A0DWQ","either","5","1383","","","","","","","0","0","1","","0.1600695342","0.6","0.2","0.8","0.4","0.1600695342","0.4516855879","0.2602259906","0.2072389033","","","","","","","","","","","","","","72","H","0","img/none_selected.jpg","","154","main_expt","",""
"","bandit","238","631877","0.0-196.0-0.0","76895159","wem/bandit_party_1","A3A8P4UR9A0DWQ","either","5","590","","","","","","","0","0","1","0.1770288166","","0.6","0.2","0.8","0.4","","","","","0.1770288166","0.4480264808","0.2750581274","0.1986333914","","","","","","","","","","72","H","0","img/none_selected.jpg","","155","main_expt","",""
"","bandit","239","636297","0.0-197.0-0.0","76895159","wem/bandit_party_1","A3A8P4UR9A0DWQ","either","5","2836","","","","","","","0","0","1","0.1761817894","","0.6","0.2","0.8","0.4","","","","","0.1761817894","0.4260414265","0.2438045727","0.2054640346","","","","","","","","","","72","H","0","img/none_selected.jpg","","156","main_expt","",""
"","bandit","240","639459","0.0-198.0-0.0","76895159","wem/bandit_party_1","A3A8P4UR9A0DWQ","either","5","1619","","","","","","","0","0","1","","0.1998830888","0.6","0.2","0.8","0.4","0.1998830888","0.4365201507","0.2857025143","0.1810715383","","","","","","","","","","","","","","72","H","0","img/none_selected.jpg","","157","main_expt","",""
"","bandit","241","642128","0.0-199.0-0.0","76895159","wem/bandit_party_1","A3A8P4UR9A0DWQ","either","5","1148","","","","","","","0","0","1","","0.2150354531","0.6","0.2","0.8","0.4","0.2150354531","0.4076244479","0.2887719476","0.2118906364","","","","","","","","","","","","","","72","H","0","img/none_selected.jpg","","158","main_expt","",""
"","bandit","242","646477","0.0-200.0-0.0","76895159","wem/bandit_party_1","A3A8P4UR9A0DWQ","either","5","2829","","","","","","","1","0","0","0.2221069796","","0.6","0.2","0.8","0.4","","","","","0.2221069796","0.403953851","0.2859462397","0.2293976715","","","","","","","","","","72","H","0","img/none_selected.jpg","","159","main_expt","",""
"","bandit","243","651105","0.0-201.0-0.0","76895159","wem/bandit_party_1","A3A8P4UR9A0DWQ","either","5","3111","","","","","","","0","0","1","0.2627335039","","0.6","0.2","0.8","0.4","","","","","0.2627335039","0.4282135537","0.207432816","0.2186051381","","","","","","","","","","72","H","0","img/none_selected.jpg","","160","main_expt","",""
"","bandit","244","653489","0.0-202.0-0.0","76895159","wem/bandit_party_1","A3A8P4UR9A0DWQ","either","5","860","","","","","","","0","0","1","0.2922457848","","0.6","0.2","0.8","0.4","","","","","0.2922457848","0.4479073124","0.1611694724","0.2175927206","","","","","","","","","","72","H","0","img/none_selected.jpg","","161","main_expt","",""
"","bandit","245","656824","0.0-203.0-0.0","76895159","wem/bandit_party_1","A3A8P4UR9A0DWQ","either","5","1816","","","","","","","0","1","0","","0.3040212123","0.6","0.2","0.8","0.4","0.3040212123","0.4456201243","0.14378348","0.2370404117","","","","","","","","","","","","","","72","H","0","img/none_selected.jpg","","162","main_expt","",""
"","bandit","246","658499","0.0-204.0-0.0","76895159","wem/bandit_party_1","A3A8P4UR9A0DWQ","either","5","155","","","","","","","0","1","0","","0.2778780432","0.6","0.2","0.8","0.4","0.2933359027","0.4384930657","0.1707099899","0.2778780432","","","","","","","","","","","","","","76","L","3","","","163","main_expt","",""
"","bandit","247","660163","0.0-205.0-0.0","76895159","wem/bandit_party_1","A3A8P4UR9A0DWQ","either","5","143","","","","","","","0","0","1","0.1933693166","","0.6","0.2","0.8","0.4","","","","","0.2388203062","0.4231568034","0.1933693166","0.2643388611","","","","","","","","","","75","K","2","","","164","main_expt","",""
"","bandit","248","661755","0.0-206.0-0.0","76895159","wem/bandit_party_1","A3A8P4UR9A0DWQ","either","5","68","","","","","","","0","1","0","","0.4412535734","0.6","0.2","0.8","0.4","0.2646204916","0.4412535734","0.2406324952","0.1967204453","","","","","","","","","","","","","","74","J","1","","","165","main_expt","",""
"","bandit","249","663866","0.0-207.0-0.0","76895159","wem/bandit_party_1","A3A8P4UR9A0DWQ","either","5","512","","","","","","","1","0","0","0.2650462377","","0.6","0.2","0.8","0.4","","","","","0.2591758032","0.438364003","0.2650462377","0.1567937345","","","","","","","","","","75","K","2","","","166","main_expt","",""
"","bandit","250","666074","0.0-208.0-0.0","76895159","wem/bandit_party_1","A3A8P4UR9A0DWQ","either","5","660","","","","","","","0","0","1","0.245875583","","0.6","0.2","0.8","0.4","","","","","0.1955934818","0.4290991351","0.245875583","0.1201482918","","","","","","","","","","75","K","2","","","167","main_expt","",""
"","bandit","251","668124","0.0-209.0-0.0","76895159","wem/bandit_party_1","A3A8P4UR9A0DWQ","either","5","528","","","","","","","0","0","1","0.257303599","","0.6","0.2","0.8","0.4","","","","","0.2090603634","0.4510860662","0.257303599","0.0936051119","","","","","","","","","","75","K","2","","","168","main_expt","",""
"","bandit","252","671217","0.0-210.0-0.0","76895159","wem/bandit_party_1","A3A8P4UR9A0DWQ","either","5","1573","","","","","","","0","0","1","0.2993732043","","0.6","0.2","0.8","0.4","","","","","0.2678479696","0.4491424364","0.2993732043","0.08775096918","","","","","","","","","","75","K","2","","","169","main_expt","",""
"","bandit","253","673507","0.0-211.0-0.0","76895159","wem/bandit_party_1","A3A8P4UR9A0DWQ","either","5","770","","","","","","","1","0","0","0.3388977639","","0.6","0.2","0.8","0.4","","","","","0.2532125956","0.4332244901","0.3388977639","0.06743429675","","","","","","","","","","75","K","2","","","170","main_expt","",""
"","bandit","254","676128","0.0-212.0-0.0","76895159","wem/bandit_party_1","A3A8P4UR9A0DWQ","either","5","1039","","","","","","","0","0","1","0.2947926635","","0.6","0.2","0.8","0.4","","","","","0.2568627054","0.4405036994","0.2947926635","0.05979118822","","","","","","","","","","75","K","2","","","171","main_expt","",""
"","bandit","255","678509","0.0-213.0-0.0","76895159","wem/bandit_party_1","A3A8P4UR9A0DWQ","either","5","859","","","","","","","0","0","1","","0.2892529657","0.6","0.2","0.8","0.4","0.2451563353","0.4358521759","0.2892529657","0.03200499914","","","","","","","","","","","","","","75","K","2","","","172","main_expt","",""
"","bandit","256","680678","0.0-214.0-0.0","76895159","wem/bandit_party_1","A3A8P4UR9A0DWQ","either","5","645","","","","","","","0","0","1","0.2571917514","","0.6","0.2","0.8","0.4","","","","","0.3003395367","0.4471617722","0.2571917514","0.04613358223","","","","","","","","","","75","K","2","","","173","main_expt","",""
"","bandit","257","682894","0.0-215.0-0.0","76895159","wem/bandit_party_1","A3A8P4UR9A0DWQ","either","5","684","","","","","","","0","0","1","0.244173221","","0.6","0.2","0.8","0.4","","","","","0.2545998681","0.4560251174","0.244173221","0.05969677181","","","","","","","","","","75","K","2","","","174","main_expt","",""
"","bandit","258","684863","0.0-216.0-0.0","76895159","wem/bandit_party_1","A3A8P4UR9A0DWQ","either","5","422","","","","","","","1","0","0","0.2038098688","","0.6","0.2","0.8","0.4","","","","","0.3383135611","0.4379349024","0.2038098688","0.05930066603","","","","","","","","","","75","K","2","","","175","main_expt","",""
"","bandit","259","687500","0.0-217.0-0.0","76895159","wem/bandit_party_1","A3A8P4UR9A0DWQ","either","5","1078","","","","","","","0","0","1","","0.2053823003","0.6","0.2","0.8","0.4","0.3880627729","0.4328841116","0.2053823003","0.08110879181","","","","","","","","","","","","","","75","K","2","","","176","main_expt","",""
"","bandit","260","690067","0.0-218.0-0.0","76895159","wem/bandit_party_1","A3A8P4UR9A0DWQ","either","5","1034","","","","","","","0","0","1","0.07611568943","","0.6","0.2","0.8","0.4","","","","","0.3920994557","0.3965365967","0.2193083282","0.07611568943","","","","","","","","","","76","L","3","","","177","main_expt","",""
"","bandit","261","692322","0.0-219.0-0.0","76895159","wem/bandit_party_1","A3A8P4UR9A0DWQ","either","5","717","","","","","","","0","0","1","","0.3899234309","0.6","0.2","0.8","0.4","0.3882277994","0.3899234309","0.1904263594","0.1220467165","","","","","","","","","","","","","","74","J","1","","","178","main_expt","",""
"","bandit","262","695131","0.0-220.0-0.0","76895159","wem/bandit_party_1","A3A8P4UR9A0DWQ","either","5","1276","","","","","","","0","1","0","","0.4238443777","0.6","0.2","0.8","0.4","0.3939691408","0.4238443777","0.2212788648","0.1698853315","","","","","","","","","","","","","","74","J","1","","","179","main_expt","",""
"","bandit","263","698822","0.0-221.0-0.0","76895159","wem/bandit_party_1","A3A8P4UR9A0DWQ","either","5","2170","","","","","","","0","0","1","","0.1374762061","0.6","0.2","0.8","0.4","0.4074656662","0.4487400994","0.2640717145","0.1374762061","","","","","","","","","","","","","","76","L","3","","","180","main_expt","",""
"","bandit","264","701113","0.0-222.0-0.0","76895159","wem/bandit_party_1","A3A8P4UR9A0DWQ","either","5","770","","","","","","","0","0","1","","0.09961924189","0.6","0.2","0.8","0.4","0.3724421945","0.4314573438","0.2426483564","0.09961924189","","","","","","","","","","","","","","76","L","3","","","181","main_expt","",""
"","bandit","265","702795","0.0-223.0-0.0","76895159","wem/bandit_party_1","A3A8P4UR9A0DWQ","either","5","160","","","","","","","0","1","0","","0.1391043194","0.6","0.2","0.8","0.4","0.2998177931","0.4458059303","0.2001563476","0.1391043194","","","","","","","","","","","","","","76","L","3","","","182","main_expt","",""
"","bandit","266","705324","0.0-224.0-0.0","76895159","wem/bandit_party_1","A3A8P4UR9A0DWQ","either","5","1008","","","","","","","0","0","1","0.2167094124","","0.6","0.2","0.8","0.4","","","","","0.3629728763","0.4485460149","0.2167094124","0.1336424596","","","","","","","","","","75","K","2","","","183","main_expt","",""
"","bandit","267","708266","0.0-225.0-0.0","76895159","wem/bandit_party_1","A3A8P4UR9A0DWQ","either","5","1401","","","","","","","0","0","1","0.2402813617","","0.6","0.2","0.8","0.4","","","","","0.3763603645","0.4078350507","0.2402813617","0.115911235","","","","","","","","","","75","K","2","","","184","main_expt","",""
"","bandit","268","713284","0.0-226.0-0.0","76895159","wem/bandit_party_1","A3A8P4UR9A0DWQ","either","5","3494","","","","","","","0","0","1","","0.1394203739","0.6","0.2","0.8","0.4","0.3472982705","0.3805788675","0.2745112141","0.1394203739","","","","","","","","","","","","","","76","L","3","","","185","main_expt","",""
"","bandit","269","715730","0.0-227.0-0.0","76895159","wem/bandit_party_1","A3A8P4UR9A0DWQ","either","5","912","","","","","","","0","0","1","","0.2774566956","0.6","0.2","0.8","0.4","0.3095995051","0.4236809331","0.2774566956","0.1557479742","","","","","","","","","","","","","","75","K","2","","","186","main_expt","",""
"","bandit","270","718695","0.0-228.0-0.0","76895159","wem/bandit_party_1","A3A8P4UR9A0DWQ","either","5","1428","","","","","","","1","0","0","0.2876011691","","0.6","0.2","0.8","0.4","","","","","0.2567332284","0.4058627081","0.2876011691","0.1823611596","","","","","","","","","","75","K","2","","","187","main_expt","",""
"","bandit","271","721671","0.0-229.0-0.0","76895159","wem/bandit_party_1","A3A8P4UR9A0DWQ","either","5","1453","","","","","","","0","0","1","","0.1854179297","0.6","0.2","0.8","0.4","0.2555256861","0.3913346521","0.2947112378","0.1854179297","","","","","","","","","","","","","","76","L","3","","","188","main_expt","",""
"","bandit","272","725219","0.0-230.0-0.0","76895159","wem/bandit_party_1","A3A8P4UR9A0DWQ","either","5","2027","","","","","","","1","0","0","0.1875645599","","0.6","0.2","0.8","0.4","","","","","0.2009875262","0.3760164219","0.2581494","0.1875645599","","","","","","","","","","76","L","3","","","189","main_expt","",""
"","bandit","273","729660","0.0-231.0-0.0","76895159","wem/bandit_party_1","A3A8P4UR9A0DWQ","either","5","2915","","","","","","","0","0","1","","0.2018323604","0.6","0.2","0.8","0.4","0.2055488595","0.3327352817","0.1756323468","0.2018323604","","","","","","","","","","","","","","76","L","3","","","190","main_expt","",""
"","bandit","274","733305","0.0-232.0-0.0","76895159","wem/bandit_party_1","A3A8P4UR9A0DWQ","either","5","2122","","","","","","","0","0","1","0.2521570866","","0.6","0.2","0.8","0.4","","","","","0.1506387864","0.3015177445","0.2521570866","0.221094727","","","","","","","","","","75","K","2","","","191","main_expt","",""
"","bandit","275","740237","0.0-233.0-0.0","76895159","wem/bandit_party_1","A3A8P4UR9A0DWQ","either","5","5357","","","","","","","0","0","1","0.2964739449","","0.6","0.2","0.8","0.4","","","","","0.2027442266","0.2773298268","0.2964739449","0.2320570195","","","","","","","","","","75","K","2","","","192","main_expt","",""
"","bandit","276","741765","0.0-234.0-0.0","76895159","wem/bandit_party_1","A3A8P4UR9A0DWQ","either","5","1","","","","","","","0","0","1","","0.2612966838","0.6","0.2","0.8","0.4","0.1969137872","0.2836613797","0.2612966838","0.2948950962","","","","","","","","","","","","","","75","K","2","","","193","main_expt","",""
"","bandit","277","743671","0.0-235.0-0.0","76895159","wem/bandit_party_1","A3A8P4UR9A0DWQ","either","5","376","","","","","","","0","0","1","0.2602906927","","0.6","0.2","0.8","0.4","","","","","0.2114994946","0.2799350415","0.3292914436","0.2602906927","","","","","","","","","","76","L","3","","","194","main_expt","",""
"","bandit","278","745838","0.0-236.0-0.0","76895159","wem/bandit_party_1","A3A8P4UR9A0DWQ","either","5","644","","","","","","","0","0","1","0.1771499101","","0.6","0.2","0.8","0.4","","","","","0.2467939011","0.2068597772","0.4070308407","0.1771499101","","","","","","","","","","76","L","3","","","195","main_expt","",""
"","bandit","279","747778","0.0-237.0-0.0","76895159","wem/bandit_party_1","A3A8P4UR9A0DWQ","either","5","396","","","","","","","0","0","1","","0.2679469531","0.6","0.2","0.8","0.4","0.2731811988","0.2679469531","0.3494820729","0.1746274925","","","","","","","","","","","","","","74","J","1","","","196","main_expt","",""
"","bandit","280","749944","0.0-238.0-0.0","76895159","wem/bandit_party_1","A3A8P4UR9A0DWQ","either","5","643","","","","","","","1","0","0","0.2448078588","","0.6","0.2","0.8","0.4","","","","","0.2512114903","0.2448078588","0.3571939809","0.193224684","","","","","","","","","","74","J","1","","","197","main_expt","",""
"","bandit","281","752056","0.0-239.0-0.0","76895159","wem/bandit_party_1","A3A8P4UR9A0DWQ","either","5","586","","","","","","","0","0","1","","0.2433987968","0.6","0.2","0.8","0.4","0.190651112","0.2433987968","0.382430028","0.1771509929","","","","","","","","","","","","","","74","J","1","","","198","main_expt","",""
"","bandit","282","754608","0.0-240.0-0.0","76895159","wem/bandit_party_1","A3A8P4UR9A0DWQ","either","5","1015","","","","","","","1","0","0","0.2466668772","","0.6","0.2","0.8","0.4","","","","","0.1701189695","0.2653624242","0.3353474301","0.2466668772","","","","","","","","","","76","L","3","","","199","main_expt","",""
"","bandit","283","758167","0.0-241.0-0.0","76895159","wem/bandit_party_1","A3A8P4UR9A0DWQ","either","5","2022","","","","","","","0","0","1","","0.2477816141","0.6","0.2","0.8","0.4","0.1656975488","0.2551376492","0.3321976498","0.2477816141","","","","","","","","","","","","","","76","L","3","","","200","main_expt","",""
"","bandit","284","761840","0.0-242.0-0.0","76895159","wem/bandit_party_1","A3A8P4UR9A0DWQ","either","5","2149","","","","","","","0","0","1","","0.2744817861","0.6","0.2","0.8","0.4","0.1647298582","0.2660639347","0.3218117355","0.2744817861","","","","","","","","","","","","","","76","L","3","","","201","main_expt","",""
"","bandit","285","764546","0.0-243.0-0.0","76895159","wem/bandit_party_1","A3A8P4UR9A0DWQ","either","5","1182","","","","","","","1","0","0","0.2949214693","","0.6","0.2","0.8","0.4","","","","","0.1242041815","0.2220900594","0.2949214693","0.3043062986","","","","","","","","","","75","K","2","","","202","main_expt","",""
"","bandit","286","767852","0.0-244.0-0.0","76895159","wem/bandit_party_1","A3A8P4UR9A0DWQ","either","5","1785","","","","","","","0","0","1","","0.272185569","0.6","0.2","0.8","0.4","0.1684487429","0.1543353204","0.300077299","0.272185569","","","","","","","","","","","","","","76","L","3","","","203","main_expt","",""
"","bandit","287","770841","0.0-245.0-0.0","76895159","wem/bandit_party_1","A3A8P4UR9A0DWQ","either","5","1464","","","","","","","0","0","1","","0.1605482003","0.6","0.2","0.8","0.4","0.1666409686","0.1605482003","0.2866085977","0.2610767704","","","","","","","","","","","","","","74","J","1","","","204","main_expt","",""
"","bandit","288","773112","0.0-246.0-0.0","76895159","wem/bandit_party_1","A3A8P4UR9A0DWQ","either","5","751","","","","","","","0","0","1","","0.1406914754","0.6","0.2","0.8","0.4","0.2197286508","0.1406914754","0.2695546272","0.2832615928","","","","","","","","","","","","","","74","J","1","","","205","main_expt","",""
"","bandit","289","775342","0.0-247.0-0.0","76895159","wem/bandit_party_1","A3A8P4UR9A0DWQ","either","5","680","","","","","","","0","0","1","","0.1138947463","0.6","0.2","0.8","0.4","0.2754509052","0.1138947463","0.2622178416","0.300913322","","","","","","","","","","","","","","74","J","1","","","206","main_expt","",""
"","bandit","290","778981","0.0-248.0-0.0","76895159","wem/bandit_party_1","A3A8P4UR9A0DWQ","either","5","2092","","","","","","","0","1","0","","0.3260258847","0.6","0.2","0.8","0.4","0.2664869377","0.1096702189","0.2498186578","0.3260258847","","","","","","","","","","","","","","76","L","3","","","207","main_expt","",""
"","bandit","291","781457","0.0-249.0-0.0","76895159","wem/bandit_party_1","A3A8P4UR9A0DWQ","either","5","941","","","","","","","0","0","1","0.3173829003","","0.6","0.2","0.8","0.4","","","","","0.2686565688","0.09922356593","0.2335358635","0.3173829003","","","","","","","","","","76","L","3","","","208","main_expt","",""
"","bandit","292","784052","0.0-250.0-0.0","76895159","wem/bandit_party_1","A3A8P4UR9A0DWQ","either","5","1072","","","","","","","0","0","1","","0.3153846937","0.6","0.2","0.8","0.4","0.2380255957","0.101567507","0.2638942681","0.3153846937","","","","","","","","","","","","","","76","L","3","","","209","main_expt","",""
"","bandit","293","786723","0.0-251.0-0.0","76895159","wem/bandit_party_1","A3A8P4UR9A0DWQ","either","5","1146","","","","","","","0","0","1","","0.2526926237","0.6","0.2","0.8","0.4","0.2507768727","0.08675379402","0.2526926237","0.3010876552","","","","","","","","","","","","","","75","K","2","","","210","main_expt","",""
"","bandit","294","790195","0.0-252.0-0.0","76895159","wem/bandit_party_1","A3A8P4UR9A0DWQ","either","5","1944","","","","","","","0","0","1","0.07512021269","","0.6","0.2","0.8","0.4","","","","","0.2685142319","0.07512021269","0.2740367769","0.2864900033","","","","","","","","","","74","J","1","","","211","main_expt","",""
"","bandit","295","792014","0.0-253.0-0.0","76895159","wem/bandit_party_1","A3A8P4UR9A0DWQ","either","5","297","","","","","","","0","0","1","","0.08144254236","0.6","0.2","0.8","0.4","0.260511483","0.08144254236","0.2440836191","0.3163372434","","","","","","","","","","","","","","74","J","1","","","212","main_expt","",""
"","bandit","296","794891","0.0-254.0-0.0","76895159","wem/bandit_party_1","A3A8P4UR9A0DWQ","either","5","1338","","","","","","","0","0","1","0.2341903104","","0.6","0.2","0.8","0.4","","","","","0.2579605047","0.06585574052","0.2341903104","0.2701305136","","","","","","","","","","75","K","2","","","213","main_expt","",""
"","bandit","297","798255","0.0-255.0-0.0","76895159","wem/bandit_party_1","A3A8P4UR9A0DWQ","either","5","1831","","","","","","","0","0","1","0.302599165","","0.6","0.2","0.8","0.4","","","","","0.2470456849","0.08686614453","0.2097526345","0.302599165","","","","","","","","","","76","L","3","","","214","main_expt","",""
"","bandit","298","800964","0.0-256.0-0.0","76895159","wem/bandit_party_1","A3A8P4UR9A0DWQ","either","5","1171","","","","","","","0","0","1","0.1796882487","","0.6","0.2","0.8","0.4","","","","","0.3285383036","0.1068548489","0.1796882487","0.2968005471","","","","","","","","","","75","K","2","","","215","main_expt","",""
"","bandit","299","804885","0.0-257.0-0.0","76895159","wem/bandit_party_1","A3A8P4UR9A0DWQ","either","5","2396","","","","","","","0","0","1","","0.1211736082","0.6","0.2","0.8","0.4","0.3780044773","0.1211736082","0.2237900511","0.2835536598","","","","","","","","","","","","","","74","J","1","","","216","main_expt","",""
"","bandit","300","807304","0.0-258.0-0.0","76895159","wem/bandit_party_1","A3A8P4UR9A0DWQ","either","5","879","","","","","","","0","1","0","","0.2265358539","0.6","0.2","0.8","0.4","0.3939228946","0.09343701815","0.2265358539","0.2520762718","","","","","","","","","","","","","","75","K","2","","","217","main_expt","",""
"","bandit","301","809564","0.0-259.0-0.0","76895159","wem/bandit_party_1","A3A8P4UR9A0DWQ","either","5","693","","","","","","","0","0","1","","0.2562699476","0.6","0.2","0.8","0.4","0.3198270803","0.1001055386","0.2364013437","0.2562699476","","","","","","","","","","","","","","76","L","3","","","218","main_expt","",""
"","bandit","302","811285","0.0-260.0-0.0","76895159","wem/bandit_party_1","A3A8P4UR9A0DWQ","either","5","191","","","","","","","0","1","0","","0.2810560361","0.6","0.2","0.8","0.4","0.3502502288","0.09524874014","0.2810560361","0.3002431464","","","","","","","","","","","","","","75","K","2","","","219","main_expt","",""
"","bandit","303","813809","0.0-261.0-0.0","76895159","wem/bandit_party_1","A3A8P4UR9A0DWQ","either","5","998","","","","","","","0","1","0","","0.3027429446","0.6","0.2","0.8","0.4","0.3402456168","0.1304899995","0.3027429446","0.3365413303","","","","","","","","","","","","","","75","K","2","","","220","main_expt","",""
"","bandit","304","816746","0.0-262.0-0.0","76895159","wem/bandit_party_1","A3A8P4UR9A0DWQ","either","5","1412","","","","","","","0","0","1","","0.2946103072","0.6","0.2","0.8","0.4","0.3770059732","0.1272814923","0.3132134988","0.2946103072","","","","","","","","","","","","","","76","L","3","","","221","main_expt","",""
"","bandit","305","819074","0.0-263.0-0.0","76895159","wem/bandit_party_1","A3A8P4UR9A0DWQ","either","5","806","","","","","","","0","1","0","","0.1654407056","0.6","0.2","0.8","0.4","0.3864421123","0.1654407056","0.2424821827","0.3267284332","","","","","","","","","","","","","","74","J","1","","","222","main_expt","",""
"","bandit","306","821151","0.0-264.0-0.0","76895159","wem/bandit_party_1","A3A8P4UR9A0DWQ","either","5","552","","","","","","","0","0","1","0.3175152631","","0.6","0.2","0.8","0.4","","","","","0.4205211408","0.1788325852","0.2595367495","0.3175152631","","","","","","","","","","76","L","3","","","223","main_expt","",""
"","bandit","307","823083","0.0-265.0-0.0","76895159","wem/bandit_party_1","A3A8P4UR9A0DWQ","either","5","409","","","","","","","0","0","1","","0.3192400935","0.6","0.2","0.8","0.4","0.4131889957","0.1736623033","0.328819141","0.3192400935","","","","","","","","","","","","","","76","L","3","","","224","main_expt","",""
"","bandit","308","825087","0.0-266.0-0.0","76895159","wem/bandit_party_1","A3A8P4UR9A0DWQ","either","5","478","","","","","","","0","0","1","0.1721911447","","0.6","0.2","0.8","0.4","","","","","0.4001513574","0.1721911447","0.356121412","0.3096750449","","","","","","","","","","74","J","1","","","225","main_expt","",""
"","bandit","309","828639","0.0-267.0-0.0","76895159","wem/bandit_party_1","A3A8P4UR9A0DWQ","either","5","2029","","","","","","","0","0","1","","0.2133818582","0.6","0.2","0.8","0.4","0.3963688582","0.2133818582","0.3394019192","0.3142833063","","","","","","","","","","","","","","74","J","1","","","226","main_expt","",""
"","bandit","310","830957","0.0-268.0-0.0","76895159","wem/bandit_party_1","A3A8P4UR9A0DWQ","either","5","793","","","","","","","0","0","1","","0.2620007467","0.6","0.2","0.8","0.4","0.3979714495","0.2620007467","0.2860553004","0.3096885674","","","","","","","","","","","","","","74","J","1","","","227","main_expt","",""
"","bandit","311","833149","0.0-269.0-0.0","76895159","wem/bandit_party_1","A3A8P4UR9A0DWQ","either","5","651","","","","","","","0","0","1","0.2967856672","","0.6","0.2","0.8","0.4","","","","","0.3811043637","0.2961930455","0.2967856672","0.3048295172","","","","","","","","","","75","K","2","","","228","main_expt","",""
"","bandit","312","836430","0.0-270.0-0.0","76895159","wem/bandit_party_1","A3A8P4UR9A0DWQ","either","5","1743","","","","","","","0","0","1","","0.3081123415","0.6","0.2","0.8","0.4","0.3488149186","0.3081123415","0.2857745529","0.2553920021","","","","","","","","","","","","","","74","J","1","","","229","main_expt","",""
"","bandit","313","838886","0.0-271.0-0.0","76895159","wem/bandit_party_1","A3A8P4UR9A0DWQ","either","5","923","","","","","","","0","0","1","0.2783794412","","0.6","0.2","0.8","0.4","","","","","0.2883621188","0.3027177586","0.2589404948","0.2783794412","","","","","","","","","","76","L","3","","","230","main_expt","",""
"","bandit","314","841202","0.0-272.0-0.0","76895159","wem/bandit_party_1","A3A8P4UR9A0DWQ","either","5","795","","","","","","","0","1","0","","0.2495346478","0.6","0.2","0.8","0.4","0.2444465504","0.2495346478","0.2628441024","0.2735536708","","","","","","","","","","","","","","74","J","1","","","231","main_expt","",""
"","bandit","315","847269","0.0-273.0-0.0","76895159","wem/bandit_party_1","A3A8P4UR9A0DWQ","either","5","4534","","","","","","","0","0","1","","0.2185872191","0.6","0.2","0.8","0.4","0.2996930955","0.2185872191","0.276537748","0.2262440502","","","","","","","","","","","","","","74","J","1","","","232","main_expt","",""
