"consent","trial_type","trial_index","time_elapsed","internal_node_id","subjID","study","MID","cond","drift","rt","responses","button_pressed","key_press","like","value","connected","gems","bombs","no_reward","GemPrChosen","BombPrChosen","GainOverPainPr_0","GainOverPainPr_1","GainOverPainPr_2","GainOverPainPr_3","LosePr_0","LosePr_1","LosePr_2","LosePr_3","WinPr_0","WinPr_1","WinPr_2","WinPr_3","Q0","Q1","Q2","gender","age","ethnicity","label","expt_phase","target","respCharCode","respKey","respChoiceNum","respChoice","practice","trial_counter","trial_label","Q0_index"
"GDM/GDM_behavioral_consent_30min_online.html","consent","0","23408","0.0-0.0","77564277","wem/bandit_party_1","A2SJC9VRBGNC58","either","4","","","","","","","","","","","","","","","","","","","","","","","","","","","","","","","","","","","","","","","","",""
"","survey-text","1","25697","0.0-1.0","77564277","wem/bandit_party_1","A2SJC9VRBGNC58","either","4","1277","{""Q0"":""A2SJC9VRBGNC58""}","","","","","","","","","","","","","","","","","","","","","","","","","","","","","","","","","","","","","","",""
"","button-response","2","28727","0.0-2.0","77564277","wem/bandit_party_1","A2SJC9VRBGNC58","either","4","2022","","1","","","","","","","","","","","","","","","","","","","","","","","","","","","","","","","","","","","","","",""
"","text-replacement","3","32888","0.0-3.0","77564277","wem/bandit_party_1","A2SJC9VRBGNC58","either","4","3156","","","32","","","","","","","","","","","","","","","","","","","","","","","","","","","","","","","","","","","","",""
"","text-replacement","4","39797","0.0-4.0","77564277","wem/bandit_party_1","A2SJC9VRBGNC58","either","4","6908","","","32","","","","","","","","","","","","","","","","","","","","","","","","","","","","","","","","","","","","",""
"","identification","5","54736","0.0-6.0-0.0","77564277","wem/bandit_party_1","A2SJC9VRBGNC58","either","4","14927","","","","2","3","0","","","","","","","","","","","","","","","","","","","","","","","","pre","identification_pre","the Republican party","","","","","","","",""
"","identification","6","60383","0.0-6.0-1.0","77564277","wem/bandit_party_1","A2SJC9VRBGNC58","either","4","4637","","","","4","4","4","","","","","","","","","","","","","","","","","","","","","","","","pre","identification_pre","the Democratic Party","","","","","","","",""
"","text-replacement","7","128293","0.0-7.0","77564277","wem/bandit_party_1","A2SJC9VRBGNC58","either","4","66907","","","32","","","","","","","","","","","","","","","","","","","","","","","","","","","","","","","","","","","","",""
"","text-replacement","8","138585","0.0-8.0","77564277","wem/bandit_party_1","A2SJC9VRBGNC58","either","4","10289","","","32","","","","","","","","","","","","","","","","","","","","","","","","","","","","","","","","","","","","",""
"","text-replacement","9","148557","0.0-9.0","77564277","wem/bandit_party_1","A2SJC9VRBGNC58","either","4","9970","","","32","","","","","","","","","","","","","","","","","","","","","","","","","","","","","","","","","","","","",""
"","text-replacement","10","150942","0.0-10.0","77564277","wem/bandit_party_1","A2SJC9VRBGNC58","either","4","2384","","","32","","","","","","","","","","","","","","","","","","","","","","","","","","","","","","","","","","","","",""
"","text-replacement","11","153968","0.0-11.0","77564277","wem/bandit_party_1","A2SJC9VRBGNC58","either","4","3023","","","32","","","","","","","","","","","","","","","","","","","","","","","","","","","","","","","","","","","","",""
"","bandit","12","159380","0.0-12.0-0.0","77564277","wem/bandit_party_1","A2SJC9VRBGNC58","either","4","3897","","","","","","","0","0","1","0","0","","","","","0","","","","0","","","","","","","","","","","","","74","J","0","img/none_selected_demo.jpg","true","0","",""
"","bandit","13","161721","0.0-13.0-0.0","77564277","wem/bandit_party_1","A2SJC9VRBGNC58","either","4","829","","","","","","","0","0","1","0","0","","","","","0","","","","0","","","","","","","","","","","","","75","K","0","img/none_selected_demo.jpg","true","0","",""
"","text-replacement","14","168336","0.0-14.0","77564277","wem/bandit_party_1","A2SJC9VRBGNC58","either","4","6612","","","32","","","","","","","","","","","","","","","","","","","","","","","","","","","","","","","","","","","","",""
"","text-replacement","15","179006","0.0-15.0","77564277","wem/bandit_party_1","A2SJC9VRBGNC58","either","4","10666","","","32","","","","","","","","","","","","","","","","","","","","","","","","","","","","","","","","","","","","",""
"","text-replacement","16","196341","0.0-16.0","77564277","wem/bandit_party_1","A2SJC9VRBGNC58","either","4","17334","","","32","","","","","","","","","","","","","","","","","","","","","","","","","","","","","","","","","","","","",""
"","text-replacement","17","202220","0.0-17.0","77564277","wem/bandit_party_1","A2SJC9VRBGNC58","either","4","5878","","","32","","","","","","","","","","","","","","","","","","","","","","","","","","","","","","","","","","","","",""
"","bandit","18","204557","0.0-18.0-0.0","77564277","wem/bandit_party_1","A2SJC9VRBGNC58","either","4","830","","","","","","","1","0","0","0.8","","0.5","0.5","","","","","","","0.8","0.2","","","","","","","","","","","","74","J","0","img/none_selected_demo.jpg","true","0","80_20_practice",""
"","bandit","19","207888","0.0-18.0-1.0","77564277","wem/bandit_party_1","A2SJC9VRBGNC58","either","4","1823","","","","","","","1","0","0","0.8","","0.5","0.5","","","","","","","0.8","0.2","","","","","","","","","","","","74","J","0","img/none_selected_demo.jpg","true","0","80_20_practice",""
"","bandit","20","209959","0.0-18.0-2.0","77564277","wem/bandit_party_1","A2SJC9VRBGNC58","either","4","565","","","","","","","0","0","1","0.2","","0.5","0.5","","","","","","","0.8","0.2","","","","","","","","","","","","75","K","1","","true","0","80_20_practice",""
"","bandit","21","211952","0.0-18.0-3.0","77564277","wem/bandit_party_1","A2SJC9VRBGNC58","either","4","483","","","","","","","0","1","0","","0.8","0.5","0.5","","","0.8","0.2","","","","","","","","","","","","","","","","74","J","0","img/none_selected_demo.jpg","true","0","80_20_practice",""
"","bandit","22","215784","0.0-18.0-4.0","77564277","wem/bandit_party_1","A2SJC9VRBGNC58","either","4","2313","","","","","","","0","1","0","","0.8","0.5","0.5","","","0.8","0.2","","","","","","","","","","","","","","","","74","J","0","img/none_selected_demo.jpg","true","0","80_20_practice",""
"","bandit","23","220121","0.0-18.0-5.0","77564277","wem/bandit_party_1","A2SJC9VRBGNC58","either","4","2828","","","","","","","0","0","1","0.8","","0.5","0.5","","","","","","","0.8","0.2","","","","","","","","","","","","74","J","0","img/none_selected_demo.jpg","true","0","80_20_practice",""
"","bandit","24","222313","0.0-18.0-6.0","77564277","wem/bandit_party_1","A2SJC9VRBGNC58","either","4","680","","","","","","","1","0","0","0.8","","0.5","0.5","","","","","","","0.8","0.2","","","","","","","","","","","","74","J","0","img/none_selected_demo.jpg","true","0","80_20_practice",""
"","bandit","25","224432","0.0-18.0-7.0","77564277","wem/bandit_party_1","A2SJC9VRBGNC58","either","4","606","","","","","","","0","1","0","","0.8","0.5","0.5","","","0.8","0.2","","","","","","","","","","","","","","","","74","J","0","img/none_selected_demo.jpg","true","0","80_20_practice",""
"","bandit","26","226433","0.0-18.0-8.0","77564277","wem/bandit_party_1","A2SJC9VRBGNC58","either","4","490","","","","","","","0","1","0","","0.8","0.5","0.5","","","0.8","0.2","","","","","","","","","","","","","","","","74","J","0","img/none_selected_demo.jpg","true","0","80_20_practice",""
"","bandit","27","228383","0.0-18.0-9.0","77564277","wem/bandit_party_1","A2SJC9VRBGNC58","either","4","437","","","","","","","1","0","0","0.8","","0.5","0.5","","","","","","","0.8","0.2","","","","","","","","","","","","74","J","0","img/none_selected_demo.jpg","true","0","80_20_practice",""
"","bandit","28","230634","0.0-18.0-10.0","77564277","wem/bandit_party_1","A2SJC9VRBGNC58","either","4","739","","","","","","","0","0","1","","0.2","0.5","0.5","","","0.8","0.2","","","","","","","","","","","","","","","","75","K","1","","true","0","80_20_practice",""
"","bandit","29","232564","0.0-18.0-11.0","77564277","wem/bandit_party_1","A2SJC9VRBGNC58","either","4","416","","","","","","","0","0","1","0.2","","0.5","0.5","","","","","","","0.8","0.2","","","","","","","","","","","","75","K","1","","true","0","80_20_practice",""
"","bandit","30","235094","0.0-18.0-12.0","77564277","wem/bandit_party_1","A2SJC9VRBGNC58","either","4","1020","","","","","","","1","0","0","0.8","","0.5","0.5","","","","","","","0.8","0.2","","","","","","","","","","","","74","J","0","img/none_selected_demo.jpg","true","0","80_20_practice",""
"","bandit","31","237297","0.0-18.0-13.0","77564277","wem/bandit_party_1","A2SJC9VRBGNC58","either","4","693","","","","","","","0","1","0","","0.8","0.5","0.5","","","0.8","0.2","","","","","","","","","","","","","","","","74","J","0","img/none_selected_demo.jpg","true","0","80_20_practice",""
"","bandit","32","239363","0.0-18.0-14.0","77564277","wem/bandit_party_1","A2SJC9VRBGNC58","either","4","553","","","","","","","0","1","0","","0.8","0.5","0.5","","","0.8","0.2","","","","","","","","","","","","","","","","74","J","0","img/none_selected_demo.jpg","true","0","80_20_practice",""
"","bandit","33","241683","0.0-18.0-15.0","77564277","wem/bandit_party_1","A2SJC9VRBGNC58","either","4","806","","","","","","","0","1","0","","0.8","0.5","0.5","","","0.8","0.2","","","","","","","","","","","","","","","","74","J","0","img/none_selected_demo.jpg","true","0","80_20_practice",""
"","bandit","34","246222","0.0-18.0-16.0","77564277","wem/bandit_party_1","A2SJC9VRBGNC58","either","4","3028","","","","","","","1","0","0","0.8","","0.5","0.5","","","","","","","0.8","0.2","","","","","","","","","","","","74","J","0","img/none_selected_demo.jpg","true","0","80_20_practice",""
"","bandit","35","248368","0.0-18.0-17.0","77564277","wem/bandit_party_1","A2SJC9VRBGNC58","either","4","638","","","","","","","0","1","0","","0.8","0.5","0.5","","","0.8","0.2","","","","","","","","","","","","","","","","74","J","0","img/none_selected_demo.jpg","true","0","80_20_practice",""
"","bandit","36","251248","0.0-18.0-18.0","77564277","wem/bandit_party_1","A2SJC9VRBGNC58","either","4","1370","","","","","","","1","0","0","0.8","","0.5","0.5","","","","","","","0.8","0.2","","","","","","","","","","","","74","J","0","img/none_selected_demo.jpg","true","0","80_20_practice",""
"","bandit","37","253354","0.0-18.0-19.0","77564277","wem/bandit_party_1","A2SJC9VRBGNC58","either","4","595","","","","","","","0","1","0","","0.8","0.5","0.5","","","0.8","0.2","","","","","","","","","","","","","","","","74","J","0","img/none_selected_demo.jpg","true","0","80_20_practice",""
"","text-replacement","38","259318","0.0-19.0","77564277","wem/bandit_party_1","A2SJC9VRBGNC58","either","4","5961","","","32","","","","","","","","","","","","","","","","","","","","","","","","","","","","","","","","","","","","",""
"","bandit","39","262681","0.0-20.0-0.0","77564277","wem/bandit_party_1","A2SJC9VRBGNC58","either","4","1856","","","","","","","1","0","0","1","0","","","","","0","1","","","1","0","","","","","","","","","","","","74","J","0","img/none_selected_demo.jpg","true","0","",""
"","text-replacement","40","267273","0.0-21.0","77564277","wem/bandit_party_1","A2SJC9VRBGNC58","either","4","4587","","","32","","","","","","","","","","","","","","","","","","","","","","","","","","","","","","","","","","","","",""
"","text-replacement","41","270064","0.0-22.0","77564277","wem/bandit_party_1","A2SJC9VRBGNC58","either","4","2789","","","32","","","","","","","","","","","","","","","","","","","","","","","","","","","","","","","","","","","","",""
"","text-replacement","42","273077","0.0-23.0","77564277","wem/bandit_party_1","A2SJC9VRBGNC58","either","4","3011","","","32","","","","","","","","","","","","","","","","","","","","","","","","","","","","","","","","","","","","",""
"","text-replacement","43","277272","0.0-24.0","77564277","wem/bandit_party_1","A2SJC9VRBGNC58","either","4","4192","","","32","","","","","","","","","","","","","","","","","","","","","","","","","","","","","","","","","","","","",""
"","text-replacement","44","289721","0.0-25.0","77564277","wem/bandit_party_1","A2SJC9VRBGNC58","either","4","12445","","","32","","","","","","","","","","","","","","","","","","","","","","","","","","","","","","","","","","","","",""
"","text-replacement","45","293912","0.0-26.0","77564277","wem/bandit_party_1","A2SJC9VRBGNC58","either","4","4187","","","32","","","","","","","","","","","","","","","","","","","","","","","","","","","","","","","","","","","","",""
"","text-replacement","46","299921","0.0-27.0","77564277","wem/bandit_party_1","A2SJC9VRBGNC58","either","4","6006","","","32","","","","","","","","","","","","","","","","","","","","","","","","","","","","","","","","","","","","",""
"","text-replacement","47","301809","0.0-28.0","77564277","wem/bandit_party_1","A2SJC9VRBGNC58","either","4","1884","","","32","","","","","","","","","","","","","","","","","","","","","","","","","","","","","","","","","","","","",""
"","text-replacement","48","304872","0.0-29.0","77564277","wem/bandit_party_1","A2SJC9VRBGNC58","either","4","3059","","","32","","","","","","","","","","","","","","","","","","","","","","","","","","","","","","","","","","","","",""
"","text-replacement","49","306486","0.0-30.0","77564277","wem/bandit_party_1","A2SJC9VRBGNC58","either","4","1611","","","32","","","","","","","","","","","","","","","","","","","","","","","","","","","","","","","","","","","","",""
"","text-replacement","50","312336","0.0-31.0","77564277","wem/bandit_party_1","A2SJC9VRBGNC58","either","4","5848","","","32","","","","","","","","","","","","","","","","","","","","","","","","","","","","","","","","","","","","",""
"","bandit","51","314687","0.0-32.0-0.0","77564277","wem/bandit_party_1","A2SJC9VRBGNC58","either","4","843","","","","","","","0","0","1","","0.8","0.5","0.5","0.5","0.5","0.8","0.2","0.6","0.2","","","","","","","","","","","","","","72","H","0","img/none_selected.jpg","true","0","full_practice",""
"","bandit","52","316754","0.0-32.0-1.0","77564277","wem/bandit_party_1","A2SJC9VRBGNC58","either","4","558","","","","","","","0","0","1","","0.2","0.5","0.5","0.5","0.5","0.8","0.2","0.6","0.2","","","","","","","","","","","","","","74","J","1","","true","0","full_practice",""
"","bandit","53","318606","0.0-32.0-2.0","77564277","wem/bandit_party_1","A2SJC9VRBGNC58","either","4","344","","","","","","","0","1","0","","0.6","0.5","0.5","0.5","0.5","0.8","0.2","0.6","0.2","","","","","","","","","","","","","","75","K","2","","true","0","full_practice",""
"","bandit","54","320559","0.0-32.0-3.0","77564277","wem/bandit_party_1","A2SJC9VRBGNC58","either","4","439","","","","","","","0","0","1","","0.6","0.5","0.5","0.5","0.5","0.8","0.2","0.6","0.2","","","","","","","","","","","","","","75","K","2","","true","0","full_practice",""
"","bandit","55","322723","0.0-32.0-4.0","77564277","wem/bandit_party_1","A2SJC9VRBGNC58","either","4","654","","","","","","","0","1","0","","0.2","0.5","0.5","0.5","0.5","0.8","0.2","0.6","0.2","","","","","","","","","","","","","","76","L","3","","true","0","full_practice",""
"","bandit","56","324728","0.0-32.0-5.0","77564277","wem/bandit_party_1","A2SJC9VRBGNC58","either","4","496","","","","","","","0","1","0","","0.6","0.5","0.5","0.5","0.5","0.8","0.2","0.6","0.2","","","","","","","","","","","","","","75","K","2","","true","0","full_practice",""
"","bandit","57","326654","0.0-32.0-6.0","77564277","wem/bandit_party_1","A2SJC9VRBGNC58","either","4","420","","","","","","","0","0","1","0.6","","0.5","0.5","0.5","0.5","","","","","0.8","0.2","0.6","0.2","","","","","","","","","","75","K","2","","true","0","full_practice",""
"","bandit","58","328656","0.0-32.0-7.0","77564277","wem/bandit_party_1","A2SJC9VRBGNC58","either","4","491","","","","","","","0","0","1","","0.2","0.5","0.5","0.5","0.5","0.8","0.2","0.6","0.2","","","","","","","","","","","","","","76","L","3","","true","0","full_practice",""
"","bandit","59","330600","0.0-32.0-8.0","77564277","wem/bandit_party_1","A2SJC9VRBGNC58","either","4","432","","","","","","","0","1","0","","0.6","0.5","0.5","0.5","0.5","0.8","0.2","0.6","0.2","","","","","","","","","","","","","","75","K","2","","true","0","full_practice",""
"","bandit","60","332497","0.0-32.0-9.0","77564277","wem/bandit_party_1","A2SJC9VRBGNC58","either","4","385","","","","","","","0","1","0","","0.6","0.5","0.5","0.5","0.5","0.8","0.2","0.6","0.2","","","","","","","","","","","","","","75","K","2","","true","0","full_practice",""
"","bandit","61","334465","0.0-32.0-10.0","77564277","wem/bandit_party_1","A2SJC9VRBGNC58","either","4","457","","","","","","","0","0","1","","0.6","0.5","0.5","0.5","0.5","0.8","0.2","0.6","0.2","","","","","","","","","","","","","","75","K","2","","true","0","full_practice",""
"","bandit","62","336538","0.0-32.0-11.0","77564277","wem/bandit_party_1","A2SJC9VRBGNC58","either","4","560","","","","","","","0","1","0","","0.6","0.5","0.5","0.5","0.5","0.8","0.2","0.6","0.2","","","","","","","","","","","","","","75","K","2","","true","0","full_practice",""
"","bandit","63","338521","0.0-32.0-12.0","77564277","wem/bandit_party_1","A2SJC9VRBGNC58","either","4","471","","","","","","","0","0","1","0.6","","0.5","0.5","0.5","0.5","","","","","0.8","0.2","0.6","0.2","","","","","","","","","","75","K","2","","true","0","full_practice",""
"","bandit","64","340447","0.0-32.0-13.0","77564277","wem/bandit_party_1","A2SJC9VRBGNC58","either","4","414","","","","","","","0","1","0","","0.6","0.5","0.5","0.5","0.5","0.8","0.2","0.6","0.2","","","","","","","","","","","","","","75","K","2","","true","0","full_practice",""
"","bandit","65","342377","0.0-32.0-14.0","77564277","wem/bandit_party_1","A2SJC9VRBGNC58","either","4","418","","","","","","","0","0","1","","0.6","0.5","0.5","0.5","0.5","0.8","0.2","0.6","0.2","","","","","","","","","","","","","","75","K","2","","true","0","full_practice",""
"","bandit","66","344341","0.0-32.0-15.0","77564277","wem/bandit_party_1","A2SJC9VRBGNC58","either","4","455","","","","","","","0","0","1","","0.6","0.5","0.5","0.5","0.5","0.8","0.2","0.6","0.2","","","","","","","","","","","","","","75","K","2","","true","0","full_practice",""
"","bandit","67","346326","0.0-32.0-16.0","77564277","wem/bandit_party_1","A2SJC9VRBGNC58","either","4","477","","","","","","","0","1","0","","0.2","0.5","0.5","0.5","0.5","0.8","0.2","0.6","0.2","","","","","","","","","","","","","","76","L","3","","true","0","full_practice",""
"","bandit","68","348322","0.0-32.0-17.0","77564277","wem/bandit_party_1","A2SJC9VRBGNC58","either","4","482","","","","","","","1","0","0","0.2","","0.5","0.5","0.5","0.5","","","","","0.8","0.2","0.6","0.2","","","","","","","","","","76","L","3","","true","0","full_practice",""
"","bandit","69","350250","0.0-32.0-18.0","77564277","wem/bandit_party_1","A2SJC9VRBGNC58","either","4","419","","","","","","","0","0","1","","0.2","0.5","0.5","0.5","0.5","0.8","0.2","0.6","0.2","","","","","","","","","","","","","","76","L","3","","true","0","full_practice",""
"","bandit","70","352176","0.0-32.0-19.0","77564277","wem/bandit_party_1","A2SJC9VRBGNC58","either","4","415","","","","","","","0","0","1","0.2","","0.5","0.5","0.5","0.5","","","","","0.8","0.2","0.6","0.2","","","","","","","","","","76","L","3","","true","0","full_practice",""
"","text","71","355695","0.0-33.0","77564277","wem/bandit_party_1","A2SJC9VRBGNC58","either","4","3515","","","32","","","","","","","","","","","","","","","","","","","","","","","","","","","","","","","","","","","","",""
"","text-replacement","72","370281","0.0-34.0","77564277","wem/bandit_party_1","A2SJC9VRBGNC58","either","4","13582","","","32","","","","","","","","","","","","","","","","","","","","","","","","","","","","","","","","","","","","",""
"","text-replacement","73","394065","0.0-35.0","77564277","wem/bandit_party_1","A2SJC9VRBGNC58","either","4","23780","","","32","","","","","","","","","","","","","","","","","","","","","","","","","","","","","","","","","","","","",""
"","text-replacement","74","399968","0.0-36.0","77564277","wem/bandit_party_1","A2SJC9VRBGNC58","either","4","5900","","","32","","","","","","","","","","","","","","","","","","","","","","","","","","","","","","","","","","","","",""
"","text-replacement","75","404193","0.0-37.0","77564277","wem/bandit_party_1","A2SJC9VRBGNC58","either","4","4219","","","32","","","","","","","","","","","","","","","","","","","","","","","","","","","","","","","","","","","","",""
"","text-replacement","76","406152","0.0-38.0","77564277","wem/bandit_party_1","A2SJC9VRBGNC58","either","4","1955","","","32","","","","","","","","","","","","","","","","","","","","","","","","","","","","","","","","","","","","",""
"","survey-multi-choice-replacement","77","412330","0.0-39.0-0.0","77564277","wem/bandit_party_1","A2SJC9VRBGNC58","either","4","6164","","","","","","","","","","","","","","","","","","","","","","","","Money will be added to the pool for <span style='color:blue;'>DEMOCRATS</span>","","","","","","","attn_check","","","","","","","","","0"
"","survey-multi-choice-replacement","78","419328","0.0-40.0-0.0","77564277","wem/bandit_party_1","A2SJC9VRBGNC58","either","4","5986","","","","","","","","","","","","","","","","","","","","","","","","Equal amounts of money will be added to the pool for <span style='color:blue;'>DEMOCRATS</span> and subtracted from the pool for <span style='color:red;'>REPUBLICANS</span>","","","","","","","attn_check","","","","","","","","","2"
"","survey-multi-choice-replacement","79","423737","0.0-41.0-0.0","77564277","wem/bandit_party_1","A2SJC9VRBGNC58","either","4","3397","","","","","","","","","","","","","","","","","","","","","","","","No money will be added to either pool","","","","","","","attn_check","","","","","","","","","3"
"","bandit","80","428777","0.0-42.0-0.0","77564277","wem/bandit_party_1","A2SJC9VRBGNC58","either","4","2516","","","","","","","0","0","1","","0.2771551185","0.2","0.8","0.6","0.4","0.2771551185","0.3894728165","0.3242650943","0.3525715257","","","","","","","","","","","","","","72","H","0","img/none_selected.jpg","","1","main_expt",""
"","bandit","81","430599","0.0-43.0-0.0","77564277","wem/bandit_party_1","A2SJC9VRBGNC58","either","4","308","","","","","","","1","0","0","0.363660736","","0.2","0.8","0.6","0.4","","","","","0.3030893157","0.363660736","0.3296228245","0.390153736","","","","","","","","","","74","J","1","","","2","main_expt",""
"","bandit","82","432671","0.0-44.0-0.0","77564277","wem/bandit_party_1","A2SJC9VRBGNC58","either","4","565","","","","","","","0","0","1","0.3842171554","","0.2","0.8","0.6","0.4","","","","","0.3211059343","0.3842171554","0.3102780753","0.3725447061","","","","","","","","","","74","J","1","","","3","main_expt",""
"","bandit","83","434592","0.0-45.0-0.0","77564277","wem/bandit_party_1","A2SJC9VRBGNC58","either","4","413","","","","","","","0","0","1","0.3831963053","","0.2","0.8","0.6","0.4","","","","","0.2804386453","0.3831963053","0.2749892112","0.3431524481","","","","","","","","","","74","J","1","","","4","main_expt",""
"","bandit","84","436511","0.0-46.0-0.0","77564277","wem/bandit_party_1","A2SJC9VRBGNC58","either","4","407","","","","","","","0","0","1","","0.3037824898","0.2","0.8","0.6","0.4","0.2609559086","0.4056596471","0.3037824898","0.3448007793","","","","","","","","","","","","","","75","K","2","","","5","main_expt",""
"","bandit","85","438528","0.0-47.0-0.0","77564277","wem/bandit_party_1","A2SJC9VRBGNC58","either","4","507","","","","","","","0","0","1","","0.3217417103","0.2","0.8","0.6","0.4","0.2259287768","0.4409946319","0.3217417103","0.3980888019","","","","","","","","","","","","","","75","K","2","","","6","main_expt",""
"","bandit","86","440654","0.0-48.0-0.0","77564277","wem/bandit_party_1","A2SJC9VRBGNC58","either","4","617","","","","","","","0","1","0","","0.3693121862","0.2","0.8","0.6","0.4","0.2433618728","0.3821747998","0.3018715163","0.3693121862","","","","","","","","","","","","","","76","L","3","","","7","main_expt",""
"","bandit","87","442537","0.0-49.0-0.0","77564277","wem/bandit_party_1","A2SJC9VRBGNC58","either","4","369","","","","","","","0","0","1","","0.2933697555","0.2","0.8","0.6","0.4","0.2025356769","0.3841844813","0.3643645816","0.2933697555","","","","","","","","","","","","","","76","L","3","","","8","main_expt",""
"","bandit","88","444472","0.0-50.0-0.0","77564277","wem/bandit_party_1","A2SJC9VRBGNC58","either","4","424","","","","","","","0","1","0","","0.3036212831","0.2","0.8","0.6","0.4","0.1441028094","0.3412237964","0.3418610374","0.3036212831","","","","","","","","","","","","","","76","L","3","","","9","main_expt",""
"","bandit","89","446400","0.0-51.0-0.0","77564277","wem/bandit_party_1","A2SJC9VRBGNC58","either","4","416","","","","","","","0","0","1","","0.308020301","0.2","0.8","0.6","0.4","0.1736005971","0.3256420777","0.3190157878","0.308020301","","","","","","","","","","","","","","76","L","3","","","10","main_expt",""
"","bandit","90","449441","0.0-52.0-0.0","77564277","wem/bandit_party_1","A2SJC9VRBGNC58","either","4","1527","","","","","","","0","0","1","","0.3065973113","0.2","0.8","0.6","0.4","0.1836365694","0.3514007431","0.2998731478","0.3065973113","","","","","","","","","","","","","","76","L","3","","","11","main_expt",""
"","bandit","91","451648","0.0-53.0-0.0","77564277","wem/bandit_party_1","A2SJC9VRBGNC58","either","4","693","","","","","","","1","0","0","0.3722032088","","0.2","0.8","0.6","0.4","","","","","0.2143869662","0.3722032088","0.2942822571","0.3271859636","","","","","","","","","","74","J","1","","","12","main_expt",""
"","bandit","92","453591","0.0-54.0-0.0","77564277","wem/bandit_party_1","A2SJC9VRBGNC58","either","4","431","","","","","","","0","0","1","0.3681707299","","0.2","0.8","0.6","0.4","","","","","0.1637139448","0.3681707299","0.3009212619","0.2761076709","","","","","","","","","","74","J","1","","","13","main_expt",""
"","bandit","93","455543","0.0-55.0-0.0","77564277","wem/bandit_party_1","A2SJC9VRBGNC58","either","4","439","","","","","","","0","0","1","0.3528222564","","0.2","0.8","0.6","0.4","","","","","0.1488535162","0.3528222564","0.3227424667","0.2311164494","","","","","","","","","","74","J","1","","","14","main_expt",""
"","bandit","94","457532","0.0-56.0-0.0","77564277","wem/bandit_party_1","A2SJC9VRBGNC58","either","4","479","","","","","","","0","0","1","","0.1332411271","0.2","0.8","0.6","0.4","0.1332411271","0.3738838661","0.3547546862","0.2905977425","","","","","","","","","","","","","","72","H","0","img/none_selected.jpg","","15","main_expt",""
"","bandit","95","459440","0.0-57.0-0.0","77564277","wem/bandit_party_1","A2SJC9VRBGNC58","either","4","398","","","","","","","0","0","1","","0.09882415698","0.2","0.8","0.6","0.4","0.09882415698","0.3385239332","0.3241157583","0.2924554969","","","","","","","","","","","","","","72","H","0","img/none_selected.jpg","","16","main_expt",""
"","bandit","96","461465","0.0-58.0-0.0","77564277","wem/bandit_party_1","A2SJC9VRBGNC58","either","4","512","","","","","","","1","0","0","0.3363410386","","0.2","0.8","0.6","0.4","","","","","0.1069157009","0.3111355138","0.3363410386","0.3114836302","","","","","","","","","","75","K","2","","","17","main_expt",""
"","bandit","97","463490","0.0-59.0-0.0","77564277","wem/bandit_party_1","A2SJC9VRBGNC58","either","4","512","","","","","","","1","0","0","0.3880947854","","0.2","0.8","0.6","0.4","","","","","0.134958137","0.3487767647","0.3880947854","0.3215333475","","","","","","","","","","75","K","2","","","18","main_expt",""
"","bandit","98","465767","0.0-60.0-0.0","77564277","wem/bandit_party_1","A2SJC9VRBGNC58","either","4","762","","","","","","","0","0","1","","0.4116912081","0.2","0.8","0.6","0.4","0.1230418706","0.3010303499","0.4116912081","0.2733398822","","","","","","","","","","","","","","75","K","2","","","19","main_expt",""
"","bandit","99","467663","0.0-61.0-0.0","77564277","wem/bandit_party_1","A2SJC9VRBGNC58","either","4","389","","","","","","","0","0","1","0.3973894305","","0.2","0.8","0.6","0.4","","","","","0.09866604889","0.2907203997","0.3973894305","0.2351410235","","","","","","","","","","75","K","2","","","20","main_expt",""
"","bandit","100","469590","0.0-62.0-0.0","77564277","wem/bandit_party_1","A2SJC9VRBGNC58","either","4","414","","","","","","","0","0","1","0.2257810982","","0.2","0.8","0.6","0.4","","","","","0.1021222834","0.3088108907","0.369037109","0.2257810982","","","","","","","","","","76","L","3","","","21","main_expt",""
"","bandit","101","471521","0.0-63.0-0.0","77564277","wem/bandit_party_1","A2SJC9VRBGNC58","either","4","416","","","","","","","0","0","1","","0.2221856846","0.2","0.8","0.6","0.4","0.1234138809","0.349202701","0.4179468344","0.2221856846","","","","","","","","","","","","","","76","L","3","","","22","main_expt",""
"","bandit","102","474254","0.0-64.0-0.0","77564277","wem/bandit_party_1","A2SJC9VRBGNC58","either","4","1220","","","","","","","0","0","1","0.1030640584","","0.2","0.8","0.6","0.4","","","","","0.1030640584","0.3785068464","0.4276062926","0.2127124712","","","","","","","","","","72","H","0","img/none_selected.jpg","","23","main_expt",""
"","bandit","103","476176","0.0-65.0-0.0","77564277","wem/bandit_party_1","A2SJC9VRBGNC58","either","4","410","","","","","","","0","0","1","","0.1261035851","0.2","0.8","0.6","0.4","0.1261035851","0.4012919653","0.4078122208","0.1882566648","","","","","","","","","","","","","","72","H","0","img/none_selected.jpg","","24","main_expt",""
"","bandit","104","478119","0.0-66.0-0.0","77564277","wem/bandit_party_1","A2SJC9VRBGNC58","either","4","430","","","","","","","1","0","0","0.400899794","","0.2","0.8","0.6","0.4","","","","","0.1796705612","0.400899794","0.3950411191","0.1273223766","","","","","","","","","","74","J","1","","","25","main_expt",""
"","bandit","105","480123","0.0-67.0-0.0","77564277","wem/bandit_party_1","A2SJC9VRBGNC58","either","4","491","","","","","","","1","0","0","0.4126274585","","0.2","0.8","0.6","0.4","","","","","0.2414651519","0.4126274585","0.4322303329","0.15747458","","","","","","","","","","74","J","1","","","26","main_expt",""
"","bandit","106","482214","0.0-68.0-0.0","77564277","wem/bandit_party_1","A2SJC9VRBGNC58","either","4","581","","","","","","","0","0","1","0.3992263875","","0.2","0.8","0.6","0.4","","","","","0.2005374927","0.3992263875","0.4353643722","0.1442684908","","","","","","","","","","74","J","1","","","27","main_expt",""
"","bandit","107","484177","0.0-69.0-0.0","77564277","wem/bandit_party_1","A2SJC9VRBGNC58","either","4","451","","","","","","","0","0","1","0.3846584236","","0.2","0.8","0.6","0.4","","","","","0.3197257227","0.3846584236","0.4464017809","0.2255404594","","","","","","","","","","74","J","1","","","28","main_expt",""
"","bandit","108","486280","0.0-70.0-0.0","77564277","wem/bandit_party_1","A2SJC9VRBGNC58","either","4","592","","","","","","","0","1","0","","0.4417109462","0.2","0.8","0.6","0.4","0.3141869899","0.3561298134","0.4417109462","0.2730951691","","","","","","","","","","","","","","75","K","2","","","29","main_expt",""
"","bandit","109","488218","0.0-71.0-0.0","77564277","wem/bandit_party_1","A2SJC9VRBGNC58","either","4","425","","","","","","","0","0","1","0.4065908859","","0.2","0.8","0.6","0.4","","","","","0.3445991012","0.3101363315","0.4065908859","0.2890412698","","","","","","","","","","75","K","2","","","30","main_expt",""
"","bandit","110","490122","0.0-72.0-0.0","77564277","wem/bandit_party_1","A2SJC9VRBGNC58","either","4","390","","","","","","","0","0","1","0.3954582793","","0.2","0.8","0.6","0.4","","","","","0.3456655029","0.3322219809","0.3954582793","0.3309226042","","","","","","","","","","75","K","2","","","31","main_expt",""
"","bandit","111","492096","0.0-73.0-0.0","77564277","wem/bandit_party_1","A2SJC9VRBGNC58","either","4","460","","","","","","","0","1","0","","0.3519301717","0.2","0.8","0.6","0.4","0.3826172224","0.3516269472","0.3716723047","0.3519301717","","","","","","","","","","","","","","76","L","3","","","32","main_expt",""
"","bandit","112","494105","0.0-74.0-0.0","77564277","wem/bandit_party_1","A2SJC9VRBGNC58","either","4","495","","","","","","","1","0","0","0.3414953842","","0.2","0.8","0.6","0.4","","","","","0.3804083149","0.3852085553","0.3799724366","0.3414953842","","","","","","","","","","76","L","3","","","33","main_expt",""
"","bandit","113","496040","0.0-75.0-0.0","77564277","wem/bandit_party_1","A2SJC9VRBGNC58","either","4","422","","","","","","","0","0","1","","0.2938412915","0.2","0.8","0.6","0.4","0.3808178469","0.4196644934","0.409480615","0.2938412915","","","","","","","","","","","","","","76","L","3","","","34","main_expt",""
"","bandit","114","497904","0.0-76.0-0.0","77564277","wem/bandit_party_1","A2SJC9VRBGNC58","either","4","353","","","","","","","0","0","1","","0.2256616696","0.2","0.8","0.6","0.4","0.376129724","0.420891004","0.3869649509","0.2256616696","","","","","","","","","","","","","","76","L","3","","","35","main_expt",""
"","bandit","115","499876","0.0-77.0-0.0","77564277","wem/bandit_party_1","A2SJC9VRBGNC58","either","4","461","","","","","","","0","0","1","0.3808881167","","0.2","0.8","0.6","0.4","","","","","0.4027809904","0.3808881167","0.3045389962","0.2525957923","","","","","","","","","","74","J","1","","","36","main_expt",""
"","bandit","116","501757","0.0-78.0-0.0","77564277","wem/bandit_party_1","A2SJC9VRBGNC58","either","4","373","","","","","","","0","0","1","","0.2954217214","0.2","0.8","0.6","0.4","0.3715556026","0.3634360393","0.2954217214","0.2333373749","","","","","","","","","","","","","","75","K","2","","","37","main_expt",""
"","bandit","117","504382","0.0-79.0-0.0","77564277","wem/bandit_party_1","A2SJC9VRBGNC58","either","4","1117","","","","","","","0","0","1","","0.354842885","0.2","0.8","0.6","0.4","0.354842885","0.3432691328","0.2749906923","0.2126884676","","","","","","","","","","","","","","72","H","0","img/none_selected.jpg","","38","main_expt",""
"","bandit","118","506419","0.0-80.0-0.0","77564277","wem/bandit_party_1","A2SJC9VRBGNC58","either","4","523","","","","","","","0","0","1","","0.3066825603","0.2","0.8","0.6","0.4","0.3066825603","0.3113322025","0.2911873598","0.212498526","","","","","","","","","","","","","","72","H","0","img/none_selected.jpg","","39","main_expt",""
"","bandit","119","508332","0.0-81.0-0.0","77564277","wem/bandit_party_1","A2SJC9VRBGNC58","either","4","407","","","","","","","0","0","1","0.3298138996","","0.2","0.8","0.6","0.4","","","","","0.3208648015","0.3298138996","0.3066149412","0.2031275136","","","","","","","","","","74","J","1","","","40","main_expt",""
"","bandit","120","510182","0.0-82.0-0.0","77564277","wem/bandit_party_1","A2SJC9VRBGNC58","either","4","341","","","","","","","0","0","1","0.3590557929","","0.2","0.8","0.6","0.4","","","","","0.2774570704","0.3590557929","0.2612722093","0.2409224204","","","","","","","","","","74","J","1","","","41","main_expt",""
"","bandit","121","512079","0.0-83.0-0.0","77564277","wem/bandit_party_1","A2SJC9VRBGNC58","either","4","384","","","","","","","1","0","0","0.2579482203","","0.2","0.8","0.6","0.4","","","","","0.3092882543","0.3455434044","0.2579482203","0.2166695961","","","","","","","","","","75","K","2","","","42","main_expt",""
"","bandit","122","514173","0.0-84.0-0.0","77564277","wem/bandit_party_1","A2SJC9VRBGNC58","either","4","585","","","","","","","0","0","1","","0.2232302517","0.2","0.8","0.6","0.4","0.3161251671","0.4020043176","0.2232302517","0.2314197793","","","","","","","","","","","","","","75","K","2","","","43","main_expt",""
"","bandit","123","516395","0.0-85.0-0.0","77564277","wem/bandit_party_1","A2SJC9VRBGNC58","either","4","716","","","","","","","0","0","1","0.2435669349","","0.2","0.8","0.6","0.4","","","","","0.3032549762","0.4088695108","0.2435669349","0.1889371852","","","","","","","","","","75","K","2","","","44","main_expt",""
"","bandit","124","518340","0.0-86.0-0.0","77564277","wem/bandit_party_1","A2SJC9VRBGNC58","either","4","439","","","","","","","0","0","1","","0.2152104473","0.2","0.8","0.6","0.4","0.3012359134","0.3914045207","0.1885724617","0.2152104473","","","","","","","","","","","","","","76","L","3","","","45","main_expt",""
"","bandit","125","520204","0.0-87.0-0.0","77564277","wem/bandit_party_1","A2SJC9VRBGNC58","either","4","358","","","","","","","0","0","1","","0.2260726972","0.2","0.8","0.6","0.4","0.2994346937","0.3682142312","0.104230756","0.2260726972","","","","","","","","","","","","","","76","L","3","","","46","main_expt",""
"","bandit","126","522210","0.0-88.0-0.0","77564277","wem/bandit_party_1","A2SJC9VRBGNC58","either","4","501","","","","","","","0","0","1","0.09013225529","","0.2","0.8","0.6","0.4","","","","","0.3169549043","0.3462276735","0.09013225529","0.2330399618","","","","","","","","","","75","K","2","","","47","main_expt",""
"","bandit","127","524101","0.0-89.0-0.0","77564277","wem/bandit_party_1","A2SJC9VRBGNC58","either","4","383","","","","","","","0","0","1","","0.1066227192","0.2","0.8","0.6","0.4","0.3137179834","0.3501405617","0.1066227192","0.2769685944","","","","","","","","","","","","","","75","K","2","","","48","main_expt",""
"","bandit","128","525964","0.0-90.0-0.0","77564277","wem/bandit_party_1","A2SJC9VRBGNC58","either","4","356","","","","","","","0","0","1","0.3607669766","","0.2","0.8","0.6","0.4","","","","","0.3026837323","0.3607669766","0.1273062614","0.2954986192","","","","","","","","","","74","J","1","","","49","main_expt",""
"","bandit","129","527923","0.0-91.0-0.0","77564277","wem/bandit_party_1","A2SJC9VRBGNC58","either","4","453","","","","","","","0","0","1","","0.3776327681","0.2","0.8","0.6","0.4","0.2690248343","0.3776327681","0.08158159543","0.2730110453","","","","","","","","","","","","","","74","J","1","","","50","main_expt",""
"","bandit","130","530045","0.0-92.0-0.0","77564277","wem/bandit_party_1","A2SJC9VRBGNC58","either","4","615","","","","","","","0","0","1","","0.2407215714","0.2","0.8","0.6","0.4","0.2407215714","0.3922012959","0.08035098666","0.2672659715","","","","","","","","","","","","","","72","H","0","img/none_selected.jpg","","51","main_expt",""
"","bandit","131","531957","0.0-93.0-0.0","77564277","wem/bandit_party_1","A2SJC9VRBGNC58","either","4","405","","","","","","","0","0","1","0.2758158767","","0.2","0.8","0.6","0.4","","","","","0.2758158767","0.3532085343","0.1007468434","0.2552972095","","","","","","","","","","72","H","0","img/none_selected.jpg","","52","main_expt",""
"","bandit","132","533797","0.0-94.0-0.0","77564277","wem/bandit_party_1","A2SJC9VRBGNC58","either","4","333","","","","","","","0","0","1","","0.3597378762","0.2","0.8","0.6","0.4","0.2661511239","0.3597378762","0.1479770317","0.1954439593","","","","","","","","","","","","","","74","J","1","","","53","main_expt",""
"","bandit","133","535711","0.0-95.0-0.0","77564277","wem/bandit_party_1","A2SJC9VRBGNC58","either","4","405","","","","","","","1","0","0","0.3553644404","","0.2","0.8","0.6","0.4","","","","","0.250303373","0.3553644404","0.1450389045","0.1250298759","","","","","","","","","","74","J","1","","","54","main_expt",""
"","bandit","134","537694","0.0-96.0-0.0","77564277","wem/bandit_party_1","A2SJC9VRBGNC58","either","4","476","","","","","","","0","0","1","","0.3427354451","0.2","0.8","0.6","0.4","0.1850572083","0.3427354451","0.1678096349","0.1224949652","","","","","","","","","","","","","","74","J","1","","","55","main_expt",""
"","bandit","135","539618","0.0-97.0-0.0","77564277","wem/bandit_party_1","A2SJC9VRBGNC58","either","4","414","","","","","","","0","0","1","","0.3158877586","0.2","0.8","0.6","0.4","0.2410157884","0.3158877586","0.1748395718","0.1312048923","","","","","","","","","","","","","","74","J","1","","","56","main_expt",""
"","bandit","136","541539","0.0-98.0-0.0","77564277","wem/bandit_party_1","A2SJC9VRBGNC58","either","4","404","","","","","","","0","0","1","","0.3224611445","0.2","0.8","0.6","0.4","0.2657224069","0.3224611445","0.146986137","0.14452077","","","","","","","","","","","","","","74","J","1","","","57","main_expt",""
"","bandit","137","543482","0.0-99.0-0.0","77564277","wem/bandit_party_1","A2SJC9VRBGNC58","either","4","428","","","","","","","0","0","1","0.1316135006","","0.2","0.8","0.6","0.4","","","","","0.2361308133","0.3378672788","0.1316135006","0.1198415177","","","","","","","","","","75","K","2","","","58","main_expt",""
"","bandit","138","545377","0.0-100.0-0.0","77564277","wem/bandit_party_1","A2SJC9VRBGNC58","either","4","381","","","","","","","0","0","1","","0.1776120447","0.2","0.8","0.6","0.4","0.2078360154","0.3438075972","0.1776120447","0.1674914914","","","","","","","","","","","","","","75","K","2","","","59","main_expt",""
"","bandit","139","547264","0.0-101.0-0.0","77564277","wem/bandit_party_1","A2SJC9VRBGNC58","either","4","377","","","","","","","0","0","1","0.2034864675","","0.2","0.8","0.6","0.4","","","","","0.2256957235","0.2950987239","0.2034864675","0.147959707","","","","","","","","","","75","K","2","","","60","main_expt",""
"","bandit","140","549185","0.0-102.0-0.0","77564277","wem/bandit_party_1","A2SJC9VRBGNC58","either","4","412","","","","","","","0","0","1","","0.1325668513","0.2","0.8","0.6","0.4","0.2713547376","0.2939622289","0.1325668513","0.1217284172","","","","","","","","","","","","","","75","K","2","","","61","main_expt",""
"","bandit","141","551072","0.0-103.0-0.0","77564277","wem/bandit_party_1","A2SJC9VRBGNC58","either","4","375","","","","","","","0","0","1","","0.1392905859","0.2","0.8","0.6","0.4","0.2800078023","0.2907096119","0.125492747","0.1392905859","","","","","","","","","","","","","","76","L","3","","","62","main_expt",""
"","bandit","142","552929","0.0-104.0-0.0","77564277","wem/bandit_party_1","A2SJC9VRBGNC58","either","4","344","","","","","","","0","0","1","","0.1953314019","0.2","0.8","0.6","0.4","0.362183352","0.2696382907","0.1081989139","0.1953314019","","","","","","","","","","","","","","76","L","3","","","63","main_expt",""
"","bandit","143","554833","0.0-105.0-0.0","77564277","wem/bandit_party_1","A2SJC9VRBGNC58","either","4","390","","","","","","","0","0","1","","0.2618523415","0.2","0.8","0.6","0.4","0.3354395381","0.2496415039","0.09104284411","0.2618523415","","","","","","","","","","","","","","76","L","3","","","64","main_expt",""
"","bandit","144","556842","0.0-106.0-0.0","77564277","wem/bandit_party_1","A2SJC9VRBGNC58","either","4","495","","","","","","","0","1","0","","0.2686672798","0.2","0.8","0.6","0.4","0.2893845237","0.2364994079","0.1264903162","0.2686672798","","","","","","","","","","","","","","76","L","3","","","65","main_expt",""
"","bandit","145","558865","0.0-107.0-0.0","77564277","wem/bandit_party_1","A2SJC9VRBGNC58","either","4","509","","","","","","","0","0","1","","0.2451656397","0.2","0.8","0.6","0.4","0.2355717356","0.2541683514","0.1665937301","0.2451656397","","","","","","","","","","","","","","76","L","3","","","66","main_expt",""
"","bandit","146","560761","0.0-108.0-0.0","77564277","wem/bandit_party_1","A2SJC9VRBGNC58","either","4","383","","","","","","","0","1","0","","0.2445320338","0.2","0.8","0.6","0.4","0.2848755716","0.2985471382","0.1740025863","0.2445320338","","","","","","","","","","","","","","76","L","3","","","67","main_expt",""
"","bandit","147","562713","0.0-109.0-0.0","77564277","wem/bandit_party_1","A2SJC9VRBGNC58","either","4","439","","","","","","","0","0","1","","0.2261158315","0.2","0.8","0.6","0.4","0.3341158043","0.3391290389","0.2300011382","0.2261158315","","","","","","","","","","","","","","76","L","3","","","68","main_expt",""
"","bandit","148","564833","0.0-110.0-0.0","77564277","wem/bandit_party_1","A2SJC9VRBGNC58","either","4","607","","","","","","","0","0","1","","0.1627286519","0.2","0.8","0.6","0.4","0.3253412689","0.3114764975","0.1768594062","0.1627286519","","","","","","","","","","","","","","76","L","3","","","69","main_expt",""
"","bandit","149","566768","0.0-111.0-0.0","77564277","wem/bandit_party_1","A2SJC9VRBGNC58","either","4","424","","","","","","","0","0","1","","0.1906145184","0.2","0.8","0.6","0.4","0.3280915152","0.3056328376","0.1906145184","0.1301009224","","","","","","","","","","","","","","75","K","2","","","70","main_expt",""
"","bandit","150","568784","0.0-112.0-0.0","77564277","wem/bandit_party_1","A2SJC9VRBGNC58","either","4","504","","","","","","","0","0","1","0.1451664327","","0.2","0.8","0.6","0.4","","","","","0.3772643828","0.3445325487","0.1451664327","0.1356707761","","","","","","","","","","75","K","2","","","71","main_expt",""
"","bandit","151","570879","0.0-113.0-0.0","77564277","wem/bandit_party_1","A2SJC9VRBGNC58","either","4","584","","","","","","","0","0","1","0.1091447996","","0.2","0.8","0.6","0.4","","","","","0.4074174212","0.364612409","0.1091447996","0.1045412551","","","","","","","","","","75","K","2","","","72","main_expt",""
"","bandit","152","572906","0.0-114.0-0.0","77564277","wem/bandit_party_1","A2SJC9VRBGNC58","either","4","514","","","","","","","0","0","1","","0.1248737042","0.2","0.8","0.6","0.4","0.3736299767","0.4454774056","0.1248737042","0.0867882282","","","","","","","","","","","","","","75","K","2","","","73","main_expt",""
"","bandit","153","574823","0.0-115.0-0.0","77564277","wem/bandit_party_1","A2SJC9VRBGNC58","either","4","404","","","","","","","1","0","0","0.4492830973","","0.2","0.8","0.6","0.4","","","","","0.383211712","0.4492830973","0.1073746888","0.1018359722","","","","","","","","","","74","J","1","","","74","main_expt",""
"","bandit","154","577456","0.0-116.0-0.0","77564277","wem/bandit_party_1","A2SJC9VRBGNC58","either","4","1120","","","","","","","1","0","0","0.449321966","","0.2","0.8","0.6","0.4","","","","","0.3681962321","0.449321966","0.1051395745","0.09443707336","","","","","","","","","","74","J","1","","","75","main_expt",""
"","bandit","155","579993","0.0-117.0-0.0","77564277","wem/bandit_party_1","A2SJC9VRBGNC58","either","4","1028","","","","","","","0","0","1","0.4299726132","","0.2","0.8","0.6","0.4","","","","","0.3574328021","0.4299726132","0.09171451076","0.08768691443","","","","","","","","","","74","J","1","","","76","main_expt",""
"","bandit","156","582166","0.0-118.0-0.0","77564277","wem/bandit_party_1","A2SJC9VRBGNC58","either","4","665","","","","","","","0","0","1","","0.4349340462","0.2","0.8","0.6","0.4","0.4041720962","0.4349340462","0.1256070833","0.07744448812","","","","","","","","","","","","","","74","J","1","","","77","main_expt",""
"","bandit","157","584265","0.0-119.0-0.0","77564277","wem/bandit_party_1","A2SJC9VRBGNC58","either","4","585","","","","","","","0","0","1","0.4112950215","","0.2","0.8","0.6","0.4","","","","","0.4000946746","0.4112950215","0.1398604905","0.05712631425","","","","","","","","","","74","J","1","","","78","main_expt",""
"","bandit","158","586274","0.0-120.0-0.0","77564277","wem/bandit_party_1","A2SJC9VRBGNC58","either","4","494","","","","","","","0","0","1","0.4123046053","","0.2","0.8","0.6","0.4","","","","","0.425248604","0.4123046053","0.1303191282","0.03981704588","","","","","","","","","","74","J","1","","","79","main_expt",""
"","bandit","159","588263","0.0-121.0-0.0","77564277","wem/bandit_party_1","A2SJC9VRBGNC58","either","4","477","","","","","","","0","0","1","0.4345430878","","0.2","0.8","0.6","0.4","","","","","0.4263383456","0.4345430878","0.1491340647","0.02961196177","","","","","","","","","","74","J","1","","","80","main_expt",""
"","bandit","160","590392","0.0-122.0-0.0","77564277","wem/bandit_party_1","A2SJC9VRBGNC58","either","4","620","","","","","","","0","0","1","","0.4377411966","0.2","0.8","0.6","0.4","0.4377411966","0.4255274095","0.1484119081","0.0408206899","","","","","","","","","","","","","","72","H","0","img/none_selected.jpg","","81","main_expt",""
"","bandit","161","592390","0.0-123.0-0.0","77564277","wem/bandit_party_1","A2SJC9VRBGNC58","either","4","487","","","","","","","0","0","1","","0.4263216968","0.2","0.8","0.6","0.4","0.4263216968","0.4266934287","0.135460029","0.03491361241","","","","","","","","","","","","","","72","H","0","img/none_selected.jpg","","82","main_expt",""
"","bandit","162","594739","0.0-124.0-0.0","77564277","wem/bandit_party_1","A2SJC9VRBGNC58","either","4","838","","","","","","","1","0","0","0.4321646522","","0.2","0.8","0.6","0.4","","","","","0.4536492548","0.4321646522","0.09497461961","0.01881925386","","","","","","","","","","74","J","1","","","83","main_expt",""
"","bandit","163","596817","0.0-125.0-0.0","77564277","wem/bandit_party_1","A2SJC9VRBGNC58","either","4","562","","","","","","","1","0","0","0.43129245","","0.2","0.8","0.6","0.4","","","","","0.4344769981","0.43129245","0.0956585677","0.03441768066","","","","","","","","","","74","J","1","","","84","main_expt",""
"","bandit","164","598826","0.0-126.0-0.0","77564277","wem/bandit_party_1","A2SJC9VRBGNC58","either","4","498","","","","","","","0","0","1","0.4307495417","","0.2","0.8","0.6","0.4","","","","","0.4167097255","0.4307495417","0.08427930603","0.04015732792","","","","","","","","","","74","J","1","","","85","main_expt",""
"","bandit","165","600875","0.0-127.0-0.0","77564277","wem/bandit_party_1","A2SJC9VRBGNC58","either","4","533","","","","","","","0","1","0","","0.4327415212","0.2","0.8","0.6","0.4","0.4215971904","0.4327415212","0.09540141202","0.0462821445","","","","","","","","","","","","","","74","J","1","","","86","main_expt",""
"","bandit","166","602993","0.0-128.0-0.0","77564277","wem/bandit_party_1","A2SJC9VRBGNC58","either","4","602","","","","","","","0","0","1","0.4507305815","","0.2","0.8","0.6","0.4","","","","","0.3962725568","0.4507305815","0.06504543429","0.07236867375","","","","","","","","","","74","J","1","","","87","main_expt",""
"","bandit","167","604979","0.0-129.0-0.0","77564277","wem/bandit_party_1","A2SJC9VRBGNC58","either","4","469","","","","","","","0","0","1","","0.4571393315","0.2","0.8","0.6","0.4","0.4038430626","0.4571393315","0.05894337134","0.1132918069","","","","","","","","","","","","","","74","J","1","","","88","main_expt",""
"","bandit","168","607055","0.0-130.0-0.0","77564277","wem/bandit_party_1","A2SJC9VRBGNC58","either","4","559","","","","","","","1","0","0","0.4639779763","","0.2","0.8","0.6","0.4","","","","","0.4247877058","0.4639779763","0.06803635399","0.1466354559","","","","","","","","","","74","J","1","","","89","main_expt",""
"","bandit","169","609282","0.0-131.0-0.0","77564277","wem/bandit_party_1","A2SJC9VRBGNC58","either","4","711","","","","","","","0","1","0","","0.4620017245","0.2","0.8","0.6","0.4","0.4196700557","0.4620017245","0.09657856289","0.1746819083","","","","","","","","","","","","","","74","J","1","","","90","main_expt",""
"","bandit","170","611420","0.0-132.0-0.0","77564277","wem/bandit_party_1","A2SJC9VRBGNC58","either","4","626","","","","","","","0","0","1","0.4492963398","","0.2","0.8","0.6","0.4","","","","","0.401758082","0.4492963398","0.08522031428","0.1864657318","","","","","","","","","","74","J","1","","","91","main_expt",""
"","bandit","171","613394","0.0-133.0-0.0","77564277","wem/bandit_party_1","A2SJC9VRBGNC58","either","4","459","","","","","","","1","0","0","0.462009279","","0.2","0.8","0.6","0.4","","","","","0.3422099147","0.462009279","0.07078380504","0.2124622091","","","","","","","","","","74","J","1","","","92","main_expt",""
"","bandit","172","615402","0.0-134.0-0.0","77564277","wem/bandit_party_1","A2SJC9VRBGNC58","either","4","491","","","","","","","1","0","0","0.4363090379","","0.2","0.8","0.6","0.4","","","","","0.3279059742","0.4363090379","0.0564278809","0.245786276","","","","","","","","","","74","J","1","","","93","main_expt",""
"","bandit","173","617417","0.0-135.0-0.0","77564277","wem/bandit_party_1","A2SJC9VRBGNC58","either","4","503","","","","","","","1","0","0","0.4457519602","","0.2","0.8","0.6","0.4","","","","","0.3155724737","0.4457519602","0.06067733924","0.2316759231","","","","","","","","","","74","J","1","","","94","main_expt",""
"","bandit","174","619426","0.0-136.0-0.0","77564277","wem/bandit_party_1","A2SJC9VRBGNC58","either","4","494","","","","","","","0","0","1","0.4231248902","","0.2","0.8","0.6","0.4","","","","","0.3519625041","0.4231248902","0.08632751489","0.2231756969","","","","","","","","","","74","J","1","","","95","main_expt",""
"","bandit","175","621443","0.0-137.0-0.0","77564277","wem/bandit_party_1","A2SJC9VRBGNC58","either","4","500","","","","","","","1","0","0","0.4210676831","","0.2","0.8","0.6","0.4","","","","","0.3661455107","0.4210676831","0.08481729553","0.1957128212","","","","","","","","","","74","J","1","","","96","main_expt",""
"","bandit","176","623727","0.0-138.0-0.0","77564277","wem/bandit_party_1","A2SJC9VRBGNC58","either","4","770","","","","","","","0","1","0","","0.4022895305","0.2","0.8","0.6","0.4","0.3558031673","0.4022895305","0.08386440452","0.1638116915","","","","","","","","","","","","","","74","J","1","","","97","main_expt",""
"","bandit","177","625786","0.0-139.0-0.0","77564277","wem/bandit_party_1","A2SJC9VRBGNC58","either","4","544","","","","","","","0","0","1","","0.4187351015","0.2","0.8","0.6","0.4","0.3558230887","0.4187351015","0.0940701929","0.1405816365","","","","","","","","","","","","","","74","J","1","","","98","main_expt",""
"","bandit","178","627713","0.0-140.0-0.0","77564277","wem/bandit_party_1","A2SJC9VRBGNC58","either","4","409","","","","","","","0","0","1","","0.3981340028","0.2","0.8","0.6","0.4","0.3064708089","0.3981340028","0.1285058524","0.1435678602","","","","","","","","","","","","","","74","J","1","","","99","main_expt",""
"","bandit","179","629683","0.0-141.0-0.0","77564277","wem/bandit_party_1","A2SJC9VRBGNC58","either","4","452","","","","","","","0","0","1","0.3520446815","","0.2","0.8","0.6","0.4","","","","","0.352498313","0.3520446815","0.065882019","0.1478754355","","","","","","","","","","74","J","1","","","100","main_expt",""
"","bandit","180","631593","0.0-142.0-0.0","77564277","wem/bandit_party_1","A2SJC9VRBGNC58","either","4","395","","","","","","","0","0","1","0.3715523215","","0.2","0.8","0.6","0.4","","","","","0.3511810171","0.3715523215","0.05692140794","0.1532559328","","","","","","","","","","74","J","1","","","101","main_expt",""
"","bandit","181","633610","0.0-143.0-0.0","77564277","wem/bandit_party_1","A2SJC9VRBGNC58","either","4","502","","","","","","","0","0","1","","0.15857411","0.2","0.8","0.6","0.4","0.3246867477","0.3966955113","0.04322280369","0.15857411","","","","","","","","","","","","","","76","L","3","","","102","main_expt",""
"","bandit","182","635523","0.0-144.0-0.0","77564277","wem/bandit_party_1","A2SJC9VRBGNC58","either","4","399","","","","","","","0","0","1","","0.1552377357","0.2","0.8","0.6","0.4","0.2827689756","0.3865714765","0.05121437093","0.1552377357","","","","","","","","","","","","","","76","L","3","","","103","main_expt",""
"","bandit","183","637409","0.0-145.0-0.0","77564277","wem/bandit_party_1","A2SJC9VRBGNC58","either","4","375","","","","","","","0","0","1","","0.1584193753","0.2","0.8","0.6","0.4","0.3307995119","0.3440646931","0.06548077564","0.1584193753","","","","","","","","","","","","","","76","L","3","","","104","main_expt",""
"","bandit","184","639274","0.0-146.0-0.0","77564277","wem/bandit_party_1","A2SJC9VRBGNC58","either","4","355","","","","","","","0","0","1","","0.07577357845","0.2","0.8","0.6","0.4","0.3078297571","0.330981063","0.07577357845","0.192058402","","","","","","","","","","","","","","75","K","2","","","105","main_expt",""
"","bandit","185","641162","0.0-147.0-0.0","77564277","wem/bandit_party_1","A2SJC9VRBGNC58","either","4","375","","","","","","","0","0","1","0.09041352565","","0.2","0.8","0.6","0.4","","","","","0.3202685942","0.3317280627","0.09041352565","0.1562344916","","","","","","","","","","75","K","2","","","106","main_expt",""
"","bandit","186","643106","0.0-148.0-0.0","77564277","wem/bandit_party_1","A2SJC9VRBGNC58","either","4","427","","","","","","","0","0","1","0.1184921167","","0.2","0.8","0.6","0.4","","","","","0.3163418234","0.2760665195","0.1184921167","0.1493116313","","","","","","","","","","75","K","2","","","107","main_expt",""
"","bandit","187","644970","0.0-149.0-0.0","77564277","wem/bandit_party_1","A2SJC9VRBGNC58","either","4","350","","","","","","","0","0","1","0.2826301941","","0.2","0.8","0.6","0.4","","","","","0.3425943818","0.2826301941","0.1057615429","0.1357435498","","","","","","","","","","74","J","1","","","108","main_expt",""
"","bandit","188","646982","0.0-150.0-0.0","77564277","wem/bandit_party_1","A2SJC9VRBGNC58","either","4","498","","","","","","","0","0","1","0.318117281","","0.2","0.8","0.6","0.4","","","","","0.2852030557","0.318117281","0.1464484126","0.1164074326","","","","","","","","","","74","J","1","","","109","main_expt",""
"","bandit","189","649145","0.0-151.0-0.0","77564277","wem/bandit_party_1","A2SJC9VRBGNC58","either","4","647","","","","","","","0","0","1","","0.3392406975","0.2","0.8","0.6","0.4","0.3392406975","0.3358587519","0.1641354829","0.1444451916","","","","","","","","","","","","","","72","H","0","img/none_selected.jpg","","110","main_expt",""
"","bandit","190","651096","0.0-152.0-0.0","77564277","wem/bandit_party_1","A2SJC9VRBGNC58","either","4","435","","","","","","","0","0","1","","0.3023411017","0.2","0.8","0.6","0.4","0.3023411017","0.3031660534","0.1386891192","0.09905323685","","","","","","","","","","","","","","72","H","0","img/none_selected.jpg","","111","main_expt",""
"","bandit","191","653152","0.0-153.0-0.0","77564277","wem/bandit_party_1","A2SJC9VRBGNC58","either","4","543","","","","","","","0","0","1","0.296849772","","0.2","0.8","0.6","0.4","","","","","0.296849772","0.2773548355","0.1847512065","0.09652445584","","","","","","","","","","72","H","0","img/none_selected.jpg","","112","main_expt",""
"","bandit","192","654993","0.0-154.0-0.0","77564277","wem/bandit_party_1","A2SJC9VRBGNC58","either","4","331","","","","","","","0","1","0","","0.2673419259","0.2","0.8","0.6","0.4","0.2673419259","0.2370758425","0.1304555333","0.09961189632","","","","","","","","","","","","","","72","H","0","img/none_selected.jpg","","113","main_expt",""
"","bandit","193","657190","0.0-155.0-0.0","77564277","wem/bandit_party_1","A2SJC9VRBGNC58","either","4","682","","","","","","","0","0","1","","0.2670531803","0.2","0.8","0.6","0.4","0.2670531803","0.1821928837","0.1770102637","0.1036139638","","","","","","","","","","","","","","72","H","0","img/none_selected.jpg","","114","main_expt",""
"","bandit","194","659174","0.0-156.0-0.0","77564277","wem/bandit_party_1","A2SJC9VRBGNC58","either","4","476","","","","","","","0","0","1","0.2825009356","","0.2","0.8","0.6","0.4","","","","","0.2825009356","0.1315453283","0.1564651975","0.0968506792","","","","","","","","","","72","H","0","img/none_selected.jpg","","115","main_expt",""
"","bandit","195","661133","0.0-157.0-0.0","77564277","wem/bandit_party_1","A2SJC9VRBGNC58","either","4","446","","","","","","","0","1","0","","0.3237719372","0.2","0.8","0.6","0.4","0.3237719372","0.1102777544","0.1665702367","0.08782875681","","","","","","","","","","","","","","72","H","0","img/none_selected.jpg","","116","main_expt",""
"","bandit","196","663178","0.0-158.0-0.0","77564277","wem/bandit_party_1","A2SJC9VRBGNC58","either","4","533","","","","","","","0","0","1","0.3154846423","","0.2","0.8","0.6","0.4","","","","","0.3154846423","0.1101610351","0.1530687496","0.06031800864","","","","","","","","","","72","H","0","img/none_selected.jpg","","117","main_expt",""
"","bandit","197","667065","0.0-159.0-0.0","77564277","wem/bandit_party_1","A2SJC9VRBGNC58","either","4","2370","","","","","","","0","1","0","","0.2584508078","0.2","0.8","0.6","0.4","0.2584508078","0.122460482","0.1674206906","0.05633053331","","","","","","","","","","","","","","72","H","0","img/none_selected.jpg","","118","main_expt",""
"","bandit","198","669793","0.0-160.0-0.0","77564277","wem/bandit_party_1","A2SJC9VRBGNC58","either","4","1214","","","","","","","0","0","1","0.2141905193","","0.2","0.8","0.6","0.4","","","","","0.2141905193","0.1451868924","0.1990215448","0.07530514027","","","","","","","","","","72","H","0","img/none_selected.jpg","","119","main_expt",""
"","bandit","199","671985","0.0-161.0-0.0","77564277","wem/bandit_party_1","A2SJC9VRBGNC58","either","4","678","","","","","","","0","0","1","","0.2341954374","0.2","0.8","0.6","0.4","0.2341954374","0.09092593383","0.2208640619","0.09639595661","","","","","","","","","","","","","","72","H","0","img/none_selected.jpg","","120","main_expt",""
"","bandit","200","674217","0.0-162.0-0.0","77564277","wem/bandit_party_1","A2SJC9VRBGNC58","either","4","718","","","","","","","0","0","1","","0.1886372651","0.2","0.8","0.6","0.4","0.1886372651","0.1080456108","0.2602917539","0.1421799471","","","","","","","","","","","","","","72","H","0","img/none_selected.jpg","","121","main_expt",""
"","bandit","201","676289","0.0-163.0-0.0","77564277","wem/bandit_party_1","A2SJC9VRBGNC58","either","4","557","","","","","","","0","0","1","0.2512498235","","0.2","0.8","0.6","0.4","","","","","0.1597592322","0.1169053248","0.2512498235","0.1624760489","","","","","","","","","","75","K","2","","","122","main_expt",""
"","bandit","202","678633","0.0-164.0-0.0","77564277","wem/bandit_party_1","A2SJC9VRBGNC58","either","4","831","","","","","","","0","0","1","0.2266242761","","0.2","0.8","0.6","0.4","","","","","0.1895266442","0.1571594809","0.2266242761","0.1640214383","","","","","","","","","","75","K","2","","","123","main_expt",""
"","bandit","203","680728","0.0-165.0-0.0","77564277","wem/bandit_party_1","A2SJC9VRBGNC58","either","4","581","","","","","","","0","0","1","","0.2373824638","0.2","0.8","0.6","0.4","0.2042850732","0.2231804049","0.2373824638","0.2014340991","","","","","","","","","","","","","","75","K","2","","","124","main_expt",""
"","bandit","204","682792","0.0-166.0-0.0","77564277","wem/bandit_party_1","A2SJC9VRBGNC58","either","4","553","","","","","","","0","0","1","0.2538727107","","0.2","0.8","0.6","0.4","","","","","0.1812515389","0.2232794356","0.2538727107","0.2229229076","","","","","","","","","","75","K","2","","","125","main_expt",""
"","bandit","205","684714","0.0-167.0-0.0","77564277","wem/bandit_party_1","A2SJC9VRBGNC58","either","4","406","","","","","","","0","0","1","0.2316903634","","0.2","0.8","0.6","0.4","","","","","0.1694736183","0.2316903634","0.290219491","0.2324712723","","","","","","","","","","74","J","1","","","126","main_expt",""
"","bandit","206","686785","0.0-168.0-0.0","77564277","wem/bandit_party_1","A2SJC9VRBGNC58","either","4","555","","","","","","","0","0","1","0.2337524142","","0.2","0.8","0.6","0.4","","","","","0.1624528765","0.2337524142","0.2542505169","0.2628391623","","","","","","","","","","74","J","1","","","127","main_expt",""
"","bandit","207","688793","0.0-169.0-0.0","77564277","wem/bandit_party_1","A2SJC9VRBGNC58","either","4","496","","","","","","","0","0","1","0.2198210178","","0.2","0.8","0.6","0.4","","","","","0.1632982916","0.2198210178","0.2582316027","0.2654356302","","","","","","","","","","74","J","1","","","128","main_expt",""
"","bandit","208","690872","0.0-170.0-0.0","77564277","wem/bandit_party_1","A2SJC9VRBGNC58","either","4","566","","","","","","","0","0","1","","0.2280168395","0.2","0.8","0.6","0.4","0.2264598068","0.2280168395","0.3267566011","0.2070569149","","","","","","","","","","","","","","74","J","1","","","129","main_expt",""
"","bandit","209","693465","0.0-171.0-0.0","77564277","wem/bandit_party_1","A2SJC9VRBGNC58","either","4","1075","","","","","","","1","0","0","0.2579182239","","0.2","0.8","0.6","0.4","","","","","0.202760285","0.243895296","0.3323271388","0.2579182239","","","","","","","","","","76","L","3","","","130","main_expt",""
"","bandit","210","695946","0.0-172.0-0.0","77564277","wem/bandit_party_1","A2SJC9VRBGNC58","either","4","965","","","","","","","0","0","1","","0.2329110821","0.2","0.8","0.6","0.4","0.1585094705","0.2164454501","0.2666668646","0.2329110821","","","","","","","","","","","","","","76","L","3","","","131","main_expt",""
"","bandit","211","698176","0.0-173.0-0.0","77564277","wem/bandit_party_1","A2SJC9VRBGNC58","either","4","714","","","","","","","0","0","1","","0.2400232435","0.2","0.8","0.6","0.4","0.1304261544","0.200468731","0.2359119393","0.2400232435","","","","","","","","","","","","","","76","L","3","","","132","main_expt",""
"","bandit","212","700392","0.0-174.0-0.0","77564277","wem/bandit_party_1","A2SJC9VRBGNC58","either","4","698","","","","","","","0","0","1","","0.2084798617","0.2","0.8","0.6","0.4","0.09339990826","0.2038597077","0.2540740643","0.2084798617","","","","","","","","","","","","","","76","L","3","","","133","main_expt",""
"","bandit","213","702416","0.0-175.0-0.0","77564277","wem/bandit_party_1","A2SJC9VRBGNC58","either","4","510","","","","","","","0","0","1","0.2034544","","0.2","0.8","0.6","0.4","","","","","0.08524612959","0.2263269307","0.2414927735","0.2034544","","","","","","","","","","76","L","3","","","134","main_expt",""
"","bandit","214","704798","0.0-176.0-0.0","77564277","wem/bandit_party_1","A2SJC9VRBGNC58","either","4","868","","","","","","","0","1","0","","0.2088958693","0.2","0.8","0.6","0.4","0.0622033461","0.2686469146","0.2632369982","0.2088958693","","","","","","","","","","","","","","76","L","3","","","135","main_expt",""
"","bandit","215","707016","0.0-177.0-0.0","77564277","wem/bandit_party_1","A2SJC9VRBGNC58","either","4","704","","","","","","","0","1","0","","0.2573758916","0.2","0.8","0.6","0.4","0.05632890875","0.3170393738","0.3032623762","0.2573758916","","","","","","","","","","","","","","76","L","3","","","136","main_expt",""
"","bandit","216","709488","0.0-178.0-0.0","77564277","wem/bandit_party_1","A2SJC9VRBGNC58","either","4","956","","","","","","","0","0","1","0.2467438462","","0.2","0.8","0.6","0.4","","","","","0.06052980877","0.338962466","0.2984046037","0.2467438462","","","","","","","","","","76","L","3","","","137","main_expt",""
"","bandit","217","711437","0.0-179.0-0.0","77564277","wem/bandit_party_1","A2SJC9VRBGNC58","either","4","433","","","","","","","0","0","1","","0.2221944767","0.2","0.8","0.6","0.4","0.1038497792","0.3586643031","0.3110629865","0.2221944767","","","","","","","","","","","","","","76","L","3","","","138","main_expt",""
"","bandit","218","713665","0.0-180.0-0.0","77564277","wem/bandit_party_1","A2SJC9VRBGNC58","either","4","715","","","","","","","0","0","1","","0.2750517365","0.2","0.8","0.6","0.4","0.08561062373","0.3430902759","0.3048373826","0.2750517365","","","","","","","","","","","","","","76","L","3","","","139","main_expt",""
"","bandit","219","715625","0.0-181.0-0.0","77564277","wem/bandit_party_1","A2SJC9VRBGNC58","either","4","443","","","","","","","1","0","0","0.3163642845","","0.2","0.8","0.6","0.4","","","","","0.08025295029","0.3777112835","0.3163642845","0.277474309","","","","","","","","","","75","K","2","","","140","main_expt",""
"","bandit","220","717746","0.0-182.0-0.0","77564277","wem/bandit_party_1","A2SJC9VRBGNC58","either","4","606","","","","","","","0","0","1","","0.2213861514","0.2","0.8","0.6","0.4","0.09309891757","0.4276051364","0.2213861514","0.2932007391","","","","","","","","","","","","","","75","K","2","","","141","main_expt",""
"","bandit","221","719935","0.0-183.0-0.0","77564277","wem/bandit_party_1","A2SJC9VRBGNC58","either","4","675","","","","","","","0","0","1","0.2492613222","","0.2","0.8","0.6","0.4","","","","","0.1107976638","0.4312347149","0.2492613222","0.3001807938","","","","","","","","","","75","K","2","","","142","main_expt",""
"","bandit","222","722105","0.0-184.0-0.0","77564277","wem/bandit_party_1","A2SJC9VRBGNC58","either","4","654","","","","","","","0","0","1","0.2645663874","","0.2","0.8","0.6","0.4","","","","","0.09575525052","0.386657586","0.2645663874","0.3640878437","","","","","","","","","","75","K","2","","","143","main_expt",""
"","bandit","223","724074","0.0-185.0-0.0","77564277","wem/bandit_party_1","A2SJC9VRBGNC58","either","4","456","","","","","","","0","0","1","0.2928215939","","0.2","0.8","0.6","0.4","","","","","0.07222794989","0.3409851627","0.2928215939","0.2706796495","","","","","","","","","","75","K","2","","","144","main_expt",""
"","bandit","224","726603","0.0-186.0-0.0","77564277","wem/bandit_party_1","A2SJC9VRBGNC58","either","4","1010","","","","","","","1","0","0","0.3538709708","","0.2","0.8","0.6","0.4","","","","","0.03203798906","0.3538709708","0.3178979655","0.2359726437","","","","","","","","","","74","J","1","","","145","main_expt",""
"","bandit","225","728664","0.0-187.0-0.0","77564277","wem/bandit_party_1","A2SJC9VRBGNC58","either","4","554","","","","","","","0","0","1","0.2745956728","","0.2","0.8","0.6","0.4","","","","","0.03073079809","0.2745956728","0.2850957273","0.2200332621","","","","","","","","","","74","J","1","","","146","main_expt",""
"","bandit","226","730956","0.0-188.0-0.0","77564277","wem/bandit_party_1","A2SJC9VRBGNC58","either","4","779","","","","","","","0","0","1","0.2375793476","","0.2","0.8","0.6","0.4","","","","","0.05105424151","0.2375793476","0.2483519338","0.1957794229","","","","","","","","","","74","J","1","","","147","main_expt",""
"","bandit","227","733114","0.0-189.0-0.0","77564277","wem/bandit_party_1","A2SJC9VRBGNC58","either","4","642","","","","","","","0","0","1","0.2954602587","","0.2","0.8","0.6","0.4","","","","","0.04045355104","0.2954602587","0.2309770791","0.1790722045","","","","","","","","","","74","J","1","","","148","main_expt",""
"","bandit","228","735337","0.0-190.0-0.0","77564277","wem/bandit_party_1","A2SJC9VRBGNC58","either","4","705","","","","","","","0","0","1","0.3435099865","","0.2","0.8","0.6","0.4","","","","","0.06416506337","0.3435099865","0.1759049641","0.2189150546","","","","","","","","","","74","J","1","","","149","main_expt",""
"","bandit","229","737215","0.0-191.0-0.0","77564277","wem/bandit_party_1","A2SJC9VRBGNC58","either","4","364","","","","","","","0","0","1","0.07819388902","","0.2","0.8","0.6","0.4","","","","","0.07819388902","0.268900415","0.1910702346","0.2119229637","","","","","","","","","","72","H","0","img/none_selected.jpg","","150","main_expt",""
"","bandit","230","739167","0.0-192.0-0.0","77564277","wem/bandit_party_1","A2SJC9VRBGNC58","either","4","440","","","","","","","0","0","1","0.1186979887","","0.2","0.8","0.6","0.4","","","","","0.1186979887","0.2326488896","0.1799178466","0.2472398003","","","","","","","","","","72","H","0","img/none_selected.jpg","","151","main_expt",""
"","bandit","231","741256","0.0-193.0-0.0","77564277","wem/bandit_party_1","A2SJC9VRBGNC58","either","4","579","","","","","","","0","0","1","0.1084773402","","0.2","0.8","0.6","0.4","","","","","0.1084773402","0.2768057641","0.1826140084","0.2148428051","","","","","","","","","","72","H","0","img/none_selected.jpg","","152","main_expt",""
"","bandit","232","743337","0.0-194.0-0.0","77564277","wem/bandit_party_1","A2SJC9VRBGNC58","either","4","569","","","","","","","0","0","1","","0.1314289417","0.2","0.8","0.6","0.4","0.1314289417","0.2997660112","0.147924298","0.1598057249","","","","","","","","","","","","","","72","H","0","img/none_selected.jpg","","153","main_expt",""
"","bandit","233","745755","0.0-195.0-0.0","77564277","wem/bandit_party_1","A2SJC9VRBGNC58","either","4","903","","","","","","","0","0","1","0.1388357139","","0.2","0.8","0.6","0.4","","","","","0.1354051011","0.3196464983","0.1388357139","0.1489099923","","","","","","","","","","75","K","2","","","154","main_expt",""
"","bandit","234","747960","0.0-196.0-0.0","77564277","wem/bandit_party_1","A2SJC9VRBGNC58","either","4","694","","","","","","","1","0","0","0.1658398244","","0.2","0.8","0.6","0.4","","","","","0.1085215933","0.3141654429","0.1658398244","0.1502541116","","","","","","","","","","75","K","2","","","155","main_expt",""
"","bandit","235","750539","0.0-197.0-0.0","77564277","wem/bandit_party_1","A2SJC9VRBGNC58","either","4","1059","","","","","","","0","0","1","0.1104921729","","0.2","0.8","0.6","0.4","","","","","0.1383379057","0.2667217688","0.1104921729","0.1605084188","","","","","","","","","","75","K","2","","","156","main_expt",""
"","bandit","236","752833","0.0-198.0-0.0","77564277","wem/bandit_party_1","A2SJC9VRBGNC58","either","4","781","","","","","","","0","0","1","0.09530810267","","0.2","0.8","0.6","0.4","","","","","0.1428990181","0.2867075714","0.09530810267","0.1684101418","","","","","","","","","","75","K","2","","","157","main_expt",""
"","bandit","237","755002","0.0-199.0-0.0","77564277","wem/bandit_party_1","A2SJC9VRBGNC58","either","4","653","","","","","","","0","0","1","0.1211627972","","0.2","0.8","0.6","0.4","","","","","0.07455979893","0.2788639118","0.1211627972","0.1807688322","","","","","","","","","","75","K","2","","","158","main_expt",""
"","bandit","238","757095","0.0-200.0-0.0","77564277","wem/bandit_party_1","A2SJC9VRBGNC58","either","4","583","","","","","","","0","0","1","0.1012897464","","0.2","0.8","0.6","0.4","","","","","0.1009372764","0.3020710819","0.1012897464","0.1516426412","","","","","","","","","","75","K","2","","","159","main_expt",""
"","bandit","239","759104","0.0-201.0-0.0","77564277","wem/bandit_party_1","A2SJC9VRBGNC58","either","4","499","","","","","","","0","0","1","","0.1188035868","0.2","0.8","0.6","0.4","0.05118862797","0.3404227007","0.1188035868","0.1638698877","","","","","","","","","","","","","","75","K","2","","","160","main_expt",""
"","bandit","240","761218","0.0-202.0-0.0","77564277","wem/bandit_party_1","A2SJC9VRBGNC58","either","4","604","","","","","","","0","0","1","0.1606836622","","0.2","0.8","0.6","0.4","","","","","0.05265847637","0.2876249865","0.1606836622","0.1645359983","","","","","","","","","","75","K","2","","","161","main_expt",""
"","bandit","241","763217","0.0-203.0-0.0","77564277","wem/bandit_party_1","A2SJC9VRBGNC58","either","4","485","","","","","","","0","0","1","0.1859884171","","0.2","0.8","0.6","0.4","","","","","0.07938684611","0.2401308511","0.1859884171","0.2509918509","","","","","","","","","","75","K","2","","","162","main_expt",""
"","bandit","242","765226","0.0-204.0-0.0","77564277","wem/bandit_party_1","A2SJC9VRBGNC58","either","4","491","","","","","","","0","1","0","","0.2528258464","0.2","0.8","0.6","0.4","0.0970900163","0.2486605046","0.2528258464","0.1883685458","","","","","","","","","","","","","","75","K","2","","","163","main_expt",""
"","bandit","243","767424","0.0-205.0-0.0","77564277","wem/bandit_party_1","A2SJC9VRBGNC58","either","4","686","","","","","","","0","0","1","","0.2515292425","0.2","0.8","0.6","0.4","0.07401968201","0.22675384","0.2515292425","0.2179532334","","","","","","","","","","","","","","75","K","2","","","164","main_expt",""
"","bandit","244","769426","0.0-206.0-0.0","77564277","wem/bandit_party_1","A2SJC9VRBGNC58","either","4","484","","","","","","","0","0","1","0.2068970429","","0.2","0.8","0.6","0.4","","","","","0.06633104104","0.2841151948","0.2068970429","0.2143704678","","","","","","","","","","75","K","2","","","165","main_expt",""
"","bandit","245","771418","0.0-207.0-0.0","77564277","wem/bandit_party_1","A2SJC9VRBGNC58","either","4","472","","","","","","","0","0","1","","0.1413778631","0.2","0.8","0.6","0.4","0.05309652092","0.2842980464","0.1413778631","0.2175899085","","","","","","","","","","","","","","75","K","2","","","166","main_expt",""
"","bandit","246","773369","0.0-208.0-0.0","77564277","wem/bandit_party_1","A2SJC9VRBGNC58","either","4","438","","","","","","","0","1","0","","0.2137120923","0.2","0.8","0.6","0.4","0.07357446968","0.3007590714","0.1999497975","0.2137120923","","","","","","","","","","","","","","76","L","3","","","167","main_expt",""
"","bandit","247","775394","0.0-209.0-0.0","77564277","wem/bandit_party_1","A2SJC9VRBGNC58","either","4","506","","","","","","","1","0","0","0.2331560811","","0.2","0.8","0.6","0.4","","","","","0.1054325378","0.2884936601","0.1696145944","0.2331560811","","","","","","","","","","76","L","3","","","168","main_expt",""
"","bandit","248","777298","0.0-210.0-0.0","77564277","wem/bandit_party_1","A2SJC9VRBGNC58","either","4","389","","","","","","","0","0","1","","0.2367963754","0.2","0.8","0.6","0.4","0.08536867429","0.2803439438","0.1338518967","0.2367963754","","","","","","","","","","","","","","76","L","3","","","169","main_expt",""
"","bandit","249","779241","0.0-211.0-0.0","77564277","wem/bandit_party_1","A2SJC9VRBGNC58","either","4","429","","","","","","","0","0","1","0.2378050175","","0.2","0.8","0.6","0.4","","","","","0.1083432756","0.3010437192","0.1307598277","0.2378050175","","","","","","","","","","76","L","3","","","170","main_expt",""
"","bandit","250","781225","0.0-212.0-0.0","77564277","wem/bandit_party_1","A2SJC9VRBGNC58","either","4","471","","","","","","","0","0","1","0.2253696972","","0.2","0.8","0.6","0.4","","","","","0.09185370626","0.3243802095","0.1200375331","0.2253696972","","","","","","","","","","76","L","3","","","171","main_expt",""
"","bandit","251","783136","0.0-213.0-0.0","77564277","wem/bandit_party_1","A2SJC9VRBGNC58","either","4","399","","","","","","","0","0","1","0.2903394368","","0.2","0.8","0.6","0.4","","","","","0.09458096772","0.3140094691","0.07514546963","0.2903394368","","","","","","","","","","76","L","3","","","172","main_expt",""
"","bandit","252","785077","0.0-214.0-0.0","77564277","wem/bandit_party_1","A2SJC9VRBGNC58","either","4","430","","","","","","","0","0","1","","0.2433770114","0.2","0.8","0.6","0.4","0.1016296913","0.2433770114","0.07704486673","0.2384828248","","","","","","","","","","","","","","74","J","1","","","173","main_expt",""
"","bandit","253","787041","0.0-215.0-0.0","77564277","wem/bandit_party_1","A2SJC9VRBGNC58","either","4","446","","","","","","","0","0","1","0.2080779891","","0.2","0.8","0.6","0.4","","","","","0.117107939","0.2080779891","0.04061738922","0.2823111034","","","","","","","","","","74","J","1","","","174","main_expt",""
"","bandit","254","789081","0.0-216.0-0.0","77564277","wem/bandit_party_1","A2SJC9VRBGNC58","either","4","523","","","","","","","0","1","0","","0.2211365803","0.2","0.8","0.6","0.4","0.1254773658","0.2211365803","0.02968316822","0.292147578","","","","","","","","","","","","","","74","J","1","","","175","main_expt",""
"","bandit","255","791322","0.0-217.0-0.0","77564277","wem/bandit_party_1","A2SJC9VRBGNC58","either","4","721","","","","","","","0","0","1","0.231280906","","0.2","0.8","0.6","0.4","","","","","0.1518856622","0.231280906","0.04419366322","0.2928295457","","","","","","","","","","74","J","1","","","176","main_expt",""
"","bandit","256","793538","0.0-218.0-0.0","77564277","wem/bandit_party_1","A2SJC9VRBGNC58","either","4","702","","","","","","","0","0","1","0.1689881391","","0.2","0.8","0.6","0.4","","","","","0.1502483312","0.1689881391","0.04140429262","0.297241693","","","","","","","","","","74","J","1","","","177","main_expt",""
"","bandit","257","795615","0.0-219.0-0.0","77564277","wem/bandit_party_1","A2SJC9VRBGNC58","either","4","564","","","","","","","0","0","1","0.1699404395","","0.2","0.8","0.6","0.4","","","","","0.2073149786","0.1699404395","0.06103489621","0.276241128","","","","","","","","","","74","J","1","","","178","main_expt",""
"","bandit","258","797744","0.0-220.0-0.0","77564277","wem/bandit_party_1","A2SJC9VRBGNC58","either","4","618","","","","","","","0","0","1","","0.1571972967","0.2","0.8","0.6","0.4","0.1928578162","0.1571972967","0.053608248","0.2405339857","","","","","","","","","","","","","","74","J","1","","","179","main_expt",""
"","bandit","259","799713","0.0-221.0-0.0","77564277","wem/bandit_party_1","A2SJC9VRBGNC58","either","4","458","","","","","","","0","0","1","","0.1412953234","0.2","0.8","0.6","0.4","0.1412953234","0.1567782565","0.06289379635","0.233428307","","","","","","","","","","","","","","72","H","0","img/none_selected.jpg","","180","main_expt",""
"","bandit","260","801673","0.0-222.0-0.0","77564277","wem/bandit_party_1","A2SJC9VRBGNC58","either","4","443","","","","","","","0","0","1","","0.1258774719","0.2","0.8","0.6","0.4","0.1258774719","0.1492691696","0.07748386732","0.1459310114","","","","","","","","","","","","","","72","H","0","img/none_selected.jpg","","181","main_expt",""
"","bandit","261","803738","0.0-223.0-0.0","77564277","wem/bandit_party_1","A2SJC9VRBGNC58","either","4","552","","","","","","","0","0","1","","0.1121960069","0.2","0.8","0.6","0.4","0.1121960069","0.1609613705","0.096714051","0.1796360657","","","","","","","","","","","","","","72","H","0","img/none_selected.jpg","","182","main_expt",""
"","bandit","262","805689","0.0-224.0-0.0","77564277","wem/bandit_party_1","A2SJC9VRBGNC58","either","4","433","","","","","","","0","0","1","0.08335286121","","0.2","0.8","0.6","0.4","","","","","0.08335286121","0.1982891881","0.05351369794","0.1907874973","","","","","","","","","","72","H","0","img/none_selected.jpg","","183","main_expt",""
"","bandit","263","807840","0.0-225.0-0.0","77564277","wem/bandit_party_1","A2SJC9VRBGNC58","either","4","636","","","","","","","0","0","1","0.1703318442","","0.2","0.8","0.6","0.4","","","","","0.1085923678","0.1703318442","0.08854511538","0.1451627339","","","","","","","","","","74","J","1","","","184","main_expt",""
"","bandit","264","809774","0.0-226.0-0.0","77564277","wem/bandit_party_1","A2SJC9VRBGNC58","either","4","418","","","","","","","0","0","1","0.09566746086","","0.2","0.8","0.6","0.4","","","","","0.1113654269","0.09566746086","0.136385666","0.1692531577","","","","","","","","","","74","J","1","","","185","main_expt",""
"","bandit","265","811714","0.0-227.0-0.0","77564277","wem/bandit_party_1","A2SJC9VRBGNC58","either","4","428","","","","","","","0","0","1","0.1254261761","","0.2","0.8","0.6","0.4","","","","","0.1383531569","0.1254261761","0.1848043888","0.1885113298","","","","","","","","","","74","J","1","","","186","main_expt",""
"","bandit","266","813617","0.0-228.0-0.0","77564277","wem/bandit_party_1","A2SJC9VRBGNC58","either","4","384","","","","","","","0","0","1","0.1640989128","","0.2","0.8","0.6","0.4","","","","","0.1739713275","0.1081798115","0.1640989128","0.2088125345","","","","","","","","","","75","K","2","","","187","main_expt",""
"","bandit","267","815514","0.0-229.0-0.0","77564277","wem/bandit_party_1","A2SJC9VRBGNC58","either","4","383","","","","","","","0","0","1","0.1301402021","","0.2","0.8","0.6","0.4","","","","","0.1926366302","0.08529062399","0.1301402021","0.2228369986","","","","","","","","","","75","K","2","","","188","main_expt",""
"","bandit","268","817442","0.0-230.0-0.0","77564277","wem/bandit_party_1","A2SJC9VRBGNC58","either","4","413","","","","","","","0","0","1","","0.1980942663","0.2","0.8","0.6","0.4","0.2499935398","0.07250281893","0.1980942663","0.2567428292","","","","","","","","","","","","","","75","K","2","","","189","main_expt",""
"","bandit","269","819427","0.0-231.0-0.0","77564277","wem/bandit_party_1","A2SJC9VRBGNC58","either","4","470","","","","","","","0","0","1","","0.1842725295","0.2","0.8","0.6","0.4","0.2367317824","0.07895395147","0.1842725295","0.3177850294","","","","","","","","","","","","","","75","K","2","","","190","main_expt",""
"","bandit","270","821303","0.0-232.0-0.0","77564277","wem/bandit_party_1","A2SJC9VRBGNC58","either","4","365","","","","","","","0","0","1","","0.2087081259","0.2","0.8","0.6","0.4","0.2515026666","0.06204701637","0.2087081259","0.2876912335","","","","","","","","","","","","","","75","K","2","","","191","main_expt",""
"","bandit","271","823089","0.0-233.0-0.0","77564277","wem/bandit_party_1","A2SJC9VRBGNC58","either","4","275","","","","","","","0","0","1","0.2383873749","","0.2","0.8","0.6","0.4","","","","","0.2451916405","0.064067899","0.1800110976","0.2383873749","","","","","","","","","","76","L","3","","","192","main_expt",""
"","bandit","272","824963","0.0-234.0-0.0","77564277","wem/bandit_party_1","A2SJC9VRBGNC58","either","4","358","","","","","","","0","0","1","","0.24690957","0.2","0.8","0.6","0.4","0.2353451433","0.1286650472","0.1519186298","0.24690957","","","","","","","","","","","","","","76","L","3","","","193","main_expt",""
"","bandit","273","826888","0.0-235.0-0.0","77564277","wem/bandit_party_1","A2SJC9VRBGNC58","either","4","407","","","","","","","0","0","1","","0.2728455101","0.2","0.8","0.6","0.4","0.307075739","0.1746490116","0.1431656489","0.2728455101","","","","","","","","","","","","","","76","L","3","","","194","main_expt",""
"","bandit","274","828814","0.0-236.0-0.0","77564277","wem/bandit_party_1","A2SJC9VRBGNC58","either","4","409","","","","","","","0","0","1","0.2421292151","","0.2","0.8","0.6","0.4","","","","","0.3011001907","0.129035247","0.1868251083","0.2421292151","","","","","","","","","","76","L","3","","","195","main_expt",""
"","bandit","275","830973","0.0-237.0-0.0","77564277","wem/bandit_party_1","A2SJC9VRBGNC58","either","4","637","","","","","","","0","1","0","","0.2598052724","0.2","0.8","0.6","0.4","0.2861216794","0.09052040682","0.176624335","0.2598052724","","","","","","","","","","","","","","76","L","3","","","196","main_expt",""
"","bandit","276","833099","0.0-238.0-0.0","77564277","wem/bandit_party_1","A2SJC9VRBGNC58","either","4","606","","","","","","","0","0","1","0.2540930088","","0.2","0.8","0.6","0.4","","","","","0.2121549007","0.08675464884","0.2383323772","0.2540930088","","","","","","","","","","76","L","3","","","197","main_expt",""
"","bandit","277","835184","0.0-239.0-0.0","77564277","wem/bandit_party_1","A2SJC9VRBGNC58","either","4","575","","","","","","","0","0","1","","0.2460150375","0.2","0.8","0.6","0.4","0.260340052","0.09429549835","0.260618614","0.2460150375","","","","","","","","","","","","","","76","L","3","","","198","main_expt",""
"","bandit","278","837104","0.0-240.0-0.0","77564277","wem/bandit_party_1","A2SJC9VRBGNC58","either","4","408","","","","","","","0","0","1","","0.2217343644","0.2","0.8","0.6","0.4","0.3009562829","0.09303778716","0.2935067364","0.2217343644","","","","","","","","","","","","","","76","L","3","","","199","main_expt",""
"","bandit","279","839054","0.0-241.0-0.0","77564277","wem/bandit_party_1","A2SJC9VRBGNC58","either","4","431","","","","","","","1","0","0","0.2830302048","","0.2","0.8","0.6","0.4","","","","","0.3430896668","0.07354084322","0.362920627","0.2830302048","","","","","","","","","","76","L","3","","","200","main_expt",""
"","bandit","280","841108","0.0-242.0-0.0","77564277","wem/bandit_party_1","A2SJC9VRBGNC58","either","4","546","","","","","","","0","0","1","","0.3175621279","0.2","0.8","0.6","0.4","0.2973668079","0.08115367452","0.3119044903","0.3175621279","","","","","","","","","","","","","","76","L","3","","","201","main_expt",""
"","bandit","281","843076","0.0-243.0-0.0","77564277","wem/bandit_party_1","A2SJC9VRBGNC58","either","4","460","","","","","","","0","0","1","","0.3049471546","0.2","0.8","0.6","0.4","0.3219337599","0.0774842685","0.3095695708","0.3049471546","","","","","","","","","","","","","","76","L","3","","","202","main_expt",""
"","bandit","282","844908","0.0-244.0-0.0","77564277","wem/bandit_party_1","A2SJC9VRBGNC58","either","4","323","","","","","","","0","0","1","0.2975042969","","0.2","0.8","0.6","0.4","","","","","0.3229991028","0.09704724367","0.3005459379","0.2975042969","","","","","","","","","","76","L","3","","","203","main_expt",""
"","bandit","283","846829","0.0-245.0-0.0","77564277","wem/bandit_party_1","A2SJC9VRBGNC58","either","4","411","","","","","","","1","0","0","0.2268457719","","0.2","0.8","0.6","0.4","","","","","0.3077995671","0.1224111047","0.3116824409","0.2268457719","","","","","","","","","","76","L","3","","","204","main_expt",""
"","bandit","284","848804","0.0-246.0-0.0","77564277","wem/bandit_party_1","A2SJC9VRBGNC58","either","4","467","","","","","","","0","0","1","0.2582085449","","0.2","0.8","0.6","0.4","","","","","0.3070199156","0.1627664319","0.3291635812","0.2582085449","","","","","","","","","","76","L","3","","","205","main_expt",""
"","bandit","285","850740","0.0-247.0-0.0","77564277","wem/bandit_party_1","A2SJC9VRBGNC58","either","4","428","","","","","","","0","1","0","","0.2841247045","0.2","0.8","0.6","0.4","0.3109683939","0.1604236747","0.4008790519","0.2841247045","","","","","","","","","","","","","","76","L","3","","","206","main_expt",""
"","bandit","286","852683","0.0-248.0-0.0","77564277","wem/bandit_party_1","A2SJC9VRBGNC58","either","4","436","","","","","","","0","1","0","","0.3333225396","0.2","0.8","0.6","0.4","0.2845075958","0.126388554","0.4202180382","0.3333225396","","","","","","","","","","","","","","76","L","3","","","207","main_expt",""
"","bandit","287","854580","0.0-249.0-0.0","77564277","wem/bandit_party_1","A2SJC9VRBGNC58","either","4","388","","","","","","","0","0","1","0.290219871","","0.2","0.8","0.6","0.4","","","","","0.2419557814","0.1602309633","0.4168586074","0.290219871","","","","","","","","","","76","L","3","","","208","main_expt",""
"","bandit","288","856596","0.0-250.0-0.0","77564277","wem/bandit_party_1","A2SJC9VRBGNC58","either","4","508","","","","","","","0","0","1","","0.3426384504","0.2","0.8","0.6","0.4","0.2449545816","0.2009997365","0.3949328033","0.3426384504","","","","","","","","","","","","","","76","L","3","","","209","main_expt",""
"","bandit","289","858492","0.0-251.0-0.0","77564277","wem/bandit_party_1","A2SJC9VRBGNC58","either","4","387","","","","","","","0","0","1","","0.2932754766","0.2","0.8","0.6","0.4","0.2176860071","0.1997114924","0.41782505","0.2932754766","","","","","","","","","","","","","","76","L","3","","","210","main_expt",""
"","bandit","290","860300","0.0-252.0-0.0","77564277","wem/bandit_party_1","A2SJC9VRBGNC58","either","4","301","","","","","","","0","0","1","","0.2522206247","0.2","0.8","0.6","0.4","0.2460847292","0.2631807131","0.4377941382","0.2522206247","","","","","","","","","","","","","","76","L","3","","","211","main_expt",""
"","bandit","291","862004","0.0-253.0-0.0","77564277","wem/bandit_party_1","A2SJC9VRBGNC58","either","4","196","","","","","","","0","1","0","","0.2323705111","0.2","0.8","0.6","0.4","0.2017704833","0.2008991105","0.4619006446","0.2323705111","","","","","","","","","","","","","","76","L","3","","","212","main_expt",""
"","bandit","292","863965","0.0-254.0-0.0","77564277","wem/bandit_party_1","A2SJC9VRBGNC58","either","4","452","","","","","","","0","0","1","","0.2815580385","0.2","0.8","0.6","0.4","0.1891715169","0.1656487101","0.4508737721","0.2815580385","","","","","","","","","","","","","","76","L","3","","","213","main_expt",""
"","bandit","293","865844","0.0-255.0-0.0","77564277","wem/bandit_party_1","A2SJC9VRBGNC58","either","4","371","","","","","","","0","0","1","","0.2955812139","0.2","0.8","0.6","0.4","0.1819308411","0.213788386","0.4639731149","0.2955812139","","","","","","","","","","","","","","76","L","3","","","214","main_expt",""
"","bandit","294","867597","0.0-256.0-0.0","77564277","wem/bandit_party_1","A2SJC9VRBGNC58","either","4","243","","","","","","","0","0","1","","0.2988647484","0.2","0.8","0.6","0.4","0.1406935411","0.2206736926","0.4690757113","0.2988647484","","","","","","","","","","","","","","76","L","3","","","215","main_expt",""
"","bandit","295","869493","0.0-257.0-0.0","77564277","wem/bandit_party_1","A2SJC9VRBGNC58","either","4","387","","","","","","","0","0","1","","0.3361974059","0.2","0.8","0.6","0.4","0.206739756","0.2270120675","0.4685680314","0.3361974059","","","","","","","","","","","","","","76","L","3","","","216","main_expt",""
"","bandit","296","871354","0.0-258.0-0.0","77564277","wem/bandit_party_1","A2SJC9VRBGNC58","either","4","347","","","","","","","0","0","1","0.2764506131","","0.2","0.8","0.6","0.4","","","","","0.178624692","0.2561581829","0.4873952874","0.2764506131","","","","","","","","","","76","L","3","","","217","main_expt",""
"","bandit","297","873328","0.0-259.0-0.0","77564277","wem/bandit_party_1","A2SJC9VRBGNC58","either","4","460","","","","","","","0","0","1","","0.4790671899","0.2","0.8","0.6","0.4","0.2021641755","0.2785758431","0.4790671899","0.299893698","","","","","","","","","","","","","","75","K","2","","","218","main_expt",""
"","bandit","298","875303","0.0-260.0-0.0","77564277","wem/bandit_party_1","A2SJC9VRBGNC58","either","4","462","","","","","","","0","0","1","0.4769795117","","0.2","0.8","0.6","0.4","","","","","0.2076996705","0.2707863597","0.4769795117","0.3213687962","","","","","","","","","","75","K","2","","","219","main_expt",""
"","bandit","299","877209","0.0-261.0-0.0","77564277","wem/bandit_party_1","A2SJC9VRBGNC58","either","4","390","","","","","","","0","0","1","","0.4746148145","0.2","0.8","0.6","0.4","0.2479045362","0.2262269101","0.4746148145","0.3782095139","","","","","","","","","","","","","","75","K","2","","","220","main_expt",""
"","bandit","300","879184","0.0-262.0-0.0","77564277","wem/bandit_party_1","A2SJC9VRBGNC58","either","4","463","","","","","","","1","0","0","0.4789253058","","0.2","0.8","0.6","0.4","","","","","0.251163546","0.2522421151","0.4789253058","0.3572699546","","","","","","","","","","75","K","2","","","221","main_expt",""
"","bandit","301","881118","0.0-263.0-0.0","77564277","wem/bandit_party_1","A2SJC9VRBGNC58","either","4","421","","","","","","","0","0","1","","0.4765400837","0.2","0.8","0.6","0.4","0.2653622565","0.2323100388","0.4765400837","0.332217079","","","","","","","","","","","","","","75","K","2","","","222","main_expt",""
"","bandit","302","883032","0.0-264.0-0.0","77564277","wem/bandit_party_1","A2SJC9VRBGNC58","either","4","405","","","","","","","1","0","0","0.4872993944","","0.2","0.8","0.6","0.4","","","","","0.2034578964","0.2013525365","0.4872993944","0.3327789551","","","","","","","","","","75","K","2","","","223","main_expt",""
"","bandit","303","884983","0.0-265.0-0.0","77564277","wem/bandit_party_1","A2SJC9VRBGNC58","either","4","440","","","","","","","1","0","0","0.4864577786","","0.2","0.8","0.6","0.4","","","","","0.1176985371","0.2017363432","0.4864577786","0.3720138676","","","","","","","","","","75","K","2","","","224","main_expt",""
"","bandit","304","886889","0.0-266.0-0.0","77564277","wem/bandit_party_1","A2SJC9VRBGNC58","either","4","387","","","","","","","0","0","1","0.4815865163","","0.2","0.8","0.6","0.4","","","","","0.08531446518","0.1608447522","0.4815865163","0.4035982493","","","","","","","","","","75","K","2","","","225","main_expt",""
"","bandit","305","888889","0.0-267.0-0.0","77564277","wem/bandit_party_1","A2SJC9VRBGNC58","either","4","482","","","","","","","0","0","1","0.4781941344","","0.2","0.8","0.6","0.4","","","","","0.0901010045","0.2023183299","0.4781941344","0.3538577565","","","","","","","","","","75","K","2","","","226","main_expt",""
"","bandit","306","890800","0.0-268.0-0.0","77564277","wem/bandit_party_1","A2SJC9VRBGNC58","either","4","396","","","","","","","0","1","0","","0.4742279627","0.2","0.8","0.6","0.4","0.06499555022","0.1555458008","0.4742279627","0.4205879778","","","","","","","","","","","","","","75","K","2","","","227","main_expt",""
"","bandit","307","892768","0.0-269.0-0.0","77564277","wem/bandit_party_1","A2SJC9VRBGNC58","either","4","453","","","","","","","1","0","0","0.4597327255","","0.2","0.8","0.6","0.4","","","","","0.06967502077","0.1210896773","0.4597327255","0.4082381823","","","","","","","","","","75","K","2","","","228","main_expt",""
"","bandit","308","894707","0.0-270.0-0.0","77564277","wem/bandit_party_1","A2SJC9VRBGNC58","either","4","419","","","","","","","0","0","1","","0.4733003713","0.2","0.8","0.6","0.4","0.07642173418","0.1206830913","0.4733003713","0.4274963613","","","","","","","","","","","","","","75","K","2","","","229","main_expt",""
"","bandit","309","896625","0.0-271.0-0.0","77564277","wem/bandit_party_1","A2SJC9VRBGNC58","either","4","403","","","","","","","0","0","1","0.4832022084","","0.2","0.8","0.6","0.4","","","","","0.04973788902","0.1334008039","0.4832022084","0.4362488765","","","","","","","","","","75","K","2","","","230","main_expt",""
"","bandit","310","898544","0.0-272.0-0.0","77564277","wem/bandit_party_1","A2SJC9VRBGNC58","either","4","400","","","","","","","0","0","1","0.4802630573","","0.2","0.8","0.6","0.4","","","","","0.07419495466","0.1048467088","0.4802630573","0.4420629534","","","","","","","","","","75","K","2","","","231","main_expt",""
"","bandit","311","900415","0.0-273.0-0.0","77564277","wem/bandit_party_1","A2SJC9VRBGNC58","either","4","351","","","","","","","1","0","0","0.4739318499","","0.2","0.8","0.6","0.4","","","","","0.08125260149","0.1184002818","0.4739318499","0.4287414635","","","","","","","","","","75","K","2","","","232","main_expt",""
"","bandit","312","902303","0.0-274.0-0.0","77564277","wem/bandit_party_1","A2SJC9VRBGNC58","either","4","374","","","","","","","0","0","1","","0.4709765286","0.2","0.8","0.6","0.4","0.06057073796","0.08533064469","0.4709765286","0.4395511981","","","","","","","","","","","","","","75","K","2","","","233","main_expt",""
"","bandit","313","904192","0.0-275.0-0.0","77564277","wem/bandit_party_1","A2SJC9VRBGNC58","either","4","369","","","","","","","0","0","1","0.4658145356","","0.2","0.8","0.6","0.4","","","","","0.1037411708","0.1190123434","0.4658145356","0.4479240545","","","","","","","","","","75","K","2","","","234","main_expt",""
"","bandit","314","906193","0.0-276.0-0.0","77564277","wem/bandit_party_1","A2SJC9VRBGNC58","either","4","488","","","","","","","0","0","1","0.4312508187","","0.2","0.8","0.6","0.4","","","","","0.1267441937","0.1392024459","0.4312508187","0.4476644646","","","","","","","","","","75","K","2","","","235","main_expt",""
"","bandit","315","908090","0.0-277.0-0.0","77564277","wem/bandit_party_1","A2SJC9VRBGNC58","either","4","375","","","","","","","0","1","0","","0.4323277229","0.2","0.8","0.6","0.4","0.1002206095","0.1076242464","0.4323277229","0.457106966","","","","","","","","","","","","","","75","K","2","","","236","main_expt",""
"","bandit","316","910544","0.0-278.0-0.0","77564277","wem/bandit_party_1","A2SJC9VRBGNC58","either","4","944","","","","","","","1","0","0","0.4517679415","","0.2","0.8","0.6","0.4","","","","","0.08353940566","0.1539911713","0.4517679415","0.4097288684","","","","","","","","","","75","K","2","","","237","main_expt",""
"","bandit","317","912551","0.0-279.0-0.0","77564277","wem/bandit_party_1","A2SJC9VRBGNC58","either","4","486","","","","","","","0","0","1","0.4476427196","","0.2","0.8","0.6","0.4","","","","","0.07847158511","0.1833253983","0.4476427196","0.4530646831","","","","","","","","","","75","K","2","","","238","main_expt",""
"","bandit","318","914472","0.0-280.0-0.0","77564277","wem/bandit_party_1","A2SJC9VRBGNC58","either","4","407","","","","","","","1","0","0","0.4421551546","","0.2","0.8","0.6","0.4","","","","","0.1132310855","0.185515968","0.4421551546","0.4532148127","","","","","","","","","","75","K","2","","","239","main_expt",""
