"consent","trial_type","trial_index","time_elapsed","internal_node_id","subjID","study","MID","cond","drift","rt","responses","button_pressed","key_press","like","value","connected","gems","bombs","no_reward","GemPrChosen","BombPrChosen","GainOverPainPr_0","GainOverPainPr_1","GainOverPainPr_2","GainOverPainPr_3","LosePr_0","LosePr_1","LosePr_2","LosePr_3","WinPr_0","WinPr_1","WinPr_2","WinPr_3","Q0","Q1","Q2","gender","age","ethnicity","label","expt_phase","target","respCharCode","respKey","respChoiceNum","respChoice","practice","trial_counter","trial_label","Q0_index"
"GDM/GDM_behavioral_consent_30min_online.html","consent","0","7575","0.0-0.0","78811911","wem/bandit_party_1","AA3R1CNZAEH2O","either","2","","","","","","","","","","","","","","","","","","","","","","","","","","","","","","","","","","","","","","","","",""
"","survey-text","1","14648","0.0-1.0","78811911","wem/bandit_party_1","AA3R1CNZAEH2O","either","2","6066","{""Q0"":""AA3R1CNZAEH2O""}","","","","","","","","","","","","","","","","","","","","","","","","","","","","","","","","","","","","","","",""
"","button-response","2","20484","0.0-2.0","78811911","wem/bandit_party_1","AA3R1CNZAEH2O","either","2","4827","","0","","","","","","","","","","","","","","","","","","","","","","","","","","","","","","","","","","","","","",""
"","text-replacement","3","30329","0.0-3.0","78811911","wem/bandit_party_1","AA3R1CNZAEH2O","either","2","8842","","","32","","","","","","","","","","","","","","","","","","","","","","","","","","","","","","","","","","","","",""
"","text-replacement","4","42335","0.0-4.0","78811911","wem/bandit_party_1","AA3R1CNZAEH2O","either","2","12004","","","32","","","","","","","","","","","","","","","","","","","","","","","","","","","","","","","","","","","","",""
"","identification","5","50441","0.0-6.0-0.0","78811911","wem/bandit_party_1","AA3R1CNZAEH2O","either","2","8096","","","","3","3","3","","","","","","","","","","","","","","","","","","","","","","","","pre","identification_pre","the Republican party","","","","","","","",""
"","identification","6","58825","0.0-6.0-1.0","78811911","wem/bandit_party_1","AA3R1CNZAEH2O","either","2","7374","","","","2","2","2","","","","","","","","","","","","","","","","","","","","","","","","pre","identification_pre","the Democratic Party","","","","","","","",""
"","text-replacement","7","67846","0.0-7.0","78811911","wem/bandit_party_1","AA3R1CNZAEH2O","either","2","8014","","","32","","","","","","","","","","","","","","","","","","","","","","","","","","","","","","","","","","","","",""
"","text-replacement","8","73406","0.0-8.0","78811911","wem/bandit_party_1","AA3R1CNZAEH2O","either","2","5556","","","32","","","","","","","","","","","","","","","","","","","","","","","","","","","","","","","","","","","","",""
"","text-replacement","9","82774","0.0-9.0","78811911","wem/bandit_party_1","AA3R1CNZAEH2O","either","2","9366","","","32","","","","","","","","","","","","","","","","","","","","","","","","","","","","","","","","","","","","",""
"","text-replacement","10","87093","0.0-10.0","78811911","wem/bandit_party_1","AA3R1CNZAEH2O","either","2","4317","","","32","","","","","","","","","","","","","","","","","","","","","","","","","","","","","","","","","","","","",""
"","text-replacement","11","92212","0.0-11.0","78811911","wem/bandit_party_1","AA3R1CNZAEH2O","either","2","5118","","","32","","","","","","","","","","","","","","","","","","","","","","","","","","","","","","","","","","","","",""
"","bandit","12","96278","0.0-12.0-0.0","78811911","wem/bandit_party_1","AA3R1CNZAEH2O","either","2","2559","","","","","","","0","0","1","0","0","","","","","0","","","","0","","","","","","","","","","","","","74","J","0","img/none_selected_demo.jpg","true","0","",""
"","bandit","13","99834","0.0-13.0-0.0","78811911","wem/bandit_party_1","AA3R1CNZAEH2O","either","2","2051","","","","","","","0","0","1","0","0","","","","","0","","","","0","","","","","","","","","","","","","75","K","0","img/none_selected_demo.jpg","true","0","",""
"","text-replacement","14","104379","0.0-14.0","78811911","wem/bandit_party_1","AA3R1CNZAEH2O","either","2","4544","","","32","","","","","","","","","","","","","","","","","","","","","","","","","","","","","","","","","","","","",""
"","text-replacement","15","107104","0.0-15.0","78811911","wem/bandit_party_1","AA3R1CNZAEH2O","either","2","2723","","","32","","","","","","","","","","","","","","","","","","","","","","","","","","","","","","","","","","","","",""
"","text-replacement","16","114765","0.0-16.0","78811911","wem/bandit_party_1","AA3R1CNZAEH2O","either","2","7658","","","32","","","","","","","","","","","","","","","","","","","","","","","","","","","","","","","","","","","","",""
"","text-replacement","17","118451","0.0-17.0","78811911","wem/bandit_party_1","AA3R1CNZAEH2O","either","2","3685","","","32","","","","","","","","","","","","","","","","","","","","","","","","","","","","","","","","","","","","",""
"","bandit","18","120881","0.0-18.0-0.0","78811911","wem/bandit_party_1","AA3R1CNZAEH2O","either","2","926","","","","","","","0","0","1","0.2","","0.5","0.5","","","","","","","0.8","0.2","","","","","","","","","","","","75","K","1","","true","0","80_20_practice",""
"","bandit","19","122949","0.0-18.0-1.0","78811911","wem/bandit_party_1","AA3R1CNZAEH2O","either","2","560","","","","","","","0","0","1","0.2","","0.5","0.5","","","","","","","0.8","0.2","","","","","","","","","","","","75","K","1","","true","0","80_20_practice",""
"","bandit","20","124801","0.0-18.0-2.0","78811911","wem/bandit_party_1","AA3R1CNZAEH2O","either","2","346","","","","","","","0","0","1","0.8","","0.5","0.5","","","","","","","0.8","0.2","","","","","","","","","","","","74","J","0","img/none_selected_demo.jpg","true","0","80_20_practice",""
"","bandit","21","126651","0.0-18.0-3.0","78811911","wem/bandit_party_1","AA3R1CNZAEH2O","either","2","342","","","","","","","0","0","1","0.8","","0.5","0.5","","","","","","","0.8","0.2","","","","","","","","","","","","74","J","0","img/none_selected_demo.jpg","true","0","80_20_practice",""
"","bandit","22","128555","0.0-18.0-4.0","78811911","wem/bandit_party_1","AA3R1CNZAEH2O","either","2","397","","","","","","","0","0","1","0.2","","0.5","0.5","","","","","","","0.8","0.2","","","","","","","","","","","","75","K","1","","true","0","80_20_practice",""
"","bandit","23","130412","0.0-18.0-5.0","78811911","wem/bandit_party_1","AA3R1CNZAEH2O","either","2","351","","","","","","","0","1","0","","0.8","0.5","0.5","","","0.8","0.2","","","","","","","","","","","","","","","","74","J","0","img/none_selected_demo.jpg","true","0","80_20_practice",""
"","bandit","24","132369","0.0-18.0-6.0","78811911","wem/bandit_party_1","AA3R1CNZAEH2O","either","2","450","","","","","","","0","1","0","","0.8","0.5","0.5","","","0.8","0.2","","","","","","","","","","","","","","","","74","J","0","img/none_selected_demo.jpg","true","0","80_20_practice",""
"","bandit","25","134195","0.0-18.0-7.0","78811911","wem/bandit_party_1","AA3R1CNZAEH2O","either","2","319","","","","","","","0","0","1","","0.8","0.5","0.5","","","0.8","0.2","","","","","","","","","","","","","","","","74","J","0","img/none_selected_demo.jpg","true","0","80_20_practice",""
"","bandit","26","136001","0.0-18.0-8.0","78811911","wem/bandit_party_1","AA3R1CNZAEH2O","either","2","300","","","","","","","0","1","0","","0.8","0.5","0.5","","","0.8","0.2","","","","","","","","","","","","","","","","74","J","0","img/none_selected_demo.jpg","true","0","80_20_practice",""
"","bandit","27","137834","0.0-18.0-9.0","78811911","wem/bandit_party_1","AA3R1CNZAEH2O","either","2","328","","","","","","","0","0","1","","0.8","0.5","0.5","","","0.8","0.2","","","","","","","","","","","","","","","","74","J","0","img/none_selected_demo.jpg","true","0","80_20_practice",""
"","bandit","28","139601","0.0-18.0-10.0","78811911","wem/bandit_party_1","AA3R1CNZAEH2O","either","2","257","","","","","","","0","1","0","","0.8","0.5","0.5","","","0.8","0.2","","","","","","","","","","","","","","","","74","J","0","img/none_selected_demo.jpg","true","0","80_20_practice",""
"","bandit","29","141403","0.0-18.0-11.0","78811911","wem/bandit_party_1","AA3R1CNZAEH2O","either","2","295","","","","","","","1","0","0","0.8","","0.5","0.5","","","","","","","0.8","0.2","","","","","","","","","","","","74","J","0","img/none_selected_demo.jpg","true","0","80_20_practice",""
"","bandit","30","143231","0.0-18.0-12.0","78811911","wem/bandit_party_1","AA3R1CNZAEH2O","either","2","325","","","","","","","0","0","1","0.8","","0.5","0.5","","","","","","","0.8","0.2","","","","","","","","","","","","74","J","0","img/none_selected_demo.jpg","true","0","80_20_practice",""
"","bandit","31","144856","0.0-18.0-13.0","78811911","wem/bandit_party_1","AA3R1CNZAEH2O","either","2","121","","","","","","","0","1","0","","0.8","0.5","0.5","","","0.8","0.2","","","","","","","","","","","","","","","","74","J","0","img/none_selected_demo.jpg","true","0","80_20_practice",""
"","bandit","32","146696","0.0-18.0-14.0","78811911","wem/bandit_party_1","AA3R1CNZAEH2O","either","2","336","","","","","","","1","0","0","0.8","","0.5","0.5","","","","","","","0.8","0.2","","","","","","","","","","","","74","J","0","img/none_selected_demo.jpg","true","0","80_20_practice",""
"","bandit","33","148512","0.0-18.0-15.0","78811911","wem/bandit_party_1","AA3R1CNZAEH2O","either","2","309","","","","","","","1","0","0","0.8","","0.5","0.5","","","","","","","0.8","0.2","","","","","","","","","","","","74","J","0","img/none_selected_demo.jpg","true","0","80_20_practice",""
"","bandit","34","150360","0.0-18.0-16.0","78811911","wem/bandit_party_1","AA3R1CNZAEH2O","either","2","333","","","","","","","0","1","0","","0.8","0.5","0.5","","","0.8","0.2","","","","","","","","","","","","","","","","74","J","0","img/none_selected_demo.jpg","true","0","80_20_practice",""
"","bandit","35","152217","0.0-18.0-17.0","78811911","wem/bandit_party_1","AA3R1CNZAEH2O","either","2","349","","","","","","","0","1","0","","0.8","0.5","0.5","","","0.8","0.2","","","","","","","","","","","","","","","","74","J","0","img/none_selected_demo.jpg","true","0","80_20_practice",""
"","bandit","36","154017","0.0-18.0-18.0","78811911","wem/bandit_party_1","AA3R1CNZAEH2O","either","2","291","","","","","","","1","0","0","0.8","","0.5","0.5","","","","","","","0.8","0.2","","","","","","","","","","","","74","J","0","img/none_selected_demo.jpg","true","0","80_20_practice",""
"","bandit","37","155839","0.0-18.0-19.0","78811911","wem/bandit_party_1","AA3R1CNZAEH2O","either","2","318","","","","","","","1","0","0","0.8","","0.5","0.5","","","","","","","0.8","0.2","","","","","","","","","","","","74","J","0","img/none_selected_demo.jpg","true","0","80_20_practice",""
"","text-replacement","38","170850","0.0-19.0","78811911","wem/bandit_party_1","AA3R1CNZAEH2O","either","2","15008","","","32","","","","","","","","","","","","","","","","","","","","","","","","","","","","","","","","","","","","",""
"","bandit","39","175745","0.0-20.0-0.0","78811911","wem/bandit_party_1","AA3R1CNZAEH2O","either","2","3385","","","","","","","1","0","0","1","0","","","","","0","1","","","1","0","","","","","","","","","","","","74","J","0","img/none_selected_demo.jpg","true","0","",""
"","text-replacement","40","181485","0.0-21.0","78811911","wem/bandit_party_1","AA3R1CNZAEH2O","either","2","5734","","","32","","","","","","","","","","","","","","","","","","","","","","","","","","","","","","","","","","","","",""
"","text-replacement","41","186113","0.0-22.0","78811911","wem/bandit_party_1","AA3R1CNZAEH2O","either","2","4624","","","32","","","","","","","","","","","","","","","","","","","","","","","","","","","","","","","","","","","","",""
"","text-replacement","42","189041","0.0-23.0","78811911","wem/bandit_party_1","AA3R1CNZAEH2O","either","2","2926","","","32","","","","","","","","","","","","","","","","","","","","","","","","","","","","","","","","","","","","",""
"","text-replacement","43","193437","0.0-24.0","78811911","wem/bandit_party_1","AA3R1CNZAEH2O","either","2","4392","","","32","","","","","","","","","","","","","","","","","","","","","","","","","","","","","","","","","","","","",""
"","text-replacement","44","195440","0.0-25.0","78811911","wem/bandit_party_1","AA3R1CNZAEH2O","either","2","2001","","","32","","","","","","","","","","","","","","","","","","","","","","","","","","","","","","","","","","","","",""
"","text-replacement","45","198240","0.0-26.0","78811911","wem/bandit_party_1","AA3R1CNZAEH2O","either","2","2798","","","32","","","","","","","","","","","","","","","","","","","","","","","","","","","","","","","","","","","","",""
"","text-replacement","46","201313","0.0-27.0","78811911","wem/bandit_party_1","AA3R1CNZAEH2O","either","2","3071","","","32","","","","","","","","","","","","","","","","","","","","","","","","","","","","","","","","","","","","",""
"","text-replacement","47","226119","0.0-28.0","78811911","wem/bandit_party_1","AA3R1CNZAEH2O","either","2","24802","","","32","","","","","","","","","","","","","","","","","","","","","","","","","","","","","","","","","","","","",""
"","text-replacement","48","229239","0.0-29.0","78811911","wem/bandit_party_1","AA3R1CNZAEH2O","either","2","3119","","","32","","","","","","","","","","","","","","","","","","","","","","","","","","","","","","","","","","","","",""
"","text-replacement","49","231137","0.0-30.0","78811911","wem/bandit_party_1","AA3R1CNZAEH2O","either","2","1895","","","32","","","","","","","","","","","","","","","","","","","","","","","","","","","","","","","","","","","","",""
"","text-replacement","50","237232","0.0-31.0","78811911","wem/bandit_party_1","AA3R1CNZAEH2O","either","2","6091","","","32","","","","","","","","","","","","","","","","","","","","","","","","","","","","","","","","","","","","",""
"","bandit","51","239310","0.0-32.0-0.0","78811911","wem/bandit_party_1","AA3R1CNZAEH2O","either","2","569","","","","","","","1","0","0","0.8","","0.5","0.5","0.5","0.5","","","","","0.8","0.2","0.6","0.2","","","","","","","","","","72","H","0","img/none_selected.jpg","true","0","full_practice",""
"","bandit","52","241205","0.0-32.0-1.0","78811911","wem/bandit_party_1","AA3R1CNZAEH2O","either","2","388","","","","","","","1","0","0","0.8","","0.5","0.5","0.5","0.5","","","","","0.8","0.2","0.6","0.2","","","","","","","","","","72","H","0","img/none_selected.jpg","true","0","full_practice",""
"","bandit","53","243031","0.0-32.0-2.0","78811911","wem/bandit_party_1","AA3R1CNZAEH2O","either","2","318","","","","","","","1","0","0","0.8","","0.5","0.5","0.5","0.5","","","","","0.8","0.2","0.6","0.2","","","","","","","","","","72","H","0","img/none_selected.jpg","true","0","full_practice",""
"","bandit","54","244806","0.0-32.0-3.0","78811911","wem/bandit_party_1","AA3R1CNZAEH2O","either","2","268","","","","","","","1","0","0","0.8","","0.5","0.5","0.5","0.5","","","","","0.8","0.2","0.6","0.2","","","","","","","","","","72","H","0","img/none_selected.jpg","true","0","full_practice",""
"","bandit","55","246581","0.0-32.0-4.0","78811911","wem/bandit_party_1","AA3R1CNZAEH2O","either","2","271","","","","","","","1","0","0","0.8","","0.5","0.5","0.5","0.5","","","","","0.8","0.2","0.6","0.2","","","","","","","","","","72","H","0","img/none_selected.jpg","true","0","full_practice",""
"","bandit","56","248304","0.0-32.0-5.0","78811911","wem/bandit_party_1","AA3R1CNZAEH2O","either","2","216","","","","","","","1","0","0","0.8","","0.5","0.5","0.5","0.5","","","","","0.8","0.2","0.6","0.2","","","","","","","","","","72","H","0","img/none_selected.jpg","true","0","full_practice",""
"","bandit","57","250013","0.0-32.0-6.0","78811911","wem/bandit_party_1","AA3R1CNZAEH2O","either","2","201","","","","","","","0","1","0","","0.8","0.5","0.5","0.5","0.5","0.8","0.2","0.6","0.2","","","","","","","","","","","","","","72","H","0","img/none_selected.jpg","true","0","full_practice",""
"","bandit","58","251725","0.0-32.0-7.0","78811911","wem/bandit_party_1","AA3R1CNZAEH2O","either","2","204","","","","","","","0","1","0","","0.8","0.5","0.5","0.5","0.5","0.8","0.2","0.6","0.2","","","","","","","","","","","","","","72","H","0","img/none_selected.jpg","true","0","full_practice",""
"","bandit","59","253454","0.0-32.0-8.0","78811911","wem/bandit_party_1","AA3R1CNZAEH2O","either","2","221","","","","","","","1","0","0","0.8","","0.5","0.5","0.5","0.5","","","","","0.8","0.2","0.6","0.2","","","","","","","","","","72","H","0","img/none_selected.jpg","true","0","full_practice",""
"","bandit","60","255180","0.0-32.0-9.0","78811911","wem/bandit_party_1","AA3R1CNZAEH2O","either","2","222","","","","","","","1","0","0","0.8","","0.5","0.5","0.5","0.5","","","","","0.8","0.2","0.6","0.2","","","","","","","","","","72","H","0","img/none_selected.jpg","true","0","full_practice",""
"","bandit","61","256917","0.0-32.0-10.0","78811911","wem/bandit_party_1","AA3R1CNZAEH2O","either","2","231","","","","","","","0","1","0","","0.8","0.5","0.5","0.5","0.5","0.8","0.2","0.6","0.2","","","","","","","","","","","","","","72","H","0","img/none_selected.jpg","true","0","full_practice",""
"","bandit","62","258599","0.0-32.0-11.0","78811911","wem/bandit_party_1","AA3R1CNZAEH2O","either","2","175","","","","","","","0","1","0","","0.8","0.5","0.5","0.5","0.5","0.8","0.2","0.6","0.2","","","","","","","","","","","","","","72","H","0","img/none_selected.jpg","true","0","full_practice",""
"","bandit","63","260431","0.0-32.0-12.0","78811911","wem/bandit_party_1","AA3R1CNZAEH2O","either","2","322","","","","","","","0","1","0","","0.8","0.5","0.5","0.5","0.5","0.8","0.2","0.6","0.2","","","","","","","","","","","","","","72","H","0","img/none_selected.jpg","true","0","full_practice",""
"","bandit","64","262190","0.0-32.0-13.0","78811911","wem/bandit_party_1","AA3R1CNZAEH2O","either","2","250","","","","","","","0","0","1","0.8","","0.5","0.5","0.5","0.5","","","","","0.8","0.2","0.6","0.2","","","","","","","","","","72","H","0","img/none_selected.jpg","true","0","full_practice",""
"","bandit","65","263948","0.0-32.0-14.0","78811911","wem/bandit_party_1","AA3R1CNZAEH2O","either","2","252","","","","","","","0","1","0","","0.8","0.5","0.5","0.5","0.5","0.8","0.2","0.6","0.2","","","","","","","","","","","","","","72","H","0","img/none_selected.jpg","true","0","full_practice",""
"","bandit","66","265622","0.0-32.0-15.0","78811911","wem/bandit_party_1","AA3R1CNZAEH2O","either","2","163","","","","","","","0","1","0","","0.8","0.5","0.5","0.5","0.5","0.8","0.2","0.6","0.2","","","","","","","","","","","","","","72","H","0","img/none_selected.jpg","true","0","full_practice",""
"","bandit","67","267436","0.0-32.0-16.0","78811911","wem/bandit_party_1","AA3R1CNZAEH2O","either","2","307","","","","","","","1","0","0","0.8","","0.5","0.5","0.5","0.5","","","","","0.8","0.2","0.6","0.2","","","","","","","","","","72","H","0","img/none_selected.jpg","true","0","full_practice",""
"","bandit","68","269286","0.0-32.0-17.0","78811911","wem/bandit_party_1","AA3R1CNZAEH2O","either","2","343","","","","","","","0","1","0","","0.8","0.5","0.5","0.5","0.5","0.8","0.2","0.6","0.2","","","","","","","","","","","","","","72","H","0","img/none_selected.jpg","true","0","full_practice",""
"","bandit","69","272110","0.0-32.0-18.0","78811911","wem/bandit_party_1","AA3R1CNZAEH2O","either","2","1319","","","","","","","1","0","0","0.8","","0.5","0.5","0.5","0.5","","","","","0.8","0.2","0.6","0.2","","","","","","","","","","72","H","0","img/none_selected.jpg","true","0","full_practice",""
"","bandit","70","273933","0.0-32.0-19.0","78811911","wem/bandit_party_1","AA3R1CNZAEH2O","either","2","314","","","","","","","1","0","0","0.8","","0.5","0.5","0.5","0.5","","","","","0.8","0.2","0.6","0.2","","","","","","","","","","72","H","0","img/none_selected.jpg","true","0","full_practice",""
"","text","71","279170","0.0-33.0","78811911","wem/bandit_party_1","AA3R1CNZAEH2O","either","2","5218","","","32","","","","","","","","","","","","","","","","","","","","","","","","","","","","","","","","","","","","",""
"","text-replacement","72","292201","0.0-34.0","78811911","wem/bandit_party_1","AA3R1CNZAEH2O","either","2","12026","","","32","","","","","","","","","","","","","","","","","","","","","","","","","","","","","","","","","","","","",""
"","text-replacement","73","297926","0.0-35.0","78811911","wem/bandit_party_1","AA3R1CNZAEH2O","either","2","5721","","","32","","","","","","","","","","","","","","","","","","","","","","","","","","","","","","","","","","","","",""
"","text-replacement","74","301382","0.0-36.0","78811911","wem/bandit_party_1","AA3R1CNZAEH2O","either","2","3451","","","32","","","","","","","","","","","","","","","","","","","","","","","","","","","","","","","","","","","","",""
"","text-replacement","75","304273","0.0-37.0","78811911","wem/bandit_party_1","AA3R1CNZAEH2O","either","2","2887","","","32","","","","","","","","","","","","","","","","","","","","","","","","","","","","","","","","","","","","",""
"","text-replacement","76","307597","0.0-38.0","78811911","wem/bandit_party_1","AA3R1CNZAEH2O","either","2","3319","","","32","","","","","","","","","","","","","","","","","","","","","","","","","","","","","","","","","","","","",""
"","survey-multi-choice-replacement","77","312344","0.0-39.0-0.0","78811911","wem/bandit_party_1","AA3R1CNZAEH2O","either","2","4735","","","","","","","","","","","","","","","","","","","","","","","","Money will be added to the pool for <span style='color:red;'>REPUBLICANS</span>","","","","","","","attn_check","","","","","","","","","0"
"","survey-multi-choice-replacement","78","318767","0.0-40.0-0.0","78811911","wem/bandit_party_1","AA3R1CNZAEH2O","either","2","5406","","","","","","","","","","","","","","","","","","","","","","","","Equal amounts of money will be added to the pool for <span style='color:red;'>REPUBLICANS</span> and subtracted from the pool for <span style='color:blue;'>DEMOCRATS</span>","","","","","","","attn_check","","","","","","","","","2"
"","survey-multi-choice-replacement","79","321871","0.0-41.0-0.0","78811911","wem/bandit_party_1","AA3R1CNZAEH2O","either","2","2092","","","","","","","","","","","","","","","","","","","","","","","","No money will be added to either pool","","","","","","","attn_check","","","","","","","","","3"
"","bandit","80","327044","0.0-42.0-0.0","78811911","wem/bandit_party_1","AA3R1CNZAEH2O","either","2","2658","","","","","","","0","1","0","","0.362799796","0.2","0.4","0.6","0.8","0.362799796","0.326135308","0.3653736811","0.4781977867","","","","","","","","","","","","","","72","H","0","img/none_selected.jpg","","1","main_expt",""
"","bandit","81","328939","0.0-43.0-0.0","78811911","wem/bandit_party_1","AA3R1CNZAEH2O","either","2","387","","","","","","","0","1","0","","0.3891507205","0.2","0.4","0.6","0.8","0.3891507205","0.3564958201","0.3999069229","0.4765481994","","","","","","","","","","","","","","72","H","0","img/none_selected.jpg","","2","main_expt",""
"","bandit","82","330778","0.0-44.0-0.0","78811911","wem/bandit_party_1","AA3R1CNZAEH2O","either","2","330","","","","","","","0","0","1","","0.3151339382","0.2","0.4","0.6","0.8","0.3151339382","0.3309056029","0.4363582421","0.4722158263","","","","","","","","","","","","","","72","H","0","img/none_selected.jpg","","3","main_expt",""
"","bandit","83","332788","0.0-45.0-0.0","78811911","wem/bandit_party_1","AA3R1CNZAEH2O","either","2","502","","","","","","","0","0","1","","0.250648122","0.2","0.4","0.6","0.8","0.250648122","0.308467875","0.4300921111","0.4609570051","","","","","","","","","","","","","","72","H","0","img/none_selected.jpg","","4","main_expt",""
"","bandit","84","334593","0.0-46.0-0.0","78811911","wem/bandit_party_1","AA3R1CNZAEH2O","either","2","298","","","","","","","0","1","0","","0.2382585344","0.2","0.4","0.6","0.8","0.2382585344","0.3349995635","0.3863220662","0.4707799186","","","","","","","","","","","","","","72","H","0","img/none_selected.jpg","","5","main_expt",""
"","bandit","85","336420","0.0-47.0-0.0","78811911","wem/bandit_party_1","AA3R1CNZAEH2O","either","2","319","","","","","","","0","0","1","","0.2088101903","0.2","0.4","0.6","0.8","0.2088101903","0.3743101545","0.4192648028","0.4676743975","","","","","","","","","","","","","","72","H","0","img/none_selected.jpg","","6","main_expt",""
"","bandit","86","338226","0.0-48.0-0.0","78811911","wem/bandit_party_1","AA3R1CNZAEH2O","either","2","298","","","","","","","1","0","0","0.1884279889","","0.2","0.4","0.6","0.8","","","","","0.1884279889","0.377506125","0.4218548145","0.4767364015","","","","","","","","","","72","H","0","img/none_selected.jpg","","7","main_expt",""
"","bandit","87","339991","0.0-49.0-0.0","78811911","wem/bandit_party_1","AA3R1CNZAEH2O","either","2","253","","","","","","","1","0","0","0.2297930851","","0.2","0.4","0.6","0.8","","","","","0.2297930851","0.3452849142","0.4298914749","0.4837409877","","","","","","","","","","72","H","0","img/none_selected.jpg","","8","main_expt",""
"","bandit","88","341766","0.0-50.0-0.0","78811911","wem/bandit_party_1","AA3R1CNZAEH2O","either","2","260","","","","","","","0","0","1","","0.2219539873","0.2","0.4","0.6","0.8","0.2219539873","0.2713567333","0.4215440671","0.4825212187","","","","","","","","","","","","","","72","H","0","img/none_selected.jpg","","9","main_expt",""
"","bandit","89","343537","0.0-51.0-0.0","78811911","wem/bandit_party_1","AA3R1CNZAEH2O","either","2","258","","","","","","","0","0","1","","0.2398128751","0.2","0.4","0.6","0.8","0.2398128751","0.2712708503","0.3991616263","0.4791264729","","","","","","","","","","","","","","72","H","0","img/none_selected.jpg","","10","main_expt",""
"","bandit","90","345353","0.0-52.0-0.0","78811911","wem/bandit_party_1","AA3R1CNZAEH2O","either","2","312","","","","","","","0","0","1","","0.2551733424","0.2","0.4","0.6","0.8","0.2551733424","0.2635531688","0.4002673883","0.4762013833","","","","","","","","","","","","","","72","H","0","img/none_selected.jpg","","11","main_expt",""
"","bandit","91","347170","0.0-53.0-0.0","78811911","wem/bandit_party_1","AA3R1CNZAEH2O","either","2","311","","","","","","","0","0","1","0.2669056975","","0.2","0.4","0.6","0.8","","","","","0.2593424883","0.2669056975","0.368629831","0.4729837645","","","","","","","","","","74","J","1","","","12","main_expt",""
"","bandit","92","349018","0.0-54.0-0.0","78811911","wem/bandit_party_1","AA3R1CNZAEH2O","either","2","343","","","","","","","0","0","1","","0.4189726289","0.2","0.4","0.6","0.8","0.2493591627","0.3204456557","0.4189726289","0.4749786695","","","","","","","","","","","","","","75","K","2","","","13","main_expt",""
"","bandit","93","350845","0.0-55.0-0.0","78811911","wem/bandit_party_1","AA3R1CNZAEH2O","either","2","318","","","","","","","0","0","1","0.4810115094","","0.2","0.4","0.6","0.8","","","","","0.2686446846","0.3466526728","0.4352425359","0.4810115094","","","","","","","","","","76","L","3","","","14","main_expt",""
"","bandit","94","352619","0.0-56.0-0.0","78811911","wem/bandit_party_1","AA3R1CNZAEH2O","either","2","264","","","","","","","0","0","1","","0.2690169042","0.2","0.4","0.6","0.8","0.2690169042","0.3736671224","0.3819090161","0.4705329286","","","","","","","","","","","","","","72","H","0","img/none_selected.jpg","","15","main_expt",""
"","bandit","95","354418","0.0-57.0-0.0","78811911","wem/bandit_party_1","AA3R1CNZAEH2O","either","2","293","","","","","","","0","0","1","","0.3778143907","0.2","0.4","0.6","0.8","0.2518303543","0.3778143907","0.3737760256","0.4687419894","","","","","","","","","","","","","","74","J","1","","","16","main_expt",""
"","bandit","96","356194","0.0-58.0-0.0","78811911","wem/bandit_party_1","AA3R1CNZAEH2O","either","2","270","","","","","","","0","0","1","","0.4151791473","0.2","0.4","0.6","0.8","0.2406549936","0.3845750066","0.4151791473","0.4594180265","","","","","","","","","","","","","","75","K","2","","","17","main_expt",""
"","bandit","97","357953","0.0-59.0-0.0","78811911","wem/bandit_party_1","AA3R1CNZAEH2O","either","2","251","","","","","","","1","0","0","0.425397146","","0.2","0.4","0.6","0.8","","","","","0.2670149403","0.4041286345","0.4137363134","0.425397146","","","","","","","","","","76","L","3","","","18","main_expt",""
"","bandit","98","359694","0.0-60.0-0.0","78811911","wem/bandit_party_1","AA3R1CNZAEH2O","either","2","227","","","","","","","1","0","0","0.4201246927","","0.2","0.4","0.6","0.8","","","","","0.2658482338","0.4127350431","0.4084056464","0.4201246927","","","","","","","","","","76","L","3","","","19","main_expt",""
"","bandit","99","361438","0.0-61.0-0.0","78811911","wem/bandit_party_1","AA3R1CNZAEH2O","either","2","234","","","","","","","1","0","0","0.3954271328","","0.2","0.4","0.6","0.8","","","","","0.2452433766","0.4107359536","0.4129175496","0.3954271328","","","","","","","","","","76","L","3","","","20","main_expt",""
"","bandit","100","363073","0.0-62.0-0.0","78811911","wem/bandit_party_1","AA3R1CNZAEH2O","either","2","126","","","","","","","1","0","0","0.4196431029","","0.2","0.4","0.6","0.8","","","","","0.2298761452","0.3954861765","0.3888488162","0.4196431029","","","","","","","","","","76","L","3","","","21","main_expt",""
"","bandit","101","364994","0.0-63.0-0.0","78811911","wem/bandit_party_1","AA3R1CNZAEH2O","either","2","411","","","","","","","0","1","0","","0.3843335182","0.2","0.4","0.6","0.8","0.266827693","0.3805979297","0.3873149631","0.3843335182","","","","","","","","","","","","","","76","L","3","","","22","main_expt",""
"","bandit","102","366775","0.0-64.0-0.0","78811911","wem/bandit_party_1","AA3R1CNZAEH2O","either","2","277","","","","","","","1","0","0","0.3839977458","","0.2","0.4","0.6","0.8","","","","","0.2519769849","0.425451992","0.3659772031","0.3839977458","","","","","","","","","","76","L","3","","","23","main_expt",""
"","bandit","103","368599","0.0-65.0-0.0","78811911","wem/bandit_party_1","AA3R1CNZAEH2O","either","2","321","","","","","","","0","0","1","","0.3338939571","0.2","0.4","0.6","0.8","0.2447613107","0.4699447661","0.3594327093","0.3338939571","","","","","","","","","","","","","","76","L","3","","","24","main_expt",""
"","bandit","104","370449","0.0-66.0-0.0","78811911","wem/bandit_party_1","AA3R1CNZAEH2O","either","2","344","","","","","","","0","0","1","0.324486952","","0.2","0.4","0.6","0.8","","","","","0.2350413847","0.4484050393","0.3719143394","0.324486952","","","","","","","","","","76","L","3","","","25","main_expt",""
"","bandit","105","372269","0.0-67.0-0.0","78811911","wem/bandit_party_1","AA3R1CNZAEH2O","either","2","309","","","","","","","0","0","1","","0.207774486","0.2","0.4","0.6","0.8","0.207774486","0.4190234423","0.3690014044","0.3095710384","","","","","","","","","","","","","","72","H","0","img/none_selected.jpg","","26","main_expt",""
"","bandit","106","373985","0.0-68.0-0.0","78811911","wem/bandit_party_1","AA3R1CNZAEH2O","either","2","207","","","","","","","0","1","0","","0.4251478254","0.2","0.4","0.6","0.8","0.2164182795","0.4251478254","0.3940030818","0.3355629191","","","","","","","","","","","","","","74","J","1","","","27","main_expt",""
"","bandit","107","375689","0.0-69.0-0.0","78811911","wem/bandit_party_1","AA3R1CNZAEH2O","either","2","195","","","","","","","0","0","1","","0.4287328697","0.2","0.4","0.6","0.8","0.2164031865","0.4287328697","0.4111080327","0.3668681485","","","","","","","","","","","","","","74","J","1","","","28","main_expt",""
"","bandit","108","377449","0.0-70.0-0.0","78811911","wem/bandit_party_1","AA3R1CNZAEH2O","either","2","251","","","","","","","0","0","1","","0.4106025245","0.2","0.4","0.6","0.8","0.2770000278","0.4106025245","0.41290056","0.343198694","","","","","","","","","","","","","","74","J","1","","","29","main_expt",""
"","bandit","109","379223","0.0-71.0-0.0","78811911","wem/bandit_party_1","AA3R1CNZAEH2O","either","2","269","","","","","","","1","0","0","0.3937480262","","0.2","0.4","0.6","0.8","","","","","0.2354797847","0.3942494676","0.3937480262","0.326069126","","","","","","","","","","75","K","2","","","30","main_expt",""
"","bandit","110","380984","0.0-72.0-0.0","78811911","wem/bandit_party_1","AA3R1CNZAEH2O","either","2","248","","","","","","","0","1","0","","0.3997016236","0.2","0.4","0.6","0.8","0.2692030882","0.4285056211","0.3997016236","0.3390127419","","","","","","","","","","","","","","75","K","2","","","31","main_expt",""
"","bandit","111","382766","0.0-73.0-0.0","78811911","wem/bandit_party_1","AA3R1CNZAEH2O","either","2","275","","","","","","","0","0","1","0.3574295763","","0.2","0.4","0.6","0.8","","","","","0.2471118655","0.4249454459","0.3574295763","0.3360649894","","","","","","","","","","75","K","2","","","32","main_expt",""
"","bandit","112","384464","0.0-74.0-0.0","78811911","wem/bandit_party_1","AA3R1CNZAEH2O","either","2","188","","","","","","","0","1","0","","0.3877818659","0.2","0.4","0.6","0.8","0.2879199001","0.416417765","0.3877818659","0.3052602024","","","","","","","","","","","","","","75","K","2","","","33","main_expt",""
"","bandit","113","386154","0.0-75.0-0.0","78811911","wem/bandit_party_1","AA3R1CNZAEH2O","either","2","179","","","","","","","0","0","1","","0.3799496232","0.2","0.4","0.6","0.8","0.3180115212","0.4623714429","0.3799496232","0.3594788954","","","","","","","","","","","","","","75","K","2","","","34","main_expt",""
"","bandit","114","387744","0.0-76.0-0.0","78811911","wem/bandit_party_1","AA3R1CNZAEH2O","either","2","73","","","","","","","0","0","1","","0.3577573403","0.2","0.4","0.6","0.8","0.2524306687","0.4591977302","0.3577573403","0.380235832","","","","","","","","","","","","","","75","K","2","","","35","main_expt",""
"","bandit","115","389331","0.0-77.0-0.0","78811911","wem/bandit_party_1","AA3R1CNZAEH2O","either","2","74","","","","","","","0","0","1","0.3459989602","","0.2","0.4","0.6","0.8","","","","","0.2351869563","0.4686235256","0.3895375856","0.3459989602","","","","","","","","","","76","L","3","","","36","main_expt",""
"","bandit","116","390979","0.0-78.0-0.0","78811911","wem/bandit_party_1","AA3R1CNZAEH2O","either","2","132","","","","","","","0","1","0","","0.2629170466","0.2","0.4","0.6","0.8","0.2629170466","0.4571547709","0.3783527007","0.3320905149","","","","","","","","","","","","","","72","H","0","img/none_selected.jpg","","37","main_expt",""
"","bandit","117","392651","0.0-79.0-0.0","78811911","wem/bandit_party_1","AA3R1CNZAEH2O","either","2","160","","","","","","","0","0","1","","0.3090194305","0.2","0.4","0.6","0.8","0.3090194305","0.4688430709","0.284076782","0.3471020919","","","","","","","","","","","","","","72","H","0","img/none_selected.jpg","","38","main_expt",""
"","bandit","118","394376","0.0-80.0-0.0","78811911","wem/bandit_party_1","AA3R1CNZAEH2O","either","2","211","","","","","","","0","1","0","","0.2845371228","0.2","0.4","0.6","0.8","0.2845371228","0.4612923778","0.3388972186","0.3401763967","","","","","","","","","","","","","","72","H","0","img/none_selected.jpg","","39","main_expt",""
"","bandit","119","396073","0.0-81.0-0.0","78811911","wem/bandit_party_1","AA3R1CNZAEH2O","either","2","186","","","","","","","0","0","1","","0.3076259244","0.2","0.4","0.6","0.8","0.3076259244","0.4576194683","0.2663655232","0.3260487483","","","","","","","","","","","","","","72","H","0","img/none_selected.jpg","","40","main_expt",""
"","bandit","120","397672","0.0-82.0-0.0","78811911","wem/bandit_party_1","AA3R1CNZAEH2O","either","2","93","","","","","","","0","0","1","0.2888769276","","0.2","0.4","0.6","0.8","","","","","0.2888769276","0.4473921051","0.2608266697","0.3390218734","","","","","","","","","","72","H","0","img/none_selected.jpg","","41","main_expt",""
"","bandit","121","399320","0.0-83.0-0.0","78811911","wem/bandit_party_1","AA3R1CNZAEH2O","either","2","139","","","","","","","0","0","1","0.425470286","","0.2","0.4","0.6","0.8","","","","","0.2639198141","0.425470286","0.2287676803","0.2889680017","","","","","","","","","","74","J","1","","","42","main_expt",""
"","bandit","122","401088","0.0-84.0-0.0","78811911","wem/bandit_party_1","AA3R1CNZAEH2O","either","2","262","","","","","","","0","0","1","0.2043112358","","0.2","0.4","0.6","0.8","","","","","0.2255441472","0.4030522017","0.2043112358","0.2784828801","","","","","","","","","","75","K","2","","","43","main_expt",""
"","bandit","123","402705","0.0-85.0-0.0","78811911","wem/bandit_party_1","AA3R1CNZAEH2O","either","2","106","","","","","","","0","0","1","","0.2805729819","0.2","0.4","0.6","0.8","0.2050272072","0.4106315797","0.1957049551","0.2805729819","","","","","","","","","","","","","","76","L","3","","","44","main_expt",""
"","bandit","124","404336","0.0-86.0-0.0","78811911","wem/bandit_party_1","AA3R1CNZAEH2O","either","2","104","","","","","","","0","0","1","0.239455925","","0.2","0.4","0.6","0.8","","","","","0.239455925","0.4258527362","0.2207366272","0.2195119073","","","","","","","","","","72","H","0","img/none_selected.jpg","","45","main_expt",""
"","bandit","125","406115","0.0-87.0-0.0","78811911","wem/bandit_party_1","AA3R1CNZAEH2O","either","2","267","","","","","","","0","0","1","0.4425966235","","0.2","0.4","0.6","0.8","","","","","0.2414778298","0.4425966235","0.1727988076","0.2657932304","","","","","","","","","","74","J","1","","","46","main_expt",""
"","bandit","126","407903","0.0-88.0-0.0","78811911","wem/bandit_party_1","AA3R1CNZAEH2O","either","2","273","","","","","","","0","0","1","0.1446735631","","0.2","0.4","0.6","0.8","","","","","0.1884211613","0.4428977597","0.1446735631","0.2678398397","","","","","","","","","","75","K","2","","","47","main_expt",""
"","bandit","127","409960","0.0-89.0-0.0","78811911","wem/bandit_party_1","AA3R1CNZAEH2O","either","2","545","","","","","","","0","0","1","0.2866904938","","0.2","0.4","0.6","0.8","","","","","0.1755274282","0.4479964269","0.1681765936","0.2866904938","","","","","","","","","","76","L","3","","","48","main_expt",""
"","bandit","128","411671","0.0-90.0-0.0","78811911","wem/bandit_party_1","AA3R1CNZAEH2O","either","2","197","","","","","","","0","0","1","0.1646396384","","0.2","0.4","0.6","0.8","","","","","0.1646396384","0.4660387519","0.1473883531","0.2803848884","","","","","","","","","","72","H","0","img/none_selected.jpg","","49","main_expt",""
"","bandit","129","413350","0.0-91.0-0.0","78811911","wem/bandit_party_1","AA3R1CNZAEH2O","either","2","175","","","","","","","0","1","0","","0.4345757832","0.2","0.4","0.6","0.8","0.2024226619","0.4345757832","0.1378170987","0.2587411269","","","","","","","","","","","","","","74","J","1","","","50","main_expt",""
"","bandit","130","414911","0.0-92.0-0.0","78811911","wem/bandit_party_1","AA3R1CNZAEH2O","either","2","50","","","","","","","0","0","1","0.4450950844","","0.2","0.4","0.6","0.8","","","","","0.1976760068","0.4450950844","0.1430360168","0.2212901065","","","","","","","","","","74","J","1","","","51","main_expt",""
"","bandit","131","416637","0.0-93.0-0.0","78811911","wem/bandit_party_1","AA3R1CNZAEH2O","either","2","220","","","","","","","0","0","1","","0.4475354499","0.2","0.4","0.6","0.8","0.1796352224","0.4475354499","0.1731798725","0.236006857","","","","","","","","","","","","","","74","J","1","","","52","main_expt",""
"","bandit","132","418400","0.0-94.0-0.0","78811911","wem/bandit_party_1","AA3R1CNZAEH2O","either","2","257","","","","","","","0","0","1","","0.1312409056","0.2","0.4","0.6","0.8","0.2451732725","0.4627294295","0.1312409056","0.2660825342","","","","","","","","","","","","","","75","K","2","","","53","main_expt",""
"","bandit","133","420036","0.0-95.0-0.0","78811911","wem/bandit_party_1","AA3R1CNZAEH2O","either","2","123","","","","","","","0","0","1","0.2458345041","","0.2","0.4","0.6","0.8","","","","","0.2621482643","0.44829207","0.1862053218","0.2458345041","","","","","","","","","","76","L","3","","","54","main_expt",""
"","bandit","134","421680","0.0-96.0-0.0","78811911","wem/bandit_party_1","AA3R1CNZAEH2O","either","2","132","","","","","","","0","1","0","","0.2441780383","0.2","0.4","0.6","0.8","0.2441780383","0.4505537928","0.1733563037","0.2265690781","","","","","","","","","","","","","","72","H","0","img/none_selected.jpg","","55","main_expt",""
"","bandit","135","423321","0.0-97.0-0.0","78811911","wem/bandit_party_1","AA3R1CNZAEH2O","either","2","128","","","","","","","0","0","1","0.199729785","","0.2","0.4","0.6","0.8","","","","","0.199729785","0.4686400132","0.1728369204","0.2741820357","","","","","","","","","","72","H","0","img/none_selected.jpg","","56","main_expt",""
"","bandit","136","425042","0.0-98.0-0.0","78811911","wem/bandit_party_1","AA3R1CNZAEH2O","either","2","207","","","","","","","0","0","1","","0.1945085845","0.2","0.4","0.6","0.8","0.1945085845","0.4572679106","0.09176359954","0.2937641054","","","","","","","","","","","","","","72","H","0","img/none_selected.jpg","","57","main_expt",""
"","bandit","137","426747","0.0-99.0-0.0","78811911","wem/bandit_party_1","AA3R1CNZAEH2O","either","2","195","","","","","","","0","0","1","0.4300169527","","0.2","0.4","0.6","0.8","","","","","0.2614759052","0.4300169527","0.04991422033","0.2949827607","","","","","","","","","","74","J","1","","","58","main_expt",""
"","bandit","138","428469","0.0-100.0-0.0","78811911","wem/bandit_party_1","AA3R1CNZAEH2O","either","2","216","","","","","","","0","0","1","0.053239915","","0.2","0.4","0.6","0.8","","","","","0.2426118991","0.4050829606","0.053239915","0.2710075273","","","","","","","","","","75","K","2","","","59","main_expt",""
"","bandit","139","430094","0.0-101.0-0.0","78811911","wem/bandit_party_1","AA3R1CNZAEH2O","either","2","114","","","","","","","0","0","1","0.2766623035","","0.2","0.4","0.6","0.8","","","","","0.2623750897","0.4070720156","0.06994226662","0.2766623035","","","","","","","","","","76","L","3","","","60","main_expt",""
"","bandit","140","431775","0.0-102.0-0.0","78811911","wem/bandit_party_1","AA3R1CNZAEH2O","either","2","174","","","","","","","0","0","1","","0.2139103784","0.2","0.4","0.6","0.8","0.2139103784","0.3895400789","0.07064832373","0.2574592035","","","","","","","","","","","","","","72","H","0","img/none_selected.jpg","","61","main_expt",""
"","bandit","141","433607","0.0-103.0-0.0","78811911","wem/bandit_party_1","AA3R1CNZAEH2O","either","2","319","","","","","","","0","1","0","","0.4050708951","0.2","0.4","0.6","0.8","0.2566580444","0.4050708951","0.08925217872","0.2425209234","","","","","","","","","","","","","","74","J","1","","","62","main_expt",""
"","bandit","142","435254","0.0-104.0-0.0","78811911","wem/bandit_party_1","AA3R1CNZAEH2O","either","2","142","","","","","","","0","1","0","","0.3765761212","0.2","0.4","0.6","0.8","0.2393402704","0.3765761212","0.08505035955","0.2294211584","","","","","","","","","","","","","","74","J","1","","","63","main_expt",""
"","bandit","143","437018","0.0-105.0-0.0","78811911","wem/bandit_party_1","AA3R1CNZAEH2O","either","2","257","","","","","","","1","0","0","0.3859881554","","0.2","0.4","0.6","0.8","","","","","0.300105392","0.3859881554","0.09892528285","0.2350173232","","","","","","","","","","74","J","1","","","64","main_expt",""
"","bandit","144","438774","0.0-106.0-0.0","78811911","wem/bandit_party_1","AA3R1CNZAEH2O","either","2","244","","","","","","","0","1","0","","0.3817039273","0.2","0.4","0.6","0.8","0.2584268813","0.3817039273","0.1428545766","0.2775473173","","","","","","","","","","","","","","74","J","1","","","65","main_expt",""
"","bandit","145","440615","0.0-107.0-0.0","78811911","wem/bandit_party_1","AA3R1CNZAEH2O","either","2","327","","","","","","","0","0","1","","0.3622232449","0.2","0.4","0.6","0.8","0.2536378703","0.3622232449","0.120440259","0.298861572","","","","","","","","","","","","","","74","J","1","","","66","main_expt",""
"","bandit","146","442272","0.0-108.0-0.0","78811911","wem/bandit_party_1","AA3R1CNZAEH2O","either","2","143","","","","","","","0","0","1","","0.3768721334","0.2","0.4","0.6","0.8","0.2548884231","0.3768721334","0.2019700983","0.3043747659","","","","","","","","","","","","","","74","J","1","","","67","main_expt",""
"","bandit","147","444022","0.0-109.0-0.0","78811911","wem/bandit_party_1","AA3R1CNZAEH2O","either","2","240","","","","","","","0","0","1","","0.1467862533","0.2","0.4","0.6","0.8","0.2105458193","0.3826604183","0.1467862533","0.2533072519","","","","","","","","","","","","","","75","K","2","","","68","main_expt",""
"","bandit","148","445758","0.0-110.0-0.0","78811911","wem/bandit_party_1","AA3R1CNZAEH2O","either","2","219","","","","","","","0","0","1","0.2451677402","","0.2","0.4","0.6","0.8","","","","","0.2901666962","0.3981811202","0.09022805221","0.2451677402","","","","","","","","","","76","L","3","","","69","main_expt",""
"","bandit","149","447335","0.0-111.0-0.0","78811911","wem/bandit_party_1","AA3R1CNZAEH2O","either","2","70","","","","","","","0","0","1","","0.2973761433","0.2","0.4","0.6","0.8","0.2973761433","0.3936557204","0.1128827508","0.2403061491","","","","","","","","","","","","","","72","H","0","img/none_selected.jpg","","70","main_expt",""
"","bandit","150","449013","0.0-112.0-0.0","78811911","wem/bandit_party_1","AA3R1CNZAEH2O","either","2","171","","","","","","","0","0","1","0.3949471057","","0.2","0.4","0.6","0.8","","","","","0.2737706179","0.3949471057","0.1184182172","0.1917576795","","","","","","","","","","74","J","1","","","71","main_expt",""
"","bandit","151","450655","0.0-113.0-0.0","78811911","wem/bandit_party_1","AA3R1CNZAEH2O","either","2","134","","","","","","","0","1","0","","0.1038133506","0.2","0.4","0.6","0.8","0.3005227265","0.3888869603","0.1038133506","0.1894079546","","","","","","","","","","","","","","75","K","2","","","72","main_expt",""
"","bandit","152","452295","0.0-114.0-0.0","78811911","wem/bandit_party_1","AA3R1CNZAEH2O","either","2","132","","","","","","","0","0","1","0.07830871569","","0.2","0.4","0.6","0.8","","","","","0.3205676235","0.4015056825","0.07830871569","0.235909594","","","","","","","","","","75","K","2","","","73","main_expt",""
"","bandit","153","453982","0.0-115.0-0.0","78811911","wem/bandit_party_1","AA3R1CNZAEH2O","either","2","181","","","","","","","0","0","1","0.09226686474","","0.2","0.4","0.6","0.8","","","","","0.3040473008","0.4200542591","0.09226686474","0.2772030277","","","","","","","","","","75","K","2","","","74","main_expt",""
"","bandit","154","455552","0.0-116.0-0.0","78811911","wem/bandit_party_1","AA3R1CNZAEH2O","either","2","54","","","","","","","0","0","1","0.2237268092","","0.2","0.4","0.6","0.8","","","","","0.2686744794","0.4353174817","0.07948082514","0.2237268092","","","","","","","","","","76","L","3","","","75","main_expt",""
"","bandit","155","457142","0.0-117.0-0.0","78811911","wem/bandit_party_1","AA3R1CNZAEH2O","either","2","78","","","","","","","0","0","1","","0.258707356","0.2","0.4","0.6","0.8","0.258707356","0.4196821318","0.1279570505","0.1739375455","","","","","","","","","","","","","","72","H","0","img/none_selected.jpg","","76","main_expt",""
"","bandit","156","458801","0.0-118.0-0.0","78811911","wem/bandit_party_1","AA3R1CNZAEH2O","either","2","143","","","","","","","0","1","0","","0.3787369199","0.2","0.4","0.6","0.8","0.3010070056","0.3787369199","0.1202820049","0.1648796623","","","","","","","","","","","","","","74","J","1","","","77","main_expt",""
"","bandit","157","460454","0.0-119.0-0.0","78811911","wem/bandit_party_1","AA3R1CNZAEH2O","either","2","141","","","","","","","1","0","0","0.4314930014","","0.2","0.4","0.6","0.8","","","","","0.2648586626","0.4314930014","0.1054071572","0.1637798684","","","","","","","","","","74","J","1","","","78","main_expt",""
"","bandit","158","462198","0.0-120.0-0.0","78811911","wem/bandit_party_1","AA3R1CNZAEH2O","either","2","233","","","","","","","0","0","1","","0.4155078174","0.2","0.4","0.6","0.8","0.1984114041","0.4155078174","0.1403095361","0.1490076182","","","","","","","","","","","","","","74","J","1","","","79","main_expt",""
"","bandit","159","463788","0.0-121.0-0.0","78811911","wem/bandit_party_1","AA3R1CNZAEH2O","either","2","70","","","","","","","0","1","0","","0.4226243671","0.2","0.4","0.6","0.8","0.180325551","0.4226243671","0.1891235553","0.1093198388","","","","","","","","","","","","","","74","J","1","","","80","main_expt",""
"","bandit","160","465525","0.0-122.0-0.0","78811911","wem/bandit_party_1","AA3R1CNZAEH2O","either","2","215","","","","","","","1","0","0","0.4474166549","","0.2","0.4","0.6","0.8","","","","","0.224531153","0.4474166549","0.1858030354","0.08868186825","","","","","","","","","","74","J","1","","","81","main_expt",""
"","bandit","161","467302","0.0-123.0-0.0","78811911","wem/bandit_party_1","AA3R1CNZAEH2O","either","2","264","","","","","","","1","0","0","0.4636297045","","0.2","0.4","0.6","0.8","","","","","0.221125015","0.4636297045","0.2476542501","0.1073880826","","","","","","","","","","74","J","1","","","82","main_expt",""
"","bandit","162","469035","0.0-124.0-0.0","78811911","wem/bandit_party_1","AA3R1CNZAEH2O","either","2","223","","","","","","","0","0","1","0.467509749","","0.2","0.4","0.6","0.8","","","","","0.2143237207","0.467509749","0.2188241074","0.1022587498","","","","","","","","","","74","J","1","","","83","main_expt",""
"","bandit","163","470629","0.0-125.0-0.0","78811911","wem/bandit_party_1","AA3R1CNZAEH2O","either","2","83","","","","","","","0","1","0","","0.4551111531","0.2","0.4","0.6","0.8","0.2097367537","0.4551111531","0.2754771977","0.1085807699","","","","","","","","","","","","","","74","J","1","","","84","main_expt",""
"","bandit","164","472262","0.0-126.0-0.0","78811911","wem/bandit_party_1","AA3R1CNZAEH2O","either","2","125","","","","","","","0","0","1","","0.4621419017","0.2","0.4","0.6","0.8","0.1661536269","0.4621419017","0.2965575968","0.1263918358","","","","","","","","","","","","","","74","J","1","","","85","main_expt",""
"","bandit","165","473892","0.0-127.0-0.0","78811911","wem/bandit_party_1","AA3R1CNZAEH2O","either","2","124","","","","","","","0","0","1","0.4612050897","","0.2","0.4","0.6","0.8","","","","","0.1364458955","0.4612050897","0.257129161","0.1481941301","","","","","","","","","","74","J","1","","","86","main_expt",""
"","bandit","166","475613","0.0-128.0-0.0","78811911","wem/bandit_party_1","AA3R1CNZAEH2O","either","2","212","","","","","","","1","0","0","0.2338967043","","0.2","0.4","0.6","0.8","","","","","0.08235553135","0.4334675206","0.2338967043","0.1447872846","","","","","","","","","","75","K","2","","","87","main_expt",""
"","bandit","167","477351","0.0-129.0-0.0","78811911","wem/bandit_party_1","AA3R1CNZAEH2O","either","2","222","","","","","","","0","0","1","0.2161535794","","0.2","0.4","0.6","0.8","","","","","0.0754832669","0.4397617206","0.2161535794","0.1391637727","","","","","","","","","","75","K","2","","","88","main_expt",""
"","bandit","168","479073","0.0-130.0-0.0","78811911","wem/bandit_party_1","AA3R1CNZAEH2O","either","2","209","","","","","","","0","0","1","0.2043146745","","0.2","0.4","0.6","0.8","","","","","0.109361408","0.4635478967","0.2043146745","0.1476089376","","","","","","","","","","75","K","2","","","89","main_expt",""
"","bandit","169","480621","0.0-131.0-0.0","78811911","wem/bandit_party_1","AA3R1CNZAEH2O","either","2","35","","","","","","","0","0","1","0.2081489191","","0.2","0.4","0.6","0.8","","","","","0.07391079866","0.4234969579","0.2346009907","0.2081489191","","","","","","","","","","76","L","3","","","90","main_expt",""
"","bandit","170","482325","0.0-132.0-0.0","78811911","wem/bandit_party_1","AA3R1CNZAEH2O","either","2","194","","","","","","","0","0","1","0.1164594673","","0.2","0.4","0.6","0.8","","","","","0.1164594673","0.4267507071","0.2333967219","0.1834039029","","","","","","","","","","72","H","0","img/none_selected.jpg","","91","main_expt",""
"","bandit","171","484060","0.0-133.0-0.0","78811911","wem/bandit_party_1","AA3R1CNZAEH2O","either","2","217","","","","","","","0","0","1","","0.4089505196","0.2","0.4","0.6","0.8","0.113043345","0.4089505196","0.2150480475","0.2027314649","","","","","","","","","","","","","","74","J","1","","","92","main_expt",""
"","bandit","172","485718","0.0-134.0-0.0","78811911","wem/bandit_party_1","AA3R1CNZAEH2O","either","2","142","","","","","","","1","0","0","0.2588080464","","0.2","0.4","0.6","0.8","","","","","0.1714352716","0.4112501448","0.2588080464","0.1738894496","","","","","","","","","","75","K","2","","","93","main_expt",""
"","bandit","173","487446","0.0-135.0-0.0","78811911","wem/bandit_party_1","AA3R1CNZAEH2O","either","2","217","","","","","","","0","0","1","","0.2748849181","0.2","0.4","0.6","0.8","0.1253024032","0.452415855","0.2748849181","0.2484708832","","","","","","","","","","","","","","75","K","2","","","94","main_expt",""
"","bandit","174","488981","0.0-136.0-0.0","78811911","wem/bandit_party_1","AA3R1CNZAEH2O","either","2","19","","","","","","","0","1","0","","0.2791739054","0.2","0.4","0.6","0.8","0.1401284447","0.4589197587","0.2791739054","0.2914685715","","","","","","","","","","","","","","75","K","2","","","95","main_expt",""
"","bandit","175","490702","0.0-137.0-0.0","78811911","wem/bandit_party_1","AA3R1CNZAEH2O","either","2","214","","","","","","","0","0","1","","0.3149564315","0.2","0.4","0.6","0.8","0.1320491369","0.4481870348","0.3149564315","0.2417524935","","","","","","","","","","","","","","75","K","2","","","96","main_expt",""
"","bandit","176","492285","0.0-138.0-0.0","78811911","wem/bandit_party_1","AA3R1CNZAEH2O","either","2","69","","","","","","","1","0","0","0.372564007","","0.2","0.4","0.6","0.8","","","","","0.1518453759","0.4597072186","0.372564007","0.2492821404","","","","","","","","","","75","K","2","","","97","main_expt",""
"","bandit","177","493963","0.0-139.0-0.0","78811911","wem/bandit_party_1","AA3R1CNZAEH2O","either","2","169","","","","","","","0","0","1","","0.393328365","0.2","0.4","0.6","0.8","0.2173959583","0.4705619112","0.393328365","0.3002958449","","","","","","","","","","","","","","75","K","2","","","98","main_expt",""
"","bandit","178","495525","0.0-140.0-0.0","78811911","wem/bandit_party_1","AA3R1CNZAEH2O","either","2","50","","","","","","","0","0","1","","0.421239771","0.2","0.4","0.6","0.8","0.2618725657","0.4800968761","0.421239771","0.3544832656","","","","","","","","","","","","","","75","K","2","","","99","main_expt",""
"","bandit","179","497206","0.0-141.0-0.0","78811911","wem/bandit_party_1","AA3R1CNZAEH2O","either","2","165","","","","","","","0","0","1","0.3810954338","","0.2","0.4","0.6","0.8","","","","","0.2487788848","0.4780143146","0.4130759476","0.3810954338","","","","","","","","","","76","L","3","","","100","main_expt",""
"","bandit","180","498772","0.0-142.0-0.0","78811911","wem/bandit_party_1","AA3R1CNZAEH2O","either","2","60","","","","","","","0","0","1","","0.2890792313","0.2","0.4","0.6","0.8","0.2890792313","0.4849002763","0.4089462913","0.4042362267","","","","","","","","","","","","","","72","H","0","img/none_selected.jpg","","101","main_expt",""
"","bandit","181","500440","0.0-143.0-0.0","78811911","wem/bandit_party_1","AA3R1CNZAEH2O","either","2","155","","","","","","","0","0","1","0.4886078379","","0.2","0.4","0.6","0.8","","","","","0.3136369757","0.4886078379","0.370330464","0.4594696392","","","","","","","","","","74","J","1","","","102","main_expt",""
"","bandit","182","502184","0.0-144.0-0.0","78811911","wem/bandit_party_1","AA3R1CNZAEH2O","either","2","228","","","","","","","0","0","1","","0.3306315663","0.2","0.4","0.6","0.8","0.2364671533","0.47121906","0.3306315663","0.4588766667","","","","","","","","","","","","","","75","K","2","","","103","main_expt",""
"","bandit","183","503867","0.0-145.0-0.0","78811911","wem/bandit_party_1","AA3R1CNZAEH2O","either","2","171","","","","","","","1","0","0","0.4372785745","","0.2","0.4","0.6","0.8","","","","","0.2202486688","0.4760763377","0.354634178","0.4372785745","","","","","","","","","","76","L","3","","","104","main_expt",""
"","bandit","184","505483","0.0-146.0-0.0","78811911","wem/bandit_party_1","AA3R1CNZAEH2O","either","2","104","","","","","","","1","0","0","0.4063887309","","0.2","0.4","0.6","0.8","","","","","0.1854418088","0.4701389446","0.3896605338","0.4063887309","","","","","","","","","","76","L","3","","","105","main_expt",""
"","bandit","185","507156","0.0-147.0-0.0","78811911","wem/bandit_party_1","AA3R1CNZAEH2O","either","2","164","","","","","","","0","0","1","0.3778019321","","0.2","0.4","0.6","0.8","","","","","0.1596754559","0.471324938","0.414339711","0.3778019321","","","","","","","","","","76","L","3","","","106","main_expt",""
"","bandit","186","508795","0.0-148.0-0.0","78811911","wem/bandit_party_1","AA3R1CNZAEH2O","either","2","128","","","","","","","0","1","0","","0.3614143111","0.2","0.4","0.6","0.8","0.137099288","0.4786694594","0.4164239898","0.3614143111","","","","","","","","","","","","","","76","L","3","","","107","main_expt",""
"","bandit","187","510509","0.0-149.0-0.0","78811911","wem/bandit_party_1","AA3R1CNZAEH2O","either","2","201","","","","","","","1","0","0","0.3681250399","","0.2","0.4","0.6","0.8","","","","","0.1443984823","0.4810065258","0.3836571442","0.3681250399","","","","","","","","","","76","L","3","","","108","main_expt",""
"","bandit","188","512205","0.0-150.0-0.0","78811911","wem/bandit_party_1","AA3R1CNZAEH2O","either","2","188","","","","","","","0","0","1","0.3446081275","","0.2","0.4","0.6","0.8","","","","","0.1409511773","0.4816764674","0.3881214568","0.3446081275","","","","","","","","","","76","L","3","","","109","main_expt",""
"","bandit","189","513859","0.0-151.0-0.0","78811911","wem/bandit_party_1","AA3R1CNZAEH2O","either","2","142","","","","","","","1","0","0","0.3681270965","","0.2","0.4","0.6","0.8","","","","","0.1787750665","0.4882082215","0.4266873791","0.3681270965","","","","","","","","","","76","L","3","","","110","main_expt",""
"","bandit","190","515533","0.0-152.0-0.0","78811911","wem/bandit_party_1","AA3R1CNZAEH2O","either","2","165","","","","","","","1","0","0","0.391379093","","0.2","0.4","0.6","0.8","","","","","0.1862786225","0.478642168","0.4475699482","0.391379093","","","","","","","","","","76","L","3","","","111","main_expt",""
"","bandit","191","517252","0.0-153.0-0.0","78811911","wem/bandit_party_1","AA3R1CNZAEH2O","either","2","205","","","","","","","0","0","1","0.4131544452","","0.2","0.4","0.6","0.8","","","","","0.1654620982","0.4841415165","0.4190314983","0.4131544452","","","","","","","","","","76","L","3","","","112","main_expt",""
"","bandit","192","518947","0.0-154.0-0.0","78811911","wem/bandit_party_1","AA3R1CNZAEH2O","either","2","181","","","","","","","0","0","1","0.3963985948","","0.2","0.4","0.6","0.8","","","","","0.1582981878","0.4883212127","0.3666128881","0.3963985948","","","","","","","","","","76","L","3","","","113","main_expt",""
"","bandit","193","520516","0.0-155.0-0.0","78811911","wem/bandit_party_1","AA3R1CNZAEH2O","either","2","54","","","","","","","0","0","1","","0.1922757069","0.2","0.4","0.6","0.8","0.1922757069","0.4883790739","0.3866259854","0.4117985871","","","","","","","","","","","","","","72","H","0","img/none_selected.jpg","","114","main_expt",""
"","bandit","194","522296","0.0-156.0-0.0","78811911","wem/bandit_party_1","AA3R1CNZAEH2O","either","2","271","","","","","","","0","0","1","0.4902011966","","0.2","0.4","0.6","0.8","","","","","0.185618385","0.4902011966","0.354161152","0.394381103","","","","","","","","","","74","J","1","","","115","main_expt",""
"","bandit","195","524052","0.0-157.0-0.0","78811911","wem/bandit_party_1","AA3R1CNZAEH2O","either","2","244","","","","","","","1","0","0","0.3170745426","","0.2","0.4","0.6","0.8","","","","","0.2057277395","0.4844723045","0.3170745426","0.3762408663","","","","","","","","","","75","K","2","","","116","main_expt",""
"","bandit","196","525691","0.0-158.0-0.0","78811911","wem/bandit_party_1","AA3R1CNZAEH2O","either","2","126","","","","","","","0","0","1","0.304536318","","0.2","0.4","0.6","0.8","","","","","0.2288411079","0.4895589844","0.304536318","0.3823674378","","","","","","","","","","75","K","2","","","117","main_expt",""
"","bandit","197","527363","0.0-159.0-0.0","78811911","wem/bandit_party_1","AA3R1CNZAEH2O","either","2","157","","","","","","","0","0","1","0.3411026949","","0.2","0.4","0.6","0.8","","","","","0.2207517482","0.4899729034","0.3411026949","0.4050195855","","","","","","","","","","75","K","2","","","118","main_expt",""
"","bandit","198","528957","0.0-160.0-0.0","78811911","wem/bandit_party_1","AA3R1CNZAEH2O","either","2","76","","","","","","","1","0","0","0.4227562767","","0.2","0.4","0.6","0.8","","","","","0.1955286499","0.4947041593","0.3447942488","0.4227562767","","","","","","","","","","76","L","3","","","119","main_expt",""
"","bandit","199","530599","0.0-161.0-0.0","78811911","wem/bandit_party_1","AA3R1CNZAEH2O","either","2","121","","","","","","","0","0","1","0.4163810796","","0.2","0.4","0.6","0.8","","","","","0.2427950695","0.4916865355","0.3686185352","0.4163810796","","","","","","","","","","76","L","3","","","120","main_expt",""
"","bandit","200","532359","0.0-162.0-0.0","78811911","wem/bandit_party_1","AA3R1CNZAEH2O","either","2","244","","","","","","","0","0","1","0.406821829","","0.2","0.4","0.6","0.8","","","","","0.2479682904","0.4860386064","0.3547669752","0.406821829","","","","","","","","","","76","L","3","","","121","main_expt",""
"","bandit","201","534003","0.0-163.0-0.0","78811911","wem/bandit_party_1","AA3R1CNZAEH2O","either","2","137","","","","","","","0","1","0","","0.3081985406","0.2","0.4","0.6","0.8","0.3081985406","0.483083859","0.365994073","0.3999449125","","","","","","","","","","","","","","72","H","0","img/none_selected.jpg","","122","main_expt",""
"","bandit","202","535699","0.0-164.0-0.0","78811911","wem/bandit_party_1","AA3R1CNZAEH2O","either","2","181","","","","","","","0","1","0","","0.3089359708","0.2","0.4","0.6","0.8","0.3089359708","0.4791491275","0.3120596142","0.366626489","","","","","","","","","","","","","","72","H","0","img/none_selected.jpg","","123","main_expt",""
"","bandit","203","537475","0.0-165.0-0.0","78811911","wem/bandit_party_1","AA3R1CNZAEH2O","either","2","269","","","","","","","0","1","0","","0.3298338218","0.2","0.4","0.6","0.8","0.3298338218","0.4776777384","0.302161917","0.3706278578","","","","","","","","","","","","","","72","H","0","img/none_selected.jpg","","124","main_expt",""
"","bandit","204","539114","0.0-166.0-0.0","78811911","wem/bandit_party_1","AA3R1CNZAEH2O","either","2","133","","","","","","","0","0","1","","0.2795250441","0.2","0.4","0.6","0.8","0.2795250441","0.478983255","0.2794370347","0.3545504723","","","","","","","","","","","","","","72","H","0","img/none_selected.jpg","","125","main_expt",""
"","bandit","205","540780","0.0-167.0-0.0","78811911","wem/bandit_party_1","AA3R1CNZAEH2O","either","2","157","","","","","","","0","0","1","","0.2184127205","0.2","0.4","0.6","0.8","0.2184127205","0.4724726719","0.2466154908","0.3106298006","","","","","","","","","","","","","","72","H","0","img/none_selected.jpg","","126","main_expt",""
"","bandit","206","542775","0.0-168.0-0.0","78811911","wem/bandit_party_1","AA3R1CNZAEH2O","either","2","481","","","","","","","0","1","0","","0.4796244369","0.2","0.4","0.6","0.8","0.2488858907","0.4796244369","0.2712823261","0.3351405197","","","","","","","","","","","","","","74","J","1","","","127","main_expt",""
"","bandit","207","544515","0.0-169.0-0.0","78811911","wem/bandit_party_1","AA3R1CNZAEH2O","either","2","226","","","","","","","1","0","0","0.4825212971","","0.2","0.4","0.6","0.8","","","","","0.2850827173","0.4825212971","0.2095517986","0.2984422464","","","","","","","","","","74","J","1","","","128","main_expt",""
"","bandit","208","546179","0.0-170.0-0.0","78811911","wem/bandit_party_1","AA3R1CNZAEH2O","either","2","145","","","","","","","0","0","1","","0.4877535013","0.2","0.4","0.6","0.8","0.2867242009","0.4877535013","0.1986866195","0.2027892291","","","","","","","","","","","","","","74","J","1","","","129","main_expt",""
"","bandit","209","548162","0.0-171.0-0.0","78811911","wem/bandit_party_1","AA3R1CNZAEH2O","either","2","471","","","","","","","1","0","0","0.4833646461","","0.2","0.4","0.6","0.8","","","","","0.2509552002","0.4833646461","0.172959111","0.13768179","","","","","","","","","","74","J","1","","","130","main_expt",""
"","bandit","210","549922","0.0-172.0-0.0","78811911","wem/bandit_party_1","AA3R1CNZAEH2O","either","2","252","","","","","","","0","1","0","","0.4790990265","0.2","0.4","0.6","0.8","0.2172434631","0.4790990265","0.163172462","0.1352832961","","","","","","","","","","","","","","74","J","1","","","131","main_expt",""
"","bandit","211","551769","0.0-173.0-0.0","78811911","wem/bandit_party_1","AA3R1CNZAEH2O","either","2","335","","","","","","","0","0","1","","0.4882311922","0.2","0.4","0.6","0.8","0.158295755","0.4882311922","0.161148659","0.08660982753","","","","","","","","","","","","","","74","J","1","","","132","main_expt",""
"","bandit","212","553495","0.0-174.0-0.0","78811911","wem/bandit_party_1","AA3R1CNZAEH2O","either","2","211","","","","","","","0","0","1","","0.4889625365","0.2","0.4","0.6","0.8","0.185310911","0.4889625365","0.1735641072","0.1020907376","","","","","","","","","","","","","","74","J","1","","","133","main_expt",""
"","bandit","213","555114","0.0-175.0-0.0","78811911","wem/bandit_party_1","AA3R1CNZAEH2O","either","2","105","","","","","","","0","0","1","0.1597390633","","0.2","0.4","0.6","0.8","","","","","0.1966535246","0.4916783795","0.1597390633","0.1231499397","","","","","","","","","","75","K","2","","","134","main_expt",""
"","bandit","214","556691","0.0-176.0-0.0","78811911","wem/bandit_party_1","AA3R1CNZAEH2O","either","2","63","","","","","","","0","0","1","0.1524236556","","0.2","0.4","0.6","0.8","","","","","0.2290191974","0.4904315354","0.1460070414","0.1524236556","","","","","","","","","","76","L","3","","","135","main_expt",""
"","bandit","215","558369","0.0-177.0-0.0","78811911","wem/bandit_party_1","AA3R1CNZAEH2O","either","2","165","","","","","","","0","1","0","","0.2929229053","0.2","0.4","0.6","0.8","0.2929229053","0.491666595","0.105474526","0.1954247664","","","","","","","","","","","","","","72","H","0","img/none_selected.jpg","","136","main_expt",""
"","bandit","216","560107","0.0-178.0-0.0","78811911","wem/bandit_party_1","AA3R1CNZAEH2O","either","2","226","","","","","","","0","0","1","","0.2780805385","0.2","0.4","0.6","0.8","0.2780805385","0.4917142499","0.08835118593","0.1833989084","","","","","","","","","","","","","","72","H","0","img/none_selected.jpg","","137","main_expt",""
"","bandit","217","561761","0.0-179.0-0.0","78811911","wem/bandit_party_1","AA3R1CNZAEH2O","either","2","147","","","","","","","0","0","1","","0.217224157","0.2","0.4","0.6","0.8","0.217224157","0.4870170403","0.06418360449","0.1490533902","","","","","","","","","","","","","","72","H","0","img/none_selected.jpg","","138","main_expt",""
"","bandit","218","563378","0.0-180.0-0.0","78811911","wem/bandit_party_1","AA3R1CNZAEH2O","either","2","102","","","","","","","0","0","1","","0.4834992155","0.2","0.4","0.6","0.8","0.2323391466","0.4834992155","0.03554325754","0.1318817547","","","","","","","","","","","","","","74","J","1","","","139","main_expt",""
"","bandit","219","565052","0.0-181.0-0.0","78811911","wem/bandit_party_1","AA3R1CNZAEH2O","either","2","166","","","","","","","0","0","1","0.04477370895","","0.2","0.4","0.6","0.8","","","","","0.244475209","0.4927392517","0.04477370895","0.1877412345","","","","","","","","","","75","K","2","","","140","main_expt",""
"","bandit","220","566682","0.0-182.0-0.0","78811911","wem/bandit_party_1","AA3R1CNZAEH2O","either","2","114","","","","","","","0","0","1","0.2363671377","","0.2","0.4","0.6","0.8","","","","","0.232604034","0.4872377518","0.03780119019","0.2363671377","","","","","","","","","","76","L","3","","","141","main_expt",""
"","bandit","221","568361","0.0-183.0-0.0","78811911","wem/bandit_party_1","AA3R1CNZAEH2O","either","2","170","","","","","","","0","0","1","","0.2447345556","0.2","0.4","0.6","0.8","0.2447345556","0.4846254936","0.03149913875","0.2546402356","","","","","","","","","","","","","","72","H","0","img/none_selected.jpg","","142","main_expt",""
"","bandit","222","570083","0.0-184.0-0.0","78811911","wem/bandit_party_1","AA3R1CNZAEH2O","either","2","206","","","","","","","1","0","0","0.4815328815","","0.2","0.4","0.6","0.8","","","","","0.26413271","0.4815328815","0.04191513266","0.2825544685","","","","","","","","","","74","J","1","","","143","main_expt",""
"","bandit","223","571657","0.0-185.0-0.0","78811911","wem/bandit_party_1","AA3R1CNZAEH2O","either","2","67","","","","","","","0","1","0","","0.4854048375","0.2","0.4","0.6","0.8","0.1988203511","0.4854048375","0.05613120157","0.2731230023","","","","","","","","","","","","","","74","J","1","","","144","main_expt",""
"","bandit","224","573362","0.0-186.0-0.0","78811911","wem/bandit_party_1","AA3R1CNZAEH2O","either","2","190","","","","","","","0","0","1","","0.4813029389","0.2","0.4","0.6","0.8","0.217822638","0.4813029389","0.03827589539","0.2943814715","","","","","","","","","","","","","","74","J","1","","","145","main_expt",""
"","bandit","225","574995","0.0-187.0-0.0","78811911","wem/bandit_party_1","AA3R1CNZAEH2O","either","2","124","","","","","","","0","0","1","0.4884824202","","0.2","0.4","0.6","0.8","","","","","0.2009042904","0.4884824202","0.02861175853","0.328634005","","","","","","","","","","74","J","1","","","146","main_expt",""
"","bandit","226","576772","0.0-188.0-0.0","78811911","wem/bandit_party_1","AA3R1CNZAEH2O","either","2","263","","","","","","","0","0","1","0.02140640811","","0.2","0.4","0.6","0.8","","","","","0.2080446297","0.4835291327","0.02140640811","0.3511209141","","","","","","","","","","75","K","2","","","147","main_expt",""
"","bandit","227","579745","0.0-189.0-0.0","78811911","wem/bandit_party_1","AA3R1CNZAEH2O","either","2","1459","","","","","","","0","0","1","","0.3874996206","0.2","0.4","0.6","0.8","0.1536700415","0.4716003481","0.0202041473","0.3874996206","","","","","","","","","","","","","","76","L","3","","","148","main_expt",""
"","bandit","228","581490","0.0-190.0-0.0","78811911","wem/bandit_party_1","AA3R1CNZAEH2O","either","2","227","","","","","","","0","0","1","0.1593661633","","0.2","0.4","0.6","0.8","","","","","0.1593661633","0.4341886607","0.01154190459","0.3476646045","","","","","","","","","","72","H","0","img/none_selected.jpg","","149","main_expt",""
"","bandit","229","583295","0.0-191.0-0.0","78811911","wem/bandit_party_1","AA3R1CNZAEH2O","either","2","288","","","","","","","0","0","1","","0.4014438172","0.2","0.4","0.6","0.8","0.144955896","0.4014438172","0.01291237021","0.3323010919","","","","","","","","","","","","","","74","J","1","","","150","main_expt",""
"","bandit","230","585105","0.0-192.0-0.0","78811911","wem/bandit_party_1","AA3R1CNZAEH2O","either","2","295","","","","","","","0","0","1","","0.0137789916","0.2","0.4","0.6","0.8","0.2123564028","0.3980713407","0.0137789916","0.3954477196","","","","","","","","","","","","","","75","K","2","","","151","main_expt",""
"","bandit","231","586736","0.0-193.0-0.0","78811911","wem/bandit_party_1","AA3R1CNZAEH2O","either","2","125","","","","","","","0","0","1","0.4186327087","","0.2","0.4","0.6","0.8","","","","","0.2301890466","0.4002357887","0.01985271471","0.4186327087","","","","","","","","","","76","L","3","","","152","main_expt",""
"","bandit","232","588411","0.0-194.0-0.0","78811911","wem/bandit_party_1","AA3R1CNZAEH2O","either","2","162","","","","","","","0","0","1","","0.2295153641","0.2","0.4","0.6","0.8","0.2295153641","0.388677987","0.02951100453","0.4029566754","","","","","","","","","","","","","","72","H","0","img/none_selected.jpg","","153","main_expt",""
"","bandit","233","590256","0.0-195.0-0.0","78811911","wem/bandit_party_1","AA3R1CNZAEH2O","either","2","338","","","","","","","0","1","0","","0.3817747688","0.2","0.4","0.6","0.8","0.2163321136","0.3817747688","0.02325572033","0.4037751878","","","","","","","","","","","","","","74","J","1","","","154","main_expt",""
"","bandit","234","591961","0.0-196.0-0.0","78811911","wem/bandit_party_1","AA3R1CNZAEH2O","either","2","190","","","","","","","0","1","0","","0.327727533","0.2","0.4","0.6","0.8","0.2257858177","0.327727533","0.03925092562","0.4078727314","","","","","","","","","","","","","","74","J","1","","","155","main_expt",""
"","bandit","235","593747","0.0-197.0-0.0","78811911","wem/bandit_party_1","AA3R1CNZAEH2O","either","2","276","","","","","","","0","0","1","","0.2821504166","0.2","0.4","0.6","0.8","0.2077891775","0.2821504166","0.05532081832","0.3941681487","","","","","","","","","","","","","","74","J","1","","","156","main_expt",""
"","bandit","236","595408","0.0-198.0-0.0","78811911","wem/bandit_party_1","AA3R1CNZAEH2O","either","2","142","","","","","","","0","0","1","","0.2784527126","0.2","0.4","0.6","0.8","0.1742908387","0.2784527126","0.05983660039","0.3417147062","","","","","","","","","","","","","","74","J","1","","","157","main_expt",""
"","bandit","237","597170","0.0-199.0-0.0","78811911","wem/bandit_party_1","AA3R1CNZAEH2O","either","2","246","","","","","","","0","0","1","0.09347744845","","0.2","0.4","0.6","0.8","","","","","0.162057643","0.2857058734","0.09347744845","0.2963220618","","","","","","","","","","75","K","2","","","158","main_expt",""
"","bandit","238","598795","0.0-200.0-0.0","78811911","wem/bandit_party_1","AA3R1CNZAEH2O","either","2","107","","","","","","","1","0","0","0.2961528309","","0.2","0.4","0.6","0.8","","","","","0.1805514511","0.2349295223","0.09649648717","0.2961528309","","","","","","","","","","76","L","3","","","159","main_expt",""
"","bandit","239","600449","0.0-201.0-0.0","78811911","wem/bandit_party_1","AA3R1CNZAEH2O","either","2","140","","","","","","","0","0","1","0.2842772575","","0.2","0.4","0.6","0.8","","","","","0.1724629995","0.2275717407","0.08382429791","0.2842772575","","","","","","","","","","76","L","3","","","160","main_expt",""
"","bandit","240","602119","0.0-202.0-0.0","78811911","wem/bandit_party_1","AA3R1CNZAEH2O","either","2","163","","","","","","","0","0","1","0.2747674873","","0.2","0.4","0.6","0.8","","","","","0.1660992999","0.2559884592","0.1466352983","0.2747674873","","","","","","","","","","76","L","3","","","161","main_expt",""
"","bandit","241","603728","0.0-203.0-0.0","78811911","wem/bandit_party_1","AA3R1CNZAEH2O","either","2","99","","","","","","","0","0","1","0.2281832109","","0.2","0.4","0.6","0.8","","","","","0.2281832109","0.2670526618","0.1569467617","0.2993190406","","","","","","","","","","72","H","0","img/none_selected.jpg","","162","main_expt",""
"","bandit","242","605507","0.0-204.0-0.0","78811911","wem/bandit_party_1","AA3R1CNZAEH2O","either","2","268","","","","","","","0","0","1","0.2618894379","","0.2","0.4","0.6","0.8","","","","","0.2144285545","0.2618894379","0.1437935099","0.3102408377","","","","","","","","","","74","J","1","","","163","main_expt",""
"","bandit","243","607346","0.0-205.0-0.0","78811911","wem/bandit_party_1","AA3R1CNZAEH2O","either","2","321","","","","","","","1","0","0","0.1503677763","","0.2","0.4","0.6","0.8","","","","","0.2131293933","0.2977476978","0.1503677763","0.2607878409","","","","","","","","","","75","K","2","","","164","main_expt",""
"","bandit","244","609046","0.0-206.0-0.0","78811911","wem/bandit_party_1","AA3R1CNZAEH2O","either","2","191","","","","","","","0","0","1","","0.1574825995","0.2","0.4","0.6","0.8","0.251698227","0.3138636066","0.1574825995","0.2470054868","","","","","","","","","","","","","","75","K","2","","","165","main_expt",""
"","bandit","245","610659","0.0-207.0-0.0","78811911","wem/bandit_party_1","AA3R1CNZAEH2O","either","2","90","","","","","","","0","0","1","","0.1500633275","0.2","0.4","0.6","0.8","0.2831539445","0.3204338644","0.1500633275","0.2629624785","","","","","","","","","","","","","","75","K","2","","","166","main_expt",""
"","bandit","246","612394","0.0-208.0-0.0","78811911","wem/bandit_party_1","AA3R1CNZAEH2O","either","2","211","","","","","","","0","0","1","0.2745713682","","0.2","0.4","0.6","0.8","","","","","0.2496169508","0.3600517585","0.1137242654","0.2745713682","","","","","","","","","","76","L","3","","","167","main_expt",""
"","bandit","247","614048","0.0-209.0-0.0","78811911","wem/bandit_party_1","AA3R1CNZAEH2O","either","2","138","","","","","","","0","0","1","0.2315540067","","0.2","0.4","0.6","0.8","","","","","0.2315540067","0.3678373827","0.145192941","0.2557249153","","","","","","","","","","72","H","0","img/none_selected.jpg","","168","main_expt",""
"","bandit","248","615834","0.0-210.0-0.0","78811911","wem/bandit_party_1","AA3R1CNZAEH2O","either","2","269","","","","","","","0","1","0","","0.3421512568","0.2","0.4","0.6","0.8","0.1825517174","0.3421512568","0.1863479632","0.2016321063","","","","","","","","","","","","","","74","J","1","","","169","main_expt",""
"","bandit","249","617504","0.0-211.0-0.0","78811911","wem/bandit_party_1","AA3R1CNZAEH2O","either","2","153","","","","","","","0","0","1","0.3917895485","","0.2","0.4","0.6","0.8","","","","","0.2535959064","0.3917895485","0.142304713","0.2210696627","","","","","","","","","","74","J","1","","","170","main_expt",""
"","bandit","250","619274","0.0-212.0-0.0","78811911","wem/bandit_party_1","AA3R1CNZAEH2O","either","2","253","","","","","","","0","0","1","","0.3206692194","0.2","0.4","0.6","0.8","0.3004284576","0.3206692194","0.1739768979","0.1627904758","","","","","","","","","","","","","","74","J","1","","","171","main_expt",""
"","bandit","251","621058","0.0-213.0-0.0","78811911","wem/bandit_party_1","AA3R1CNZAEH2O","either","2","276","","","","","","","0","0","1","0.2172659048","","0.2","0.4","0.6","0.8","","","","","0.2716191145","0.3198600846","0.2172659048","0.1421076649","","","","","","","","","","75","K","2","","","172","main_expt",""
"","bandit","252","622680","0.0-214.0-0.0","78811911","wem/bandit_party_1","AA3R1CNZAEH2O","either","2","108","","","","","","","0","0","1","","0.165050165","0.2","0.4","0.6","0.8","0.3253138029","0.2641483633","0.2419731025","0.165050165","","","","","","","","","","","","","","76","L","3","","","173","main_expt",""
"","bandit","253","624320","0.0-215.0-0.0","78811911","wem/bandit_party_1","AA3R1CNZAEH2O","either","2","132","","","","","","","0","0","1","0.3419591401","","0.2","0.4","0.6","0.8","","","","","0.3419591401","0.2248062597","0.2239571331","0.1406738207","","","","","","","","","","72","H","0","img/none_selected.jpg","","174","main_expt",""
"","bandit","254","626072","0.0-216.0-0.0","78811911","wem/bandit_party_1","AA3R1CNZAEH2O","either","2","244","","","","","","","1","0","0","0.2370379408","","0.2","0.4","0.6","0.8","","","","","0.3442692367","0.2370379408","0.2311410243","0.138310495","","","","","","","","","","74","J","1","","","175","main_expt",""
"","bandit","255","627720","0.0-217.0-0.0","78811911","wem/bandit_party_1","AA3R1CNZAEH2O","either","2","138","","","","","","","0","0","1","","0.2157433706","0.2","0.4","0.6","0.8","0.3397266539","0.2157433706","0.2610077479","0.1675243642","","","","","","","","","","","","","","74","J","1","","","176","main_expt",""
"","bandit","256","629342","0.0-218.0-0.0","78811911","wem/bandit_party_1","AA3R1CNZAEH2O","either","2","104","","","","","","","0","0","1","0.2014791824","","0.2","0.4","0.6","0.8","","","","","0.2997078274","0.2014791824","0.2780938204","0.1919885971","","","","","","","","","","74","J","1","","","177","main_expt",""
"","bandit","257","631023","0.0-219.0-0.0","78811911","wem/bandit_party_1","AA3R1CNZAEH2O","either","2","165","","","","","","","0","1","0","","0.3151752793","0.2","0.4","0.6","0.8","0.3064007527","0.1913564418","0.3151752793","0.2365392944","","","","","","","","","","","","","","75","K","2","","","178","main_expt",""
"","bandit","258","632721","0.0-220.0-0.0","78811911","wem/bandit_party_1","AA3R1CNZAEH2O","either","2","173","","","","","","","0","0","1","0.2799621139","","0.2","0.4","0.6","0.8","","","","","0.3533432679","0.1980728016","0.2799621139","0.2509455726","","","","","","","","","","75","K","2","","","179","main_expt",""
"","bandit","259","634279","0.0-221.0-0.0","78811911","wem/bandit_party_1","AA3R1CNZAEH2O","either","2","39","","","","","","","0","0","1","0.2767223981","","0.2","0.4","0.6","0.8","","","","","0.3652522579","0.1833491223","0.3170936092","0.2767223981","","","","","","","","","","76","L","3","","","180","main_expt",""
"","bandit","260","635998","0.0-222.0-0.0","78811911","wem/bandit_party_1","AA3R1CNZAEH2O","either","2","204","","","","","","","0","1","0","","0.3383156657","0.2","0.4","0.6","0.8","0.3383156657","0.1342686697","0.28101752","0.314600373","","","","","","","","","","","","","","72","H","0","img/none_selected.jpg","","181","main_expt",""
"","bandit","261","637752","0.0-223.0-0.0","78811911","wem/bandit_party_1","AA3R1CNZAEH2O","either","2","238","","","","","","","0","0","1","","0.2902116232","0.2","0.4","0.6","0.8","0.2902116232","0.1636660304","0.3043342224","0.3943610609","","","","","","","","","","","","","","72","H","0","img/none_selected.jpg","","182","main_expt",""
"","bandit","262","639489","0.0-224.0-0.0","78811911","wem/bandit_party_1","AA3R1CNZAEH2O","either","2","226","","","","","","","0","0","1","","0.3026157476","0.2","0.4","0.6","0.8","0.3026157476","0.136761637","0.3192524042","0.3586422101","","","","","","","","","","","","","","72","H","0","img/none_selected.jpg","","183","main_expt",""
"","bandit","263","641168","0.0-225.0-0.0","78811911","wem/bandit_party_1","AA3R1CNZAEH2O","either","2","161","","","","","","","0","0","1","","0.1685989701","0.2","0.4","0.6","0.8","0.3360229169","0.1685989701","0.3332516821","0.3879999062","","","","","","","","","","","","","","74","J","1","","","184","main_expt",""
"","bandit","264","642936","0.0-226.0-0.0","78811911","wem/bandit_party_1","AA3R1CNZAEH2O","either","2","259","","","","","","","0","0","1","","0.3228184693","0.2","0.4","0.6","0.8","0.3336456265","0.1663529744","0.3228184693","0.3831340227","","","","","","","","","","","","","","75","K","2","","","185","main_expt",""
"","bandit","265","644705","0.0-227.0-0.0","78811911","wem/bandit_party_1","AA3R1CNZAEH2O","either","2","250","","","","","","","0","0","1","0.3999004662","","0.2","0.4","0.6","0.8","","","","","0.3308881938","0.1916836285","0.3111703144","0.3999004662","","","","","","","","","","76","L","3","","","186","main_expt",""
"","bandit","266","646334","0.0-228.0-0.0","78811911","wem/bandit_party_1","AA3R1CNZAEH2O","either","2","114","","","","","","","0","1","0","","0.325530054","0.2","0.4","0.6","0.8","0.325530054","0.1686829448","0.3353611299","0.3875363153","","","","","","","","","","","","","","72","H","0","img/none_selected.jpg","","187","main_expt",""
"","bandit","267","648017","0.0-229.0-0.0","78811911","wem/bandit_party_1","AA3R1CNZAEH2O","either","2","162","","","","","","","0","0","1","","0.3055482451","0.2","0.4","0.6","0.8","0.3055482451","0.1461675531","0.3646937268","0.3875691392","","","","","","","","","","","","","","72","H","0","img/none_selected.jpg","","188","main_expt",""
"","bandit","268","649764","0.0-230.0-0.0","78811911","wem/bandit_party_1","AA3R1CNZAEH2O","either","2","223","","","","","","","0","0","1","","0.3002345065","0.2","0.4","0.6","0.8","0.3002345065","0.1382971047","0.3891323825","0.4166866882","","","","","","","","","","","","","","72","H","0","img/none_selected.jpg","","189","main_expt",""
"","bandit","269","651502","0.0-231.0-0.0","78811911","wem/bandit_party_1","AA3R1CNZAEH2O","either","2","221","","","","","","","0","0","1","0.1898135375","","0.2","0.4","0.6","0.8","","","","","0.2693931213","0.1898135375","0.3860741766","0.4124474499","","","","","","","","","","74","J","1","","","190","main_expt",""
"","bandit","270","653136","0.0-232.0-0.0","78811911","wem/bandit_party_1","AA3R1CNZAEH2O","either","2","117","","","","","","","0","0","1","0.3864243721","","0.2","0.4","0.6","0.8","","","","","0.3009284261","0.1264917812","0.3864243721","0.3638199534","","","","","","","","","","75","K","2","","","191","main_expt",""
"","bandit","271","655424","0.0-233.0-0.0","78811911","wem/bandit_party_1","AA3R1CNZAEH2O","either","2","768","","","","","","","0","0","1","0.3711146034","","0.2","0.4","0.6","0.8","","","","","0.3157917784","0.1185409567","0.400448014","0.3711146034","","","","","","","","","","76","L","3","","","192","main_expt",""
"","bandit","272","657233","0.0-234.0-0.0","78811911","wem/bandit_party_1","AA3R1CNZAEH2O","either","2","289","","","","","","","0","0","1","","0.2999212614","0.2","0.4","0.6","0.8","0.2999212614","0.09837948322","0.3895367297","0.3654165885","","","","","","","","","","","","","","72","H","0","img/none_selected.jpg","","193","main_expt",""
"","bandit","273","659064","0.0-235.0-0.0","78811911","wem/bandit_party_1","AA3R1CNZAEH2O","either","2","318","","","","","","","0","0","1","","0.137690802","0.2","0.4","0.6","0.8","0.3287494418","0.137690802","0.4032313792","0.3537818584","","","","","","","","","","","","","","74","J","1","","","194","main_expt",""
"","bandit","274","661345","0.0-236.0-0.0","78811911","wem/bandit_party_1","AA3R1CNZAEH2O","either","2","763","","","","","","","0","0","1","","0.337234763","0.2","0.4","0.6","0.8","0.3031978913","0.1683354775","0.337234763","0.3597494918","","","","","","","","","","","","","","75","K","2","","","195","main_expt",""
"","bandit","275","663217","0.0-237.0-0.0","78811911","wem/bandit_party_1","AA3R1CNZAEH2O","either","2","352","","","","","","","1","0","0","0.3479121901","","0.2","0.4","0.6","0.8","","","","","0.2901303692","0.1561951964","0.3950764453","0.3479121901","","","","","","","","","","76","L","3","","","196","main_expt",""
"","bandit","276","664824","0.0-238.0-0.0","78811911","wem/bandit_party_1","AA3R1CNZAEH2O","either","2","87","","","","","","","0","0","1","0.3596292454","","0.2","0.4","0.6","0.8","","","","","0.2444781728","0.1329868482","0.4193743727","0.3596292454","","","","","","","","","","76","L","3","","","197","main_expt",""
"","bandit","277","666559","0.0-239.0-0.0","78811911","wem/bandit_party_1","AA3R1CNZAEH2O","either","2","215","","","","","","","0","0","1","0.3555371828","","0.2","0.4","0.6","0.8","","","","","0.2140047665","0.1730826789","0.4375347816","0.3555371828","","","","","","","","","","76","L","3","","","198","main_expt",""
"","bandit","278","668342","0.0-240.0-0.0","78811911","wem/bandit_party_1","AA3R1CNZAEH2O","either","2","264","","","","","","","0","0","1","","0.2077842613","0.2","0.4","0.6","0.8","0.2077842613","0.1385649096","0.4315030007","0.4016486285","","","","","","","","","","","","","","72","H","0","img/none_selected.jpg","","199","main_expt",""
"","bandit","279","670116","0.0-241.0-0.0","78811911","wem/bandit_party_1","AA3R1CNZAEH2O","either","2","257","","","","","","","1","0","0","0.1941139053","","0.2","0.4","0.6","0.8","","","","","0.180488049","0.1941139053","0.4340108373","0.3871107612","","","","","","","","","","74","J","1","","","200","main_expt",""
"","bandit","280","671761","0.0-242.0-0.0","78811911","wem/bandit_party_1","AA3R1CNZAEH2O","either","2","124","","","","","","","0","1","0","","0.1825013029","0.2","0.4","0.6","0.8","0.2084987087","0.1825013029","0.441078118","0.3856539452","","","","","","","","","","","","","","74","J","1","","","201","main_expt",""
"","bandit","281","673550","0.0-243.0-0.0","78811911","wem/bandit_party_1","AA3R1CNZAEH2O","either","2","277","","","","","","","0","0","1","0.162440572","","0.2","0.4","0.6","0.8","","","","","0.1869669721","0.162440572","0.4143682719","0.358588673","","","","","","","","","","74","J","1","","","202","main_expt",""
"","bandit","282","675246","0.0-244.0-0.0","78811911","wem/bandit_party_1","AA3R1CNZAEH2O","either","2","176","","","","","","","0","0","1","","0.1914238456","0.2","0.4","0.6","0.8","0.1383076553","0.1914238456","0.4280720422","0.3460881607","","","","","","","","","","","","","","74","J","1","","","203","main_expt",""
"","bandit","283","676936","0.0-245.0-0.0","78811911","wem/bandit_party_1","AA3R1CNZAEH2O","either","2","177","","","","","","","0","0","1","0.4113524858","","0.2","0.4","0.6","0.8","","","","","0.1656187697","0.1849793247","0.4113524858","0.3091432968","","","","","","","","","","75","K","2","","","204","main_expt",""
"","bandit","284","678502","0.0-246.0-0.0","78811911","wem/bandit_party_1","AA3R1CNZAEH2O","either","2","47","","","","","","","0","0","1","0.3016396897","","0.2","0.4","0.6","0.8","","","","","0.1699285253","0.1722293799","0.4151465815","0.3016396897","","","","","","","","","","76","L","3","","","205","main_expt",""
"","bandit","285","680029","0.0-247.0-0.0","78811911","wem/bandit_party_1","AA3R1CNZAEH2O","either","2","19","","","","","","","0","0","1","0.161732949","","0.2","0.4","0.6","0.8","","","","","0.161732949","0.1625694713","0.4002359997","0.3300702997","","","","","","","","","","72","H","0","img/none_selected.jpg","","206","main_expt",""
"","bandit","286","681726","0.0-248.0-0.0","78811911","wem/bandit_party_1","AA3R1CNZAEH2O","either","2","185","","","","","","","0","0","1","0.1079769143","","0.2","0.4","0.6","0.8","","","","","0.1699017951","0.1079769143","0.3692387261","0.2648848683","","","","","","","","","","74","J","1","","","207","main_expt",""
"","bandit","287","683409","0.0-249.0-0.0","78811911","wem/bandit_party_1","AA3R1CNZAEH2O","either","2","163","","","","","","","1","0","0","0.3283471685","","0.2","0.4","0.6","0.8","","","","","0.1592107695","0.1380178959","0.3283471685","0.2502792914","","","","","","","","","","75","K","2","","","208","main_expt",""
"","bandit","288","685726","0.0-250.0-0.0","78811911","wem/bandit_party_1","AA3R1CNZAEH2O","either","2","796","","","","","","","0","0","1","0.2924758898","","0.2","0.4","0.6","0.8","","","","","0.1659907122","0.1538506734","0.2924758898","0.2770073026","","","","","","","","","","75","K","2","","","209","main_expt",""
"","bandit","289","687388","0.0-251.0-0.0","78811911","wem/bandit_party_1","AA3R1CNZAEH2O","either","2","153","","","","","","","0","0","1","","0.2279470939","0.2","0.4","0.6","0.8","0.229525517","0.1406222791","0.2279470939","0.3451435735","","","","","","","","","","","","","","75","K","2","","","210","main_expt",""
"","bandit","290","689032","0.0-252.0-0.0","78811911","wem/bandit_party_1","AA3R1CNZAEH2O","either","2","132","","","","","","","0","1","0","","0.3514478275","0.2","0.4","0.6","0.8","0.2434605193","0.08987887408","0.2131844406","0.3514478275","","","","","","","","","","","","","","76","L","3","","","211","main_expt",""
"","bandit","291","690605","0.0-253.0-0.0","78811911","wem/bandit_party_1","AA3R1CNZAEH2O","either","2","46","","","","","","","0","0","1","0.3579324364","","0.2","0.4","0.6","0.8","","","","","0.1633214123","0.1277875359","0.1601793481","0.3579324364","","","","","","","","","","76","L","3","","","212","main_expt",""
"","bandit","292","692341","0.0-254.0-0.0","78811911","wem/bandit_party_1","AA3R1CNZAEH2O","either","2","226","","","","","","","1","0","0","0.3231243524","","0.2","0.4","0.6","0.8","","","","","0.1014835246","0.134271297","0.1354109392","0.3231243524","","","","","","","","","","76","L","3","","","213","main_expt",""
"","bandit","293","694121","0.0-255.0-0.0","78811911","wem/bandit_party_1","AA3R1CNZAEH2O","either","2","266","","","","","","","0","1","0","","0.2798540136","0.2","0.4","0.6","0.8","0.09587264096","0.1385204111","0.1142105534","0.2798540136","","","","","","","","","","","","","","76","L","3","","","214","main_expt",""
"","bandit","294","695927","0.0-256.0-0.0","78811911","wem/bandit_party_1","AA3R1CNZAEH2O","either","2","284","","","","","","","0","1","0","","0.2469391402","0.2","0.4","0.6","0.8","0.08342689115","0.1089132689","0.1031311673","0.2469391402","","","","","","","","","","","","","","76","L","3","","","215","main_expt",""
"","bandit","295","697709","0.0-257.0-0.0","78811911","wem/bandit_party_1","AA3R1CNZAEH2O","either","2","262","","","","","","","0","0","1","0.3211823944","","0.2","0.4","0.6","0.8","","","","","0.05361264496","0.1299508563","0.1031732366","0.3211823944","","","","","","","","","","76","L","3","","","216","main_expt",""
"","bandit","296","699344","0.0-258.0-0.0","78811911","wem/bandit_party_1","AA3R1CNZAEH2O","either","2","100","","","","","","","0","0","1","0.3545519007","","0.2","0.4","0.6","0.8","","","","","0.09912420903","0.131109262","0.1188097379","0.3545519007","","","","","","","","","","76","L","3","","","217","main_expt",""
"","bandit","297","701134","0.0-259.0-0.0","78811911","wem/bandit_party_1","AA3R1CNZAEH2O","either","2","265","","","","","","","0","0","1","","0.1021137889","0.2","0.4","0.6","0.8","0.1021137889","0.1039495344","0.1096623481","0.3781539282","","","","","","","","","","","","","","72","H","0","img/none_selected.jpg","","218","main_expt",""
"","bandit","298","702885","0.0-260.0-0.0","78811911","wem/bandit_party_1","AA3R1CNZAEH2O","either","2","232","","","","","","","0","0","1","0.09488552944","","0.2","0.4","0.6","0.8","","","","","0.1025207236","0.09488552944","0.08679630722","0.3674409598","","","","","","","","","","74","J","1","","","219","main_expt",""
"","bandit","299","704671","0.0-261.0-0.0","78811911","wem/bandit_party_1","AA3R1CNZAEH2O","either","2","276","","","","","","","0","0","1","","0.1482089448","0.2","0.4","0.6","0.8","0.1049734862","0.1311925698","0.1482089448","0.315237632","","","","","","","","","","","","","","75","K","2","","","220","main_expt",""
"","bandit","300","706453","0.0-262.0-0.0","78811911","wem/bandit_party_1","AA3R1CNZAEH2O","either","2","272","","","","","","","0","0","1","0.3572442142","","0.2","0.4","0.6","0.8","","","","","0.08244295151","0.08224132258","0.217172314","0.3572442142","","","","","","","","","","76","L","3","","","221","main_expt",""
"","bandit","301","708117","0.0-263.0-0.0","78811911","wem/bandit_party_1","AA3R1CNZAEH2O","either","2","152","","","","","","","0","0","1","","0.09815111748","0.2","0.4","0.6","0.8","0.09815111748","0.06870998364","0.2227738938","0.2796125419","","","","","","","","","","","","","","72","H","0","img/none_selected.jpg","","222","main_expt",""
"","bandit","302","709876","0.0-264.0-0.0","78811911","wem/bandit_party_1","AA3R1CNZAEH2O","either","2","234","","","","","","","0","0","1","0.111762886","","0.2","0.4","0.6","0.8","","","","","0.09925351505","0.111762886","0.2768694491","0.2265565182","","","","","","","","","","74","J","1","","","223","main_expt",""
"","bandit","303","711693","0.0-265.0-0.0","78811911","wem/bandit_party_1","AA3R1CNZAEH2O","either","2","307","","","","","","","0","0","1","","0.2895694018","0.2","0.4","0.6","0.8","0.07842644678","0.09652303785","0.2895694018","0.1727872262","","","","","","","","","","","","","","75","K","2","","","224","main_expt",""
"","bandit","304","713572","0.0-266.0-0.0","78811911","wem/bandit_party_1","AA3R1CNZAEH2O","either","2","360","","","","","","","0","0","1","0.1580797834","","0.2","0.4","0.6","0.8","","","","","0.05284632075","0.09424892582","0.3515154126","0.1580797834","","","","","","","","","","76","L","3","","","225","main_expt",""
"","bandit","305","715480","0.0-267.0-0.0","78811911","wem/bandit_party_1","AA3R1CNZAEH2O","either","2","390","","","","","","","0","0","1","","0.06788221328","0.2","0.4","0.6","0.8","0.06788221328","0.1094697254","0.3960872924","0.1206031336","","","","","","","","","","","","","","72","H","0","img/none_selected.jpg","","226","main_expt",""
"","bandit","306","718485","0.0-268.0-0.0","78811911","wem/bandit_party_1","AA3R1CNZAEH2O","either","2","1495","","","","","","","0","0","1","","0.1055794081","0.2","0.4","0.6","0.8","0.04226868229","0.1055794081","0.3301105445","0.1218099769","","","","","","","","","","","","","","74","J","1","","","227","main_expt",""
"","bandit","307","720292","0.0-269.0-0.0","78811911","wem/bandit_party_1","AA3R1CNZAEH2O","either","2","297","","","","","","","1","0","0","0.3679650562","","0.2","0.4","0.6","0.8","","","","","0.06174471126","0.1210232629","0.3679650562","0.08458740206","","","","","","","","","","75","K","2","","","228","main_expt",""
"","bandit","308","721982","0.0-270.0-0.0","78811911","wem/bandit_party_1","AA3R1CNZAEH2O","either","2","170","","","","","","","1","0","0","0.3413725311","","0.2","0.4","0.6","0.8","","","","","0.06122033102","0.1249199002","0.3413725311","0.06311990622","","","","","","","","","","75","K","2","","","229","main_expt",""
"","bandit","309","723789","0.0-271.0-0.0","78811911","wem/bandit_party_1","AA3R1CNZAEH2O","either","2","297","","","","","","","0","0","1","","0.3652503211","0.2","0.4","0.6","0.8","0.09369367087","0.1423167866","0.3652503211","0.04674316758","","","","","","","","","","","","","","75","K","2","","","230","main_expt",""
"","bandit","310","725405","0.0-272.0-0.0","78811911","wem/bandit_party_1","AA3R1CNZAEH2O","either","2","95","","","","","","","0","0","1","0.3774172636","","0.2","0.4","0.6","0.8","","","","","0.1378364932","0.1441411413","0.3774172636","0.06697327866","","","","","","","","","","75","K","2","","","231","main_expt",""
"","bandit","311","727175","0.0-273.0-0.0","78811911","wem/bandit_party_1","AA3R1CNZAEH2O","either","2","248","","","","","","","0","0","1","","0.08617656909","0.2","0.4","0.6","0.8","0.1138343256","0.1132866493","0.3507397895","0.08617656909","","","","","","","","","","","","","","76","L","3","","","232","main_expt",""
"","bandit","312","728813","0.0-274.0-0.0","78811911","wem/bandit_party_1","AA3R1CNZAEH2O","either","2","115","","","","","","","0","0","1","","0.1602674987","0.2","0.4","0.6","0.8","0.1602674987","0.07587191469","0.3228668676","0.08388286328","","","","","","","","","","","","","","72","H","0","img/none_selected.jpg","","233","main_expt",""
"","bandit","313","731717","0.0-275.0-0.0","78811911","wem/bandit_party_1","AA3R1CNZAEH2O","either","2","1384","","","","","","","0","0","1","","0.08330376307","0.2","0.4","0.6","0.8","0.1399599793","0.08330376307","0.3219168209","0.08303297831","","","","","","","","","","","","","","74","J","1","","","234","main_expt",""
"","bandit","314","733565","0.0-276.0-0.0","78811911","wem/bandit_party_1","AA3R1CNZAEH2O","either","2","328","","","","","","","1","0","0","0.2907257894","","0.2","0.4","0.6","0.8","","","","","0.1577883936","0.07960395758","0.2907257894","0.08228619446","","","","","","","","","","75","K","2","","","235","main_expt",""
"","bandit","315","735500","0.0-277.0-0.0","78811911","wem/bandit_party_1","AA3R1CNZAEH2O","either","2","414","","","","","","","0","1","0","","0.2879125653","0.2","0.4","0.6","0.8","0.1206463377","0.06703487678","0.2879125653","0.07856112713","","","","","","","","","","","","","","75","K","2","","","236","main_expt",""
"","bandit","316","737337","0.0-278.0-0.0","78811911","wem/bandit_party_1","AA3R1CNZAEH2O","either","2","314","","","","","","","0","0","1","0.3055933028","","0.2","0.4","0.6","0.8","","","","","0.1224948263","0.07970276757","0.3055933028","0.09394336493","","","","","","","","","","75","K","2","","","237","main_expt",""
