"consent","trial_type","trial_index","time_elapsed","internal_node_id","subjID","study","MID","cond","drift","rt","responses","button_pressed","key_press","like","value","connected","gems","bombs","no_reward","GemPrChosen","BombPrChosen","GainOverPainPr_0","GainOverPainPr_1","GainOverPainPr_2","GainOverPainPr_3","LosePr_0","LosePr_1","LosePr_2","LosePr_3","WinPr_0","WinPr_1","WinPr_2","WinPr_3","Q0","Q1","Q2","gender","age","ethnicity","label","expt_phase","target","respCharCode","respKey","respChoiceNum","respChoice","practice","trial_counter","trial_label","Q0_index"
"GDM/GDM_behavioral_consent_30min_online.html","consent","0","8395","0.0-0.0","81055132","wem/bandit_party_1","A2UGM73EHLK6XI","either","8","","","","","","","","","","","","","","","","","","","","","","","","","","","","","","","","","","","","","","","","",""
"","survey-text","1","19774","0.0-1.0","81055132","wem/bandit_party_1","A2UGM73EHLK6XI","either","8","10326","{""Q0"":""A2UGM73EHLK6XI""}","","","","","","","","","","","","","","","","","","","","","","","","","","","","","","","","","","","","","","",""
"","button-response","2","23014","0.0-2.0","81055132","wem/bandit_party_1","A2UGM73EHLK6XI","either","8","2200","","1","","","","","","","","","","","","","","","","","","","","","","","","","","","","","","","","","","","","","",""
"","text-replacement","3","46400","0.0-3.0","81055132","wem/bandit_party_1","A2UGM73EHLK6XI","either","8","22367","","","32","","","","","","","","","","","","","","","","","","","","","","","","","","","","","","","","","","","","",""
"","text-replacement","4","59554","0.0-4.0","81055132","wem/bandit_party_1","A2UGM73EHLK6XI","either","8","13138","","","32","","","","","","","","","","","","","","","","","","","","","","","","","","","","","","","","","","","","",""
"","identification","5","76021","0.0-6.0-0.0","81055132","wem/bandit_party_1","A2UGM73EHLK6XI","either","8","16407","","","","5","6","5","","","","","","","","","","","","","","","","","","","","","","","","pre","identification_pre","the Democratic Party","","","","","","","",""
"","identification","6","82784","0.0-6.0-1.0","81055132","wem/bandit_party_1","A2UGM73EHLK6XI","either","8","5691","","","","0","0","0","","","","","","","","","","","","","","","","","","","","","","","","pre","identification_pre","the Republican party","","","","","","","",""
"","text-replacement","7","97670","0.0-7.0","81055132","wem/bandit_party_1","A2UGM73EHLK6XI","either","8","13872","","","32","","","","","","","","","","","","","","","","","","","","","","","","","","","","","","","","","","","","",""
"","text-replacement","8","111762","0.0-8.0","81055132","wem/bandit_party_1","A2UGM73EHLK6XI","either","8","14084","","","32","","","","","","","","","","","","","","","","","","","","","","","","","","","","","","","","","","","","",""
"","text-replacement","9","134729","0.0-9.0","81055132","wem/bandit_party_1","A2UGM73EHLK6XI","either","8","22951","","","32","","","","","","","","","","","","","","","","","","","","","","","","","","","","","","","","","","","","",""
"","text-replacement","10","141455","0.0-10.0","81055132","wem/bandit_party_1","A2UGM73EHLK6XI","either","8","6714","","","32","","","","","","","","","","","","","","","","","","","","","","","","","","","","","","","","","","","","",""
"","text-replacement","11","149409","0.0-11.0","81055132","wem/bandit_party_1","A2UGM73EHLK6XI","either","8","7950","","","32","","","","","","","","","","","","","","","","","","","","","","","","","","","","","","","","","","","","",""
"","bandit","12","153535","0.0-12.0-0.0","81055132","wem/bandit_party_1","A2UGM73EHLK6XI","either","8","2581","","","","","","","0","0","1","0","0","","","","","0","","","","0","","","","","","","","","","","","","74","J","0","img/none_selected_demo.jpg","true","0","",""
"","bandit","13","157233","0.0-13.0-0.0","81055132","wem/bandit_party_1","A2UGM73EHLK6XI","either","8","2157","","","","","","","0","0","1","0","0","","","","","0","","","","0","","","","","","","","","","","","","75","K","0","img/none_selected_demo.jpg","true","0","",""
"","text-replacement","14","165467","0.0-14.0","81055132","wem/bandit_party_1","A2UGM73EHLK6XI","either","8","8226","","","32","","","","","","","","","","","","","","","","","","","","","","","","","","","","","","","","","","","","",""
"","text-replacement","15","177893","0.0-15.0","81055132","wem/bandit_party_1","A2UGM73EHLK6XI","either","8","12410","","","32","","","","","","","","","","","","","","","","","","","","","","","","","","","","","","","","","","","","",""
"","text-replacement","16","185999","0.0-16.0","81055132","wem/bandit_party_1","A2UGM73EHLK6XI","either","8","8093","","","32","","","","","","","","","","","","","","","","","","","","","","","","","","","","","","","","","","","","",""
"","text-replacement","17","192617","0.0-17.0","81055132","wem/bandit_party_1","A2UGM73EHLK6XI","either","8","6610","","","32","","","","","","","","","","","","","","","","","","","","","","","","","","","","","","","","","","","","",""
"","bandit","18","195151","0.0-18.0-0.0","81055132","wem/bandit_party_1","A2UGM73EHLK6XI","either","8","995","","","","","","","0","1","0","","0.8","0.5","0.5","","","0.8","0.2","","","","","","","","","","","","","","","","74","J","0","img/none_selected_demo.jpg","true","0","80_20_practice",""
"","bandit","19","197663","0.0-18.0-1.0","81055132","wem/bandit_party_1","A2UGM73EHLK6XI","either","8","965","","","","","","","0","0","1","0.8","","0.5","0.5","","","","","","","0.8","0.2","","","","","","","","","","","","74","J","0","img/none_selected_demo.jpg","true","0","80_20_practice",""
"","bandit","20","199628","0.0-18.0-2.0","81055132","wem/bandit_party_1","A2UGM73EHLK6XI","either","8","424","","","","","","","0","1","0","","0.8","0.5","0.5","","","0.8","0.2","","","","","","","","","","","","","","","","74","J","0","img/none_selected_demo.jpg","true","0","80_20_practice",""
"","bandit","21","202048","0.0-18.0-3.0","81055132","wem/bandit_party_1","A2UGM73EHLK6XI","either","8","877","","","","","","","1","0","0","0.8","","0.5","0.5","","","","","","","0.8","0.2","","","","","","","","","","","","74","J","0","img/none_selected_demo.jpg","true","0","80_20_practice",""
"","bandit","22","203974","0.0-18.0-4.0","81055132","wem/bandit_party_1","A2UGM73EHLK6XI","either","8","389","","","","","","","0","1","0","","0.8","0.5","0.5","","","0.8","0.2","","","","","","","","","","","","","","","","74","J","0","img/none_selected_demo.jpg","true","0","80_20_practice",""
"","bandit","23","206145","0.0-18.0-5.0","81055132","wem/bandit_party_1","A2UGM73EHLK6XI","either","8","640","","","","","","","1","0","0","0.8","","0.5","0.5","","","","","","","0.8","0.2","","","","","","","","","","","","74","J","0","img/none_selected_demo.jpg","true","0","80_20_practice",""
"","bandit","24","208009","0.0-18.0-6.0","81055132","wem/bandit_party_1","A2UGM73EHLK6XI","either","8","324","","","","","","","1","0","0","0.8","","0.5","0.5","","","","","","","0.8","0.2","","","","","","","","","","","","74","J","0","img/none_selected_demo.jpg","true","0","80_20_practice",""
"","bandit","25","209843","0.0-18.0-7.0","81055132","wem/bandit_party_1","A2UGM73EHLK6XI","either","8","290","","","","","","","1","0","0","0.8","","0.5","0.5","","","","","","","0.8","0.2","","","","","","","","","","","","74","J","0","img/none_selected_demo.jpg","true","0","80_20_practice",""
"","bandit","26","211681","0.0-18.0-8.0","81055132","wem/bandit_party_1","A2UGM73EHLK6XI","either","8","299","","","","","","","1","0","0","0.8","","0.5","0.5","","","","","","","0.8","0.2","","","","","","","","","","","","74","J","0","img/none_selected_demo.jpg","true","0","80_20_practice",""
"","bandit","27","213290","0.0-18.0-9.0","81055132","wem/bandit_party_1","A2UGM73EHLK6XI","either","8","70","","","","","","","0","0","1","","0.8","0.5","0.5","","","0.8","0.2","","","","","","","","","","","","","","","","74","J","0","img/none_selected_demo.jpg","true","0","80_20_practice",""
"","bandit","28","215119","0.0-18.0-10.0","81055132","wem/bandit_party_1","A2UGM73EHLK6XI","either","8","288","","","","","","","0","0","1","0.2","","0.5","0.5","","","","","","","0.8","0.2","","","","","","","","","","","","75","K","1","","true","0","80_20_practice",""
"","bandit","29","216890","0.0-18.0-11.0","81055132","wem/bandit_party_1","A2UGM73EHLK6XI","either","8","229","","","","","","","0","0","1","0.2","","0.5","0.5","","","","","","","0.8","0.2","","","","","","","","","","","","75","K","1","","true","0","80_20_practice",""
"","bandit","30","218882","0.0-18.0-12.0","81055132","wem/bandit_party_1","A2UGM73EHLK6XI","either","8","461","","","","","","","0","1","0","","0.8","0.5","0.5","","","0.8","0.2","","","","","","","","","","","","","","","","74","J","0","img/none_selected_demo.jpg","true","0","80_20_practice",""
"","bandit","31","221471","0.0-18.0-13.0","81055132","wem/bandit_party_1","A2UGM73EHLK6XI","either","8","1049","","","","","","","0","1","0","","0.8","0.5","0.5","","","0.8","0.2","","","","","","","","","","","","","","","","74","J","0","img/none_selected_demo.jpg","true","0","80_20_practice",""
"","bandit","32","223439","0.0-18.0-14.0","81055132","wem/bandit_party_1","A2UGM73EHLK6XI","either","8","425","","","","","","","0","0","1","","0.2","0.5","0.5","","","0.8","0.2","","","","","","","","","","","","","","","","75","K","1","","true","0","80_20_practice",""
"","bandit","33","225133","0.0-18.0-15.0","81055132","wem/bandit_party_1","A2UGM73EHLK6XI","either","8","150","","","","","","","0","0","1","","0.2","0.5","0.5","","","0.8","0.2","","","","","","","","","","","","","","","","75","K","1","","true","0","80_20_practice",""
"","bandit","34","226678","0.0-18.0-16.0","81055132","wem/bandit_party_1","A2UGM73EHLK6XI","either","8","8","","","","","","","0","0","1","0.2","","0.5","0.5","","","","","","","0.8","0.2","","","","","","","","","","","","75","K","1","","true","0","80_20_practice",""
"","bandit","35","228211","0.0-18.0-17.0","81055132","wem/bandit_party_1","A2UGM73EHLK6XI","either","8","0","","","","","","","1","0","0","0.2","","0.5","0.5","","","","","","","0.8","0.2","","","","","","","","","","","","75","K","1","","true","0","80_20_practice",""
"","bandit","36","229933","0.0-18.0-18.0","81055132","wem/bandit_party_1","A2UGM73EHLK6XI","either","8","169","","","","","","","0","1","0","","0.2","0.5","0.5","","","0.8","0.2","","","","","","","","","","","","","","","","75","K","1","","true","0","80_20_practice",""
"","bandit","37","231654","0.0-18.0-19.0","81055132","wem/bandit_party_1","A2UGM73EHLK6XI","either","8","200","","","","","","","0","1","0","","0.2","0.5","0.5","","","0.8","0.2","","","","","","","","","","","","","","","","75","K","1","","true","0","80_20_practice",""
"","text-replacement","38","234577","0.0-19.0","81055132","wem/bandit_party_1","A2UGM73EHLK6XI","either","8","2907","","","32","","","","","","","","","","","","","","","","","","","","","","","","","","","","","","","","","","","","",""
"","bandit","39","237694","0.0-20.0-0.0","81055132","wem/bandit_party_1","A2UGM73EHLK6XI","either","8","1576","","","","","","","1","0","0","1","0","","","","","0","1","","","1","0","","","","","","","","","","","","74","J","0","img/none_selected_demo.jpg","true","0","",""
"","text-replacement","40","242994","0.0-21.0","81055132","wem/bandit_party_1","A2UGM73EHLK6XI","either","8","5283","","","32","","","","","","","","","","","","","","","","","","","","","","","","","","","","","","","","","","","","",""
"","text-replacement","41","250197","0.0-22.0","81055132","wem/bandit_party_1","A2UGM73EHLK6XI","either","8","7183","","","32","","","","","","","","","","","","","","","","","","","","","","","","","","","","","","","","","","","","",""
"","text-replacement","42","253546","0.0-23.0","81055132","wem/bandit_party_1","A2UGM73EHLK6XI","either","8","3333","","","32","","","","","","","","","","","","","","","","","","","","","","","","","","","","","","","","","","","","",""
"","text-replacement","43","257393","0.0-24.0","81055132","wem/bandit_party_1","A2UGM73EHLK6XI","either","8","3839","","","32","","","","","","","","","","","","","","","","","","","","","","","","","","","","","","","","","","","","",""
"","text-replacement","44","267586","0.0-25.0","81055132","wem/bandit_party_1","A2UGM73EHLK6XI","either","8","10185","","","32","","","","","","","","","","","","","","","","","","","","","","","","","","","","","","","","","","","","",""
"","text-replacement","45","271160","0.0-26.0","81055132","wem/bandit_party_1","A2UGM73EHLK6XI","either","8","3557","","","32","","","","","","","","","","","","","","","","","","","","","","","","","","","","","","","","","","","","",""
"","text-replacement","46","274492","0.0-27.0","81055132","wem/bandit_party_1","A2UGM73EHLK6XI","either","8","3319","","","32","","","","","","","","","","","","","","","","","","","","","","","","","","","","","","","","","","","","",""
"","text-replacement","47","277862","0.0-28.0","81055132","wem/bandit_party_1","A2UGM73EHLK6XI","either","8","3354","","","32","","","","","","","","","","","","","","","","","","","","","","","","","","","","","","","","","","","","",""
"","text-replacement","48","281606","0.0-29.0","81055132","wem/bandit_party_1","A2UGM73EHLK6XI","either","8","3732","","","32","","","","","","","","","","","","","","","","","","","","","","","","","","","","","","","","","","","","",""
"","text-replacement","49","284107","0.0-30.0","81055132","wem/bandit_party_1","A2UGM73EHLK6XI","either","8","2485","","","32","","","","","","","","","","","","","","","","","","","","","","","","","","","","","","","","","","","","",""
"","text-replacement","50","285930","0.0-31.0","81055132","wem/bandit_party_1","A2UGM73EHLK6XI","either","8","1803","","","32","","","","","","","","","","","","","","","","","","","","","","","","","","","","","","","","","","","","",""
"","bandit","51","288174","0.0-32.0-0.0","81055132","wem/bandit_party_1","A2UGM73EHLK6XI","either","8","697","","","","","","","1","0","0","0.8","","0.5","0.5","0.5","0.5","","","","","0.8","0.2","0.6","0.2","","","","","","","","","","72","H","0","img/none_selected.jpg","true","0","full_practice",""
"","bandit","52","289912","0.0-32.0-1.0","81055132","wem/bandit_party_1","A2UGM73EHLK6XI","either","8","194","","","","","","","0","0","1","0.2","","0.5","0.5","0.5","0.5","","","","","0.8","0.2","0.6","0.2","","","","","","","","","","74","J","1","","true","0","full_practice",""
"","bandit","53","293440","0.0-32.0-2.0","81055132","wem/bandit_party_1","A2UGM73EHLK6XI","either","8","1988","","","","","","","1","0","0","0.6","","0.5","0.5","0.5","0.5","","","","","0.8","0.2","0.6","0.2","","","","","","","","","","75","K","2","","true","0","full_practice",""
"","bandit","54","295368","0.0-32.0-3.0","81055132","wem/bandit_party_1","A2UGM73EHLK6XI","either","8","384","","","","","","","0","0","1","0.2","","0.5","0.5","0.5","0.5","","","","","0.8","0.2","0.6","0.2","","","","","","","","","","76","L","3","","true","0","full_practice",""
"","bandit","55","297718","0.0-32.0-4.0","81055132","wem/bandit_party_1","A2UGM73EHLK6XI","either","8","795","","","","","","","0","1","0","","0.6","0.5","0.5","0.5","0.5","0.8","0.2","0.6","0.2","","","","","","","","","","","","","","75","K","2","","true","0","full_practice",""
"","bandit","56","299565","0.0-32.0-5.0","81055132","wem/bandit_party_1","A2UGM73EHLK6XI","either","8","303","","","","","","","1","0","0","0.6","","0.5","0.5","0.5","0.5","","","","","0.8","0.2","0.6","0.2","","","","","","","","","","75","K","2","","true","0","full_practice",""
"","bandit","57","301183","0.0-32.0-6.0","81055132","wem/bandit_party_1","A2UGM73EHLK6XI","either","8","77","","","","","","","0","0","1","","0.6","0.5","0.5","0.5","0.5","0.8","0.2","0.6","0.2","","","","","","","","","","","","","","75","K","2","","true","0","full_practice",""
"","bandit","58","303010","0.0-32.0-7.0","81055132","wem/bandit_party_1","A2UGM73EHLK6XI","either","8","273","","","","","","","0","0","1","","0.6","0.5","0.5","0.5","0.5","0.8","0.2","0.6","0.2","","","","","","","","","","","","","","75","K","2","","true","0","full_practice",""
"","bandit","59","304751","0.0-32.0-8.0","81055132","wem/bandit_party_1","A2UGM73EHLK6XI","either","8","195","","","","","","","0","0","1","","0.2","0.5","0.5","0.5","0.5","0.8","0.2","0.6","0.2","","","","","","","","","","","","","","74","J","1","","true","0","full_practice",""
"","bandit","60","307012","0.0-32.0-9.0","81055132","wem/bandit_party_1","A2UGM73EHLK6XI","either","8","719","","","","","","","0","0","1","0.8","","0.5","0.5","0.5","0.5","","","","","0.8","0.2","0.6","0.2","","","","","","","","","","72","H","0","img/none_selected.jpg","true","0","full_practice",""
"","bandit","61","308840","0.0-32.0-10.0","81055132","wem/bandit_party_1","A2UGM73EHLK6XI","either","8","302","","","","","","","0","1","0","","0.8","0.5","0.5","0.5","0.5","0.8","0.2","0.6","0.2","","","","","","","","","","","","","","72","H","0","img/none_selected.jpg","true","0","full_practice",""
"","bandit","62","310569","0.0-32.0-11.0","81055132","wem/bandit_party_1","A2UGM73EHLK6XI","either","8","178","","","","","","","0","1","0","","0.8","0.5","0.5","0.5","0.5","0.8","0.2","0.6","0.2","","","","","","","","","","","","","","72","H","0","img/none_selected.jpg","true","0","full_practice",""
"","bandit","63","312340","0.0-32.0-12.0","81055132","wem/bandit_party_1","A2UGM73EHLK6XI","either","8","221","","","","","","","0","1","0","","0.8","0.5","0.5","0.5","0.5","0.8","0.2","0.6","0.2","","","","","","","","","","","","","","72","H","0","img/none_selected.jpg","true","0","full_practice",""
"","bandit","64","314006","0.0-32.0-13.0","81055132","wem/bandit_party_1","A2UGM73EHLK6XI","either","8","118","","","","","","","1","0","0","0.8","","0.5","0.5","0.5","0.5","","","","","0.8","0.2","0.6","0.2","","","","","","","","","","72","H","0","img/none_selected.jpg","true","0","full_practice",""
"","bandit","65","315588","0.0-32.0-14.0","81055132","wem/bandit_party_1","A2UGM73EHLK6XI","either","8","40","","","","","","","0","0","1","","0.8","0.5","0.5","0.5","0.5","0.8","0.2","0.6","0.2","","","","","","","","","","","","","","72","H","0","img/none_selected.jpg","true","0","full_practice",""
"","bandit","66","317434","0.0-32.0-15.0","81055132","wem/bandit_party_1","A2UGM73EHLK6XI","either","8","305","","","","","","","1","0","0","0.8","","0.5","0.5","0.5","0.5","","","","","0.8","0.2","0.6","0.2","","","","","","","","","","72","H","0","img/none_selected.jpg","true","0","full_practice",""
"","bandit","67","319238","0.0-32.0-16.0","81055132","wem/bandit_party_1","A2UGM73EHLK6XI","either","8","273","","","","","","","1","0","0","0.8","","0.5","0.5","0.5","0.5","","","","","0.8","0.2","0.6","0.2","","","","","","","","","","72","H","0","img/none_selected.jpg","true","0","full_practice",""
"","bandit","68","320950","0.0-32.0-17.0","81055132","wem/bandit_party_1","A2UGM73EHLK6XI","either","8","170","","","","","","","0","1","0","","0.8","0.5","0.5","0.5","0.5","0.8","0.2","0.6","0.2","","","","","","","","","","","","","","72","H","0","img/none_selected.jpg","true","0","full_practice",""
"","bandit","69","322670","0.0-32.0-18.0","81055132","wem/bandit_party_1","A2UGM73EHLK6XI","either","8","180","","","","","","","1","0","0","0.8","","0.5","0.5","0.5","0.5","","","","","0.8","0.2","0.6","0.2","","","","","","","","","","72","H","0","img/none_selected.jpg","true","0","full_practice",""
"","bandit","70","324509","0.0-32.0-19.0","81055132","wem/bandit_party_1","A2UGM73EHLK6XI","either","8","292","","","","","","","0","1","0","","0.8","0.5","0.5","0.5","0.5","0.8","0.2","0.6","0.2","","","","","","","","","","","","","","72","H","0","img/none_selected.jpg","true","0","full_practice",""
"","text","71","327960","0.0-33.0","81055132","wem/bandit_party_1","A2UGM73EHLK6XI","either","8","3384","","","32","","","","","","","","","","","","","","","","","","","","","","","","","","","","","","","","","","","","",""
"","text-replacement","72","340451","0.0-34.0","81055132","wem/bandit_party_1","A2UGM73EHLK6XI","either","8","11468","","","32","","","","","","","","","","","","","","","","","","","","","","","","","","","","","","","","","","","","",""
"","text-replacement","73","344998","0.0-35.0","81055132","wem/bandit_party_1","A2UGM73EHLK6XI","either","8","4527","","","32","","","","","","","","","","","","","","","","","","","","","","","","","","","","","","","","","","","","",""
"","text-replacement","74","345577","0.0-36.0","81055132","wem/bandit_party_1","A2UGM73EHLK6XI","either","8","571","","","32","","","","","","","","","","","","","","","","","","","","","","","","","","","","","","","","","","","","",""
"","text-replacement","75","346538","0.0-37.0","81055132","wem/bandit_party_1","A2UGM73EHLK6XI","either","8","937","","","32","","","","","","","","","","","","","","","","","","","","","","","","","","","","","","","","","","","","",""
"","text-replacement","76","348743","0.0-38.0","81055132","wem/bandit_party_1","A2UGM73EHLK6XI","either","8","2181","","","32","","","","","","","","","","","","","","","","","","","","","","","","","","","","","","","","","","","","",""
"","survey-multi-choice-replacement","77","356865","0.0-39.0-0.0","81055132","wem/bandit_party_1","A2UGM73EHLK6XI","either","8","8070","","","","","","","","","","","","","","","","","","","","","","","","Money will be added to the pool for <span style='color:blue;'>DEMOCRATS</span>","","","","","","","attn_check","","","","","","","","","0"
"","survey-multi-choice-replacement","78","364511","0.0-40.0-0.0","81055132","wem/bandit_party_1","A2UGM73EHLK6XI","either","8","6592","","","","","","","","","","","","","","","","","","","","","","","","Equal amounts of money will be added to the pool for <span style='color:blue;'>DEMOCRATS</span> and subtracted from the pool for <span style='color:red;'>REPUBLICANS</span>","","","","","","","attn_check","","","","","","","","","2"
"","survey-multi-choice-replacement","79","368054","0.0-41.0-0.0","81055132","wem/bandit_party_1","A2UGM73EHLK6XI","either","8","2482","","","","","","","","","","","","","","","","","","","","","","","","No money will be added to either pool","","","","","","","attn_check","","","","","","","","","3"
"","bandit","80","373118","0.0-42.0-0.0","81055132","wem/bandit_party_1","A2UGM73EHLK6XI","either","8","2497","","","","","","","0","0","1","0.2637293772","","0.8","0.2","0.6","0.4","","","","","0.2637293772","0.2928194041","0.1351790469","0.3540548627","","","","","","","","","","72","H","0","img/none_selected.jpg","","1","main_expt",""
"","bandit","81","374868","0.0-43.0-0.0","81055132","wem/bandit_party_1","A2UGM73EHLK6XI","either","8","198","","","","","","","0","0","1","","0.2760013096","0.8","0.2","0.6","0.4","0.2760013096","0.3040419902","0.125602744","0.3812516843","","","","","","","","","","","","","","72","H","0","img/none_selected.jpg","","2","main_expt",""
"","bandit","82","376754","0.0-44.0-0.0","81055132","wem/bandit_party_1","A2UGM73EHLK6XI","either","8","333","","","","","","","0","0","1","0.2875251023","","0.8","0.2","0.6","0.4","","","","","0.3240499928","0.2875251023","0.09574082279","0.3901316494","","","","","","","","","","74","J","1","","","3","main_expt",""
"","bandit","83","378475","0.0-45.0-0.0","81055132","wem/bandit_party_1","A2UGM73EHLK6XI","either","8","167","","","","","","","0","1","0","","0.2965567903","0.8","0.2","0.6","0.4","0.3510822359","0.2965567903","0.0913382225","0.3945399471","","","","","","","","","","","","","","74","J","1","","","4","main_expt",""
"","bandit","84","381050","0.0-46.0-0.0","81055132","wem/bandit_party_1","A2UGM73EHLK6XI","either","8","1025","","","","","","","0","0","1","","0.2681113314","0.8","0.2","0.6","0.4","0.3522827721","0.2681113314","0.106177601","0.3997977613","","","","","","","","","","","","","","74","J","1","","","5","main_expt",""
"","bandit","85","384127","0.0-47.0-0.0","81055132","wem/bandit_party_1","A2UGM73EHLK6XI","either","8","1533","","","","","","","0","0","1","","0.08998955495","0.8","0.2","0.6","0.4","0.382674005","0.2330443498","0.08998955495","0.390783501","","","","","","","","","","","","","","75","K","2","","","6","main_expt",""
"","bandit","86","385733","0.0-48.0-0.0","81055132","wem/bandit_party_1","A2UGM73EHLK6XI","either","8","80","","","","","","","1","0","0","0.1077526668","","0.8","0.2","0.6","0.4","","","","","0.3998463606","0.1630509172","0.1077526668","0.3305693427","","","","","","","","","","75","K","2","","","7","main_expt",""
"","bandit","87","387449","0.0-49.0-0.0","81055132","wem/bandit_party_1","A2UGM73EHLK6XI","either","8","191","","","","","","","0","0","1","","0.1243697388","0.8","0.2","0.6","0.4","0.3832029687","0.2002468685","0.1243697388","0.3056545716","","","","","","","","","","","","","","75","K","2","","","8","main_expt",""
"","bandit","88","389343","0.0-50.0-0.0","81055132","wem/bandit_party_1","A2UGM73EHLK6XI","either","8","347","","","","","","","0","0","1","","0.3278889804","0.8","0.2","0.6","0.4","0.3796681134","0.1835034381","0.1698108096","0.3278889804","","","","","","","","","","","","","","76","L","3","","","9","main_expt",""
"","bandit","89","390961","0.0-51.0-0.0","81055132","wem/bandit_party_1","A2UGM73EHLK6XI","either","8","65","","","","","","","0","0","1","","0.3137855556","0.8","0.2","0.6","0.4","0.3614311416","0.1939723001","0.221757114","0.3137855556","","","","","","","","","","","","","","76","L","3","","","10","main_expt",""
"","bandit","90","393062","0.0-52.0-0.0","81055132","wem/bandit_party_1","A2UGM73EHLK6XI","either","8","571","","","","","","","0","1","0","","0.3253079181","0.8","0.2","0.6","0.4","0.3938737051","0.1949806013","0.1961062924","0.3253079181","","","","","","","","","","","","","","76","L","3","","","11","main_expt",""
"","bandit","91","394767","0.0-53.0-0.0","81055132","wem/bandit_party_1","A2UGM73EHLK6XI","either","8","156","","","","","","","0","0","1","0.3298150516","","0.8","0.2","0.6","0.4","","","","","0.3810544723","0.2587943474","0.1907056259","0.3298150516","","","","","","","","","","76","L","3","","","12","main_expt",""
"","bandit","92","396981","0.0-54.0-0.0","81055132","wem/bandit_party_1","A2UGM73EHLK6XI","either","8","661","","","","","","","1","0","0","0.2162865666","","0.8","0.2","0.6","0.4","","","","","0.3707046684","0.3085985727","0.2162865666","0.3673307406","","","","","","","","","","75","K","2","","","13","main_expt",""
"","bandit","93","398668","0.0-55.0-0.0","81055132","wem/bandit_party_1","A2UGM73EHLK6XI","either","8","145","","","","","","","0","0","1","","0.2399362825","0.8","0.2","0.6","0.4","0.3486531997","0.2464992766","0.2399362825","0.3679224674","","","","","","","","","","","","","","75","K","2","","","14","main_expt",""
"","bandit","94","400770","0.0-56.0-0.0","81055132","wem/bandit_party_1","A2UGM73EHLK6XI","either","8","560","","","","","","","0","0","1","","0.1986859052","0.8","0.2","0.6","0.4","0.3263578384","0.2474611475","0.1986859052","0.3062507314","","","","","","","","","","","","","","75","K","2","","","15","main_expt",""
"","bandit","95","403021","0.0-57.0-0.0","81055132","wem/bandit_party_1","A2UGM73EHLK6XI","either","8","703","","","","","","","0","1","0","","0.2835538477","0.8","0.2","0.6","0.4","0.3514189979","0.2835538477","0.1865641621","0.2892976033","","","","","","","","","","","","","","74","J","1","","","16","main_expt",""
"","bandit","96","405337","0.0-58.0-0.0","81055132","wem/bandit_party_1","A2UGM73EHLK6XI","either","8","764","","","","","","","1","0","0","0.3256112075","","0.8","0.2","0.6","0.4","","","","","0.3532592314","0.3256112075","0.2035525071","0.2861796528","","","","","","","","","","74","J","1","","","17","main_expt",""
"","bandit","97","407248","0.0-59.0-0.0","81055132","wem/bandit_party_1","A2UGM73EHLK6XI","either","8","363","","","","","","","0","1","0","","0.3802227677","0.8","0.2","0.6","0.4","0.3858608091","0.3802227677","0.2039336531","0.2958570682","","","","","","","","","","","","","","74","J","1","","","18","main_expt",""
"","bandit","98","409080","0.0-60.0-0.0","81055132","wem/bandit_party_1","A2UGM73EHLK6XI","either","8","302","","","","","","","0","1","0","","0.360566968","0.8","0.2","0.6","0.4","0.3837638756","0.360566968","0.1598579642","0.3353028819","","","","","","","","","","","","","","74","J","1","","","19","main_expt",""
"","bandit","99","411028","0.0-61.0-0.0","81055132","wem/bandit_party_1","A2UGM73EHLK6XI","either","8","397","","","","","","","0","0","1","","0.3696799013","0.8","0.2","0.6","0.4","0.2872100501","0.3696799013","0.1437622327","0.3139704528","","","","","","","","","","","","","","74","J","1","","","20","main_expt",""
"","bandit","100","412891","0.0-62.0-0.0","81055132","wem/bandit_party_1","A2UGM73EHLK6XI","either","8","308","","","","","","","0","1","0","","0.4006907501","0.8","0.2","0.6","0.4","0.2975414498","0.4006907501","0.07974703335","0.2524707143","","","","","","","","","","","","","","74","J","1","","","21","main_expt",""
"","bandit","101","414725","0.0-63.0-0.0","81055132","wem/bandit_party_1","A2UGM73EHLK6XI","either","8","302","","","","","","","0","1","0","","0.4081217326","0.8","0.2","0.6","0.4","0.2741965999","0.4081217326","0.1361132429","0.248326021","","","","","","","","","","","","","","74","J","1","","","22","main_expt",""
"","bandit","102","416690","0.0-64.0-0.0","81055132","wem/bandit_party_1","A2UGM73EHLK6XI","either","8","410","","","","","","","0","1","0","","0.3740207531","0.8","0.2","0.6","0.4","0.2379064449","0.3740207531","0.1705973249","0.2937153481","","","","","","","","","","","","","","74","J","1","","","23","main_expt",""
"","bandit","103","418675","0.0-65.0-0.0","81055132","wem/bandit_party_1","A2UGM73EHLK6XI","either","8","433","","","","","","","1","0","0","0.3913756451","","0.8","0.2","0.6","0.4","","","","","0.2078598572","0.3913756451","0.1392759225","0.2625315469","","","","","","","","","","74","J","1","","","24","main_expt",""
"","bandit","104","420418","0.0-66.0-0.0","81055132","wem/bandit_party_1","A2UGM73EHLK6XI","either","8","190","","","","","","","0","0","1","","0.4100905738","0.8","0.2","0.6","0.4","0.2764850733","0.4100905738","0.1800538527","0.2405651368","","","","","","","","","","","","","","74","J","1","","","25","main_expt",""
"","bandit","105","422495","0.0-67.0-0.0","81055132","wem/bandit_party_1","A2UGM73EHLK6XI","either","8","534","","","","","","","0","1","0","","0.3600668969","0.8","0.2","0.6","0.4","0.3080191348","0.3600668969","0.2146400533","0.2503350336","","","","","","","","","","","","","","74","J","1","","","26","main_expt",""
"","bandit","106","424388","0.0-68.0-0.0","81055132","wem/bandit_party_1","A2UGM73EHLK6XI","either","8","344","","","","","","","0","1","0","","0.3703096079","0.8","0.2","0.6","0.4","0.3606197488","0.3703096079","0.1948367851","0.354091838","","","","","","","","","","","","","","74","J","1","","","27","main_expt",""
"","bandit","107","426383","0.0-69.0-0.0","81055132","wem/bandit_party_1","A2UGM73EHLK6XI","either","8","467","","","","","","","0","1","0","","0.3527269899","0.8","0.2","0.6","0.4","0.3696097963","0.3527269899","0.2282666016","0.3419366675","","","","","","","","","","","","","","74","J","1","","","28","main_expt",""
"","bandit","108","428311","0.0-70.0-0.0","81055132","wem/bandit_party_1","A2UGM73EHLK6XI","either","8","382","","","","","","","0","1","0","","0.2854860911","0.8","0.2","0.6","0.4","0.3434444954","0.2854860911","0.1842618798","0.361896517","","","","","","","","","","","","","","74","J","1","","","29","main_expt",""
"","bandit","109","430224","0.0-71.0-0.0","81055132","wem/bandit_party_1","A2UGM73EHLK6XI","either","8","364","","","","","","","0","1","0","","0.2971434158","0.8","0.2","0.6","0.4","0.3528183973","0.2971434158","0.1930267653","0.3701160785","","","","","","","","","","","","","","74","J","1","","","30","main_expt",""
"","bandit","110","432331","0.0-72.0-0.0","81055132","wem/bandit_party_1","A2UGM73EHLK6XI","either","8","538","","","","","","","0","1","0","","0.3192935598","0.8","0.2","0.6","0.4","0.3436926249","0.3192935598","0.2279264959","0.3602312343","","","","","","","","","","","","","","74","J","1","","","31","main_expt",""
"","bandit","111","435938","0.0-73.0-0.0","81055132","wem/bandit_party_1","A2UGM73EHLK6XI","either","8","890","","","","","","","0","0","1","","0.2910845839","0.8","0.2","0.6","0.4","0.3392376576","0.2910845839","0.1922668126","0.3550043818","","","","","","","","","","","","","","74","J","1","","","32","main_expt",""
"","bandit","112","446401","0.0-74.0-0.0","81055132","wem/bandit_party_1","A2UGM73EHLK6XI","either","8","8925","","","","","","","0","0","1","0.2956883229","","0.8","0.2","0.6","0.4","","","","","0.2524106513","0.2956883229","0.1503247695","0.3927862597","","","","","","","","","","74","J","1","","","33","main_expt",""
"","bandit","113","449119","0.0-75.0-0.0","81055132","wem/bandit_party_1","A2UGM73EHLK6XI","either","8","1160","","","","","","","0","0","1","0.2378308988","","0.8","0.2","0.6","0.4","","","","","0.2378308988","0.2918182698","0.1875072744","0.4185963197","","","","","","","","","","72","H","0","img/none_selected.jpg","","34","main_expt",""
"","bandit","114","451685","0.0-76.0-0.0","81055132","wem/bandit_party_1","A2UGM73EHLK6XI","either","8","1000","","","","","","","0","0","1","0.3063909307","","0.8","0.2","0.6","0.4","","","","","0.2683654211","0.3063909307","0.2135507624","0.441983755","","","","","","","","","","74","J","1","","","35","main_expt",""
"","bandit","115","453836","0.0-77.0-0.0","81055132","wem/bandit_party_1","A2UGM73EHLK6XI","either","8","596","","","","","","","0","0","1","0.2645223933","","0.8","0.2","0.6","0.4","","","","","0.2645223933","0.2820805085","0.2042402853","0.4352827683","","","","","","","","","","72","H","0","img/none_selected.jpg","","36","main_expt",""
"","bandit","116","456086","0.0-78.0-0.0","81055132","wem/bandit_party_1","A2UGM73EHLK6XI","either","8","695","","","","","","","0","0","1","","0.2024605481","0.8","0.2","0.6","0.4","0.2360561858","0.2610370824","0.2024605481","0.450520142","","","","","","","","","","","","","","75","K","2","","","37","main_expt",""
"","bandit","117","457840","0.0-79.0-0.0","81055132","wem/bandit_party_1","A2UGM73EHLK6XI","either","8","197","","","","","","","0","0","1","","0.4681224698","0.8","0.2","0.6","0.4","0.2001865083","0.1896233007","0.1677713785","0.4681224698","","","","","","","","","","","","","","76","L","3","","","38","main_expt",""
"","bandit","118","459548","0.0-80.0-0.0","81055132","wem/bandit_party_1","A2UGM73EHLK6XI","either","8","155","","","","","","","0","0","1","0.4711022053","","0.8","0.2","0.6","0.4","","","","","0.1687915361","0.168851025","0.221779122","0.4711022053","","","","","","","","","","76","L","3","","","39","main_expt",""
"","bandit","119","461257","0.0-81.0-0.0","81055132","wem/bandit_party_1","A2UGM73EHLK6XI","either","8","156","","","","","","","0","0","1","","0.2722397218","0.8","0.2","0.6","0.4","0.1503151413","0.1615787635","0.2722397218","0.4559447699","","","","","","","","","","","","","","75","K","2","","","40","main_expt",""
"","bandit","120","462842","0.0-82.0-0.0","81055132","wem/bandit_party_1","A2UGM73EHLK6XI","either","8","37","","","","","","","0","0","1","","0.1472326003","0.8","0.2","0.6","0.4","0.08168262283","0.1472326003","0.3298230943","0.4412687596","","","","","","","","","","","","","","74","J","1","","","41","main_expt",""
"","bandit","121","464491","0.0-83.0-0.0","81055132","wem/bandit_party_1","A2UGM73EHLK6XI","either","8","92","","","","","","","0","0","1","0.07668629145","","0.8","0.2","0.6","0.4","","","","","0.07668629145","0.1533480506","0.3104885444","0.4457751761","","","","","","","","","","72","H","0","img/none_selected.jpg","","42","main_expt",""
"","bandit","122","466419","0.0-84.0-0.0","81055132","wem/bandit_party_1","A2UGM73EHLK6XI","either","8","373","","","","","","","0","0","1","","0.07394587158","0.8","0.2","0.6","0.4","0.07394587158","0.1414351437","0.3005355489","0.4298378352","","","","","","","","","","","","","","72","H","0","img/none_selected.jpg","","43","main_expt",""
"","bandit","123","468025","0.0-85.0-0.0","81055132","wem/bandit_party_1","A2UGM73EHLK6XI","either","8","52","","","","","","","0","0","1","0.2456242138","","0.8","0.2","0.6","0.4","","","","","0.1192337685","0.1067646429","0.2456242138","0.4416915379","","","","","","","","","","75","K","2","","","44","main_expt",""
"","bandit","124","469849","0.0-86.0-0.0","81055132","wem/bandit_party_1","A2UGM73EHLK6XI","either","8","272","","","","","","","0","0","1","0.3915522423","","0.8","0.2","0.6","0.4","","","","","0.1285724119","0.1250796286","0.2839901561","0.3915522423","","","","","","","","","","76","L","3","","","45","main_expt",""
"","bandit","125","471599","0.0-87.0-0.0","81055132","wem/bandit_party_1","A2UGM73EHLK6XI","either","8","188","","","","","","","0","0","1","","0.2353621531","0.8","0.2","0.6","0.4","0.1112684106","0.1927264636","0.2353621531","0.4318427431","","","","","","","","","","","","","","75","K","2","","","46","main_expt",""
"","bandit","126","473193","0.0-88.0-0.0","81055132","wem/bandit_party_1","A2UGM73EHLK6XI","either","8","36","","","","","","","0","0","1","","0.1804488412","0.8","0.2","0.6","0.4","0.1207340475","0.1804488412","0.2405257196","0.4395998441","","","","","","","","","","","","","","74","J","1","","","47","main_expt",""
"","bandit","127","474805","0.0-89.0-0.0","81055132","wem/bandit_party_1","A2UGM73EHLK6XI","either","8","50","","","","","","","0","0","1","","0.168268176","0.8","0.2","0.6","0.4","0.1182533935","0.168268176","0.2629408555","0.4630443269","","","","","","","","","","","","","","74","J","1","","","48","main_expt",""
"","bandit","128","476590","0.0-90.0-0.0","81055132","wem/bandit_party_1","A2UGM73EHLK6XI","either","8","228","","","","","","","0","0","1","0.1460801474","","0.8","0.2","0.6","0.4","","","","","0.1460801474","0.1466838001","0.2902453213","0.4794982466","","","","","","","","","","72","H","0","img/none_selected.jpg","","49","main_expt",""
"","bandit","129","478435","0.0-91.0-0.0","81055132","wem/bandit_party_1","A2UGM73EHLK6XI","either","8","289","","","","","","","0","0","1","0.1765155983","","0.8","0.2","0.6","0.4","","","","","0.1765155983","0.1336340117","0.3033715012","0.4562783041","","","","","","","","","","72","H","0","img/none_selected.jpg","","50","main_expt",""
"","bandit","130","480161","0.0-92.0-0.0","81055132","wem/bandit_party_1","A2UGM73EHLK6XI","either","8","160","","","","","","","0","1","0","","0.4515646323","0.8","0.2","0.6","0.4","0.1614266163","0.1067821754","0.3536831403","0.4515646323","","","","","","","","","","","","","","76","L","3","","","51","main_expt",""
"","bandit","131","481907","0.0-93.0-0.0","81055132","wem/bandit_party_1","A2UGM73EHLK6XI","either","8","208","","","","","","","1","0","0","0.4344137529","","0.8","0.2","0.6","0.4","","","","","0.1938643747","0.07294577227","0.3058792917","0.4344137529","","","","","","","","","","76","L","3","","","52","main_expt",""
"","bandit","132","483577","0.0-94.0-0.0","81055132","wem/bandit_party_1","A2UGM73EHLK6XI","either","8","114","","","","","","","0","0","1","","0.4421766306","0.8","0.2","0.6","0.4","0.1721886996","0.07676454597","0.3466820038","0.4421766306","","","","","","","","","","","","","","76","L","3","","","53","main_expt",""
"","bandit","133","485250","0.0-95.0-0.0","81055132","wem/bandit_party_1","A2UGM73EHLK6XI","either","8","118","","","","","","","0","0","1","","0.4591875032","0.8","0.2","0.6","0.4","0.1542880765","0.07707135067","0.3159173384","0.4591875032","","","","","","","","","","","","","","76","L","3","","","54","main_expt",""
"","bandit","134","486809","0.0-96.0-0.0","81055132","wem/bandit_party_1","A2UGM73EHLK6XI","either","8","0","","","","","","","0","0","1","0.3205246683","","0.8","0.2","0.6","0.4","","","","","0.2155598061","0.08227932488","0.3205246683","0.4455250987","","","","","","","","","","75","K","2","","","55","main_expt",""
"","bandit","135","489734","0.0-97.0-0.0","81055132","wem/bandit_party_1","A2UGM73EHLK6XI","either","8","1369","","","","","","","0","0","1","","0.4200701886","0.8","0.2","0.6","0.4","0.199350645","0.09013031375","0.3067659888","0.4200701886","","","","","","","","","","","","","","76","L","3","","","56","main_expt",""
"","bandit","136","491290","0.0-98.0-0.0","81055132","wem/bandit_party_1","A2UGM73EHLK6XI","either","8","4","","","","","","","1","0","0","0.3786279545","","0.8","0.2","0.6","0.4","","","","","0.1991981904","0.106866739","0.3786279545","0.3635567377","","","","","","","","","","75","K","2","","","57","main_expt",""
"","bandit","137","493154","0.0-99.0-0.0","81055132","wem/bandit_party_1","A2UGM73EHLK6XI","either","8","314","","","","","","","0","0","1","0.3796022377","","0.8","0.2","0.6","0.4","","","","","0.1307276253","0.0915584437","0.3796022377","0.3647217687","","","","","","","","","","75","K","2","","","58","main_expt",""
"","bandit","138","494956","0.0-100.0-0.0","81055132","wem/bandit_party_1","A2UGM73EHLK6XI","either","8","257","","","","","","","0","0","1","0.1540949786","","0.8","0.2","0.6","0.4","","","","","0.1540949786","0.1036540812","0.3570845549","0.3975499765","","","","","","","","","","72","H","0","img/none_selected.jpg","","59","main_expt",""
"","bandit","139","496749","0.0-101.0-0.0","81055132","wem/bandit_party_1","A2UGM73EHLK6XI","either","8","259","","","","","","","1","0","0","0.398525789","","0.8","0.2","0.6","0.4","","","","","0.1187181044","0.07948280662","0.398525789","0.376383165","","","","","","","","","","75","K","2","","","60","main_expt",""
"","bandit","140","498381","0.0-102.0-0.0","81055132","wem/bandit_party_1","A2UGM73EHLK6XI","either","8","85","","","","","","","0","0","1","0.380986593","","0.8","0.2","0.6","0.4","","","","","0.1734870435","0.0685056185","0.380986593","0.3384437455","","","","","","","","","","75","K","2","","","61","main_expt",""
"","bandit","141","500009","0.0-103.0-0.0","81055132","wem/bandit_party_1","A2UGM73EHLK6XI","either","8","76","","","","","","","0","0","1","0.04196312691","","0.8","0.2","0.6","0.4","","","","","0.2056999461","0.04196312691","0.3928002855","0.3086389155","","","","","","","","","","74","J","1","","","62","main_expt",""
"","bandit","142","501601","0.0-104.0-0.0","81055132","wem/bandit_party_1","A2UGM73EHLK6XI","either","8","30","","","","","","","0","0","1","","0.3098998428","0.8","0.2","0.6","0.4","0.2421495796","0.06524357318","0.4097838671","0.3098998428","","","","","","","","","","","","","","76","L","3","","","63","main_expt",""
"","bandit","143","503169","0.0-105.0-0.0","81055132","wem/bandit_party_1","A2UGM73EHLK6XI","either","8","8","","","","","","","0","0","1","0.3942475769","","0.8","0.2","0.6","0.4","","","","","0.2678986655","0.04599317762","0.3942475769","0.2859800092","","","","","","","","","","75","K","2","","","64","main_expt",""
"","bandit","144","505084","0.0-106.0-0.0","81055132","wem/bandit_party_1","A2UGM73EHLK6XI","either","8","357","","","","","","","0","0","1","","0.04738713632","0.8","0.2","0.6","0.4","0.2780805564","0.04738713632","0.3756823908","0.2780623804","","","","","","","","","","","","","","74","J","1","","","65","main_expt",""
"","bandit","145","506905","0.0-107.0-0.0","81055132","wem/bandit_party_1","A2UGM73EHLK6XI","either","8","272","","","","","","","1","0","0","0.2923516192","","0.8","0.2","0.6","0.4","","","","","0.2923516192","0.02873144913","0.3780323226","0.2740889186","","","","","","","","","","72","H","0","img/none_selected.jpg","","66","main_expt",""
"","bandit","146","508649","0.0-108.0-0.0","81055132","wem/bandit_party_1","A2UGM73EHLK6XI","either","8","182","","","","","","","0","0","1","","0.3481747094","0.8","0.2","0.6","0.4","0.3481747094","0.0355516853","0.382091886","0.3122756929","","","","","","","","","","","","","","72","H","0","img/none_selected.jpg","","67","main_expt",""
"","bandit","147","510521","0.0-109.0-0.0","81055132","wem/bandit_party_1","A2UGM73EHLK6XI","either","8","312","","","","","","","0","0","1","0.4080562953","","0.8","0.2","0.6","0.4","","","","","0.3540590834","0.04483006882","0.4080562953","0.3004294993","","","","","","","","","","75","K","2","","","68","main_expt",""
"","bandit","148","512073","0.0-110.0-0.0","81055132","wem/bandit_party_1","A2UGM73EHLK6XI","either","8","0","","","","","","","0","0","1","","0.3312842332","0.8","0.2","0.6","0.4","0.3348318208","0.04300650393","0.419826639","0.3312842332","","","","","","","","","","","","","","76","L","3","","","69","main_expt",""
"","bandit","149","513790","0.0-111.0-0.0","81055132","wem/bandit_party_1","A2UGM73EHLK6XI","either","8","156","","","","","","","1","0","0","0.3844983113","","0.8","0.2","0.6","0.4","","","","","0.3844983113","0.03960880855","0.3889643965","0.2362018798","","","","","","","","","","72","H","0","img/none_selected.jpg","","70","main_expt",""
"","bandit","150","515511","0.0-112.0-0.0","81055132","wem/bandit_party_1","A2UGM73EHLK6XI","either","8","149","","","","","","","1","0","0","0.3753843975","","0.8","0.2","0.6","0.4","","","","","0.3753843975","0.02401392238","0.3492343966","0.1838323472","","","","","","","","","","72","H","0","img/none_selected.jpg","","71","main_expt",""
"","bandit","151","517068","0.0-113.0-0.0","81055132","wem/bandit_party_1","A2UGM73EHLK6XI","either","8","4","","","","","","","0","0","1","","0.3861429343","0.8","0.2","0.6","0.4","0.3861429343","0.008756159955","0.3502155883","0.1749810972","","","","","","","","","","","","","","72","H","0","img/none_selected.jpg","","72","main_expt",""
"","bandit","152","518904","0.0-114.0-0.0","81055132","wem/bandit_party_1","A2UGM73EHLK6XI","either","8","287","","","","","","","1","0","0","0.3978436086","","0.8","0.2","0.6","0.4","","","","","0.3978436086","0.006257651783","0.3568691787","0.1664097112","","","","","","","","","","72","H","0","img/none_selected.jpg","","73","main_expt",""
"","bandit","153","520550","0.0-115.0-0.0","81055132","wem/bandit_party_1","A2UGM73EHLK6XI","either","8","88","","","","","","","0","0","1","0.3847979518","","0.8","0.2","0.6","0.4","","","","","0.3847979518","0.004732084297","0.3303653739","0.2001176207","","","","","","","","","","72","H","0","img/none_selected.jpg","","74","main_expt",""
"","bandit","154","522311","0.0-116.0-0.0","81055132","wem/bandit_party_1","A2UGM73EHLK6XI","either","8","211","","","","","","","0","0","1","0.3974319157","","0.8","0.2","0.6","0.4","","","","","0.3974319157","0.006967558871","0.3353283381","0.1848717924","","","","","","","","","","72","H","0","img/none_selected.jpg","","75","main_expt",""
"","bandit","155","523921","0.0-117.0-0.0","81055132","wem/bandit_party_1","A2UGM73EHLK6XI","either","8","60","","","","","","","0","0","1","0.3987985884","","0.8","0.2","0.6","0.4","","","","","0.3987985884","0.004525860487","0.3009524994","0.1510178238","","","","","","","","","","72","H","0","img/none_selected.jpg","","76","main_expt",""
"","bandit","156","525609","0.0-118.0-0.0","81055132","wem/bandit_party_1","A2UGM73EHLK6XI","either","8","98","","","","","","","0","1","0","","0.4127312768","0.8","0.2","0.6","0.4","0.4127312768","0.007245535115","0.3316028908","0.2089633591","","","","","","","","","","","","","","72","H","0","img/none_selected.jpg","","77","main_expt",""
"","bandit","157","527325","0.0-119.0-0.0","81055132","wem/bandit_party_1","A2UGM73EHLK6XI","either","8","140","","","","","","","1","0","0","0.4257675477","","0.8","0.2","0.6","0.4","","","","","0.4257675477","0.00483057751","0.3571024926","0.2285147345","","","","","","","","","","72","H","0","img/none_selected.jpg","","78","main_expt",""
"","bandit","158","529072","0.0-120.0-0.0","81055132","wem/bandit_party_1","A2UGM73EHLK6XI","either","8","224","","","","","","","0","0","1","","0.4331167668","0.8","0.2","0.6","0.4","0.4331167668","0.005956317848","0.3542776451","0.2246975601","","","","","","","","","","","","","","72","H","0","img/none_selected.jpg","","79","main_expt",""
"","bandit","159","531012","0.0-121.0-0.0","81055132","wem/bandit_party_1","A2UGM73EHLK6XI","either","8","352","","","","","","","1","0","0","0.4294395537","","0.8","0.2","0.6","0.4","","","","","0.4294395537","0.0076590047","0.3201174307","0.1878766281","","","","","","","","","","72","H","0","img/none_selected.jpg","","80","main_expt",""
"","bandit","160","533761","0.0-122.0-0.0","81055132","wem/bandit_party_1","A2UGM73EHLK6XI","either","8","1216","","","","","","","0","0","1","0.4234249918","","0.8","0.2","0.6","0.4","","","","","0.4234249918","0.009115568074","0.3503003334","0.2436254364","","","","","","","","","","72","H","0","img/none_selected.jpg","","81","main_expt",""
"","bandit","161","535684","0.0-123.0-0.0","81055132","wem/bandit_party_1","A2UGM73EHLK6XI","either","8","358","","","","","","","0","0","1","0.3956977209","","0.8","0.2","0.6","0.4","","","","","0.3956977209","0.01382977225","0.3509066846","0.2627531714","","","","","","","","","","72","H","0","img/none_selected.jpg","","82","main_expt",""
"","bandit","162","537459","0.0-124.0-0.0","81055132","wem/bandit_party_1","A2UGM73EHLK6XI","either","8","225","","","","","","","1","0","0","0.4248650233","","0.8","0.2","0.6","0.4","","","","","0.4248650233","0.01500629599","0.3951868033","0.2672212524","","","","","","","","","","72","H","0","img/none_selected.jpg","","83","main_expt",""
"","bandit","163","539151","0.0-125.0-0.0","81055132","wem/bandit_party_1","A2UGM73EHLK6XI","either","8","160","","","","","","","0","0","1","0.4196907627","","0.8","0.2","0.6","0.4","","","","","0.4196907627","0.02310127573","0.4131477378","0.2817484998","","","","","","","","","","72","H","0","img/none_selected.jpg","","84","main_expt",""
"","bandit","164","540799","0.0-126.0-0.0","81055132","wem/bandit_party_1","A2UGM73EHLK6XI","either","8","103","","","","","","","0","1","0","","0.435633498","0.8","0.2","0.6","0.4","0.435633498","0.02639065846","0.3889697292","0.3074775227","","","","","","","","","","","","","","72","H","0","img/none_selected.jpg","","85","main_expt",""
"","bandit","165","542593","0.0-127.0-0.0","81055132","wem/bandit_party_1","A2UGM73EHLK6XI","either","8","270","","","","","","","0","0","1","0.4322222521","","0.8","0.2","0.6","0.4","","","","","0.4322222521","0.01746441632","0.3885636443","0.2717847629","","","","","","","","","","72","H","0","img/none_selected.jpg","","86","main_expt",""
"","bandit","166","544209","0.0-128.0-0.0","81055132","wem/bandit_party_1","A2UGM73EHLK6XI","either","8","84","","","","","","","1","0","0","0.4476119451","","0.8","0.2","0.6","0.4","","","","","0.4476119451","0.01256144444","0.4028282504","0.2183858348","","","","","","","","","","72","H","0","img/none_selected.jpg","","87","main_expt",""
"","bandit","167","545849","0.0-129.0-0.0","81055132","wem/bandit_party_1","A2UGM73EHLK6XI","either","8","86","","","","","","","1","0","0","0.4073123198","","0.8","0.2","0.6","0.4","","","","","0.4073123198","0.01178158386","0.4306890759","0.2054961256","","","","","","","","","","72","H","0","img/none_selected.jpg","","88","main_expt",""
"","bandit","168","547481","0.0-130.0-0.0","81055132","wem/bandit_party_1","A2UGM73EHLK6XI","either","8","70","","","","","","","1","0","0","0.3862301724","","0.8","0.2","0.6","0.4","","","","","0.3862301724","0.008722555822","0.4103738654","0.1452714398","","","","","","","","","","72","H","0","img/none_selected.jpg","","89","main_expt",""
"","bandit","169","549247","0.0-131.0-0.0","81055132","wem/bandit_party_1","A2UGM73EHLK6XI","either","8","203","","","","","","","1","0","0","0.3596745144","","0.8","0.2","0.6","0.4","","","","","0.3596745144","0.008232471735","0.3980827974","0.1077779513","","","","","","","","","","72","H","0","img/none_selected.jpg","","90","main_expt",""
"","bandit","170","550959","0.0-132.0-0.0","81055132","wem/bandit_party_1","A2UGM73EHLK6XI","either","8","154","","","","","","","1","0","0","0.3082854458","","0.8","0.2","0.6","0.4","","","","","0.3082854458","0.01249180717","0.4040531024","0.1308407065","","","","","","","","","","72","H","0","img/none_selected.jpg","","91","main_expt",""
"","bandit","171","552688","0.0-133.0-0.0","81055132","wem/bandit_party_1","A2UGM73EHLK6XI","either","8","177","","","","","","","0","0","1","","0.312225492","0.8","0.2","0.6","0.4","0.312225492","0.01470986316","0.3462944796","0.1652322036","","","","","","","","","","","","","","72","H","0","img/none_selected.jpg","","92","main_expt",""
"","bandit","172","554401","0.0-134.0-0.0","81055132","wem/bandit_party_1","A2UGM73EHLK6XI","either","8","145","","","","","","","0","0","1","0.3671658277","","0.8","0.2","0.6","0.4","","","","","0.3671658277","0.02655281846","0.3411451966","0.1344678182","","","","","","","","","","72","H","0","img/none_selected.jpg","","93","main_expt",""
"","bandit","173","556011","0.0-135.0-0.0","81055132","wem/bandit_party_1","A2UGM73EHLK6XI","either","8","32","","","","","","","0","0","1","0.3401731108","","0.8","0.2","0.6","0.4","","","","","0.3401731108","0.02575246025","0.3384154489","0.1301314301","","","","","","","","","","72","H","0","img/none_selected.jpg","","94","main_expt",""
"","bandit","174","557651","0.0-136.0-0.0","81055132","wem/bandit_party_1","A2UGM73EHLK6XI","either","8","100","","","","","","","0","0","1","0.3413923724","","0.8","0.2","0.6","0.4","","","","","0.3413923724","0.02262355665","0.3126988266","0.1746055711","","","","","","","","","","72","H","0","img/none_selected.jpg","","95","main_expt",""
"","bandit","175","559881","0.0-137.0-0.0","81055132","wem/bandit_party_1","A2UGM73EHLK6XI","either","8","670","","","","","","","0","0","1","0.3570420485","","0.8","0.2","0.6","0.4","","","","","0.3570420485","0.02047181149","0.3800019137","0.1994244555","","","","","","","","","","72","H","0","img/none_selected.jpg","","96","main_expt",""
"","bandit","176","561834","0.0-138.0-0.0","81055132","wem/bandit_party_1","A2UGM73EHLK6XI","either","8","387","","","","","","","0","0","1","","0.0207754381","0.8","0.2","0.6","0.4","0.3435474977","0.0207754381","0.3328121005","0.1834602947","","","","","","","","","","","","","","74","J","1","","","97","main_expt",""
"","bandit","177","563409","0.0-139.0-0.0","81055132","wem/bandit_party_1","A2UGM73EHLK6XI","either","8","12","","","","","","","0","0","1","","0.02955834597","0.8","0.2","0.6","0.4","0.3614714926","0.02955834597","0.332228596","0.1719221531","","","","","","","","","","","","","","74","J","1","","","98","main_expt",""
"","bandit","178","565121","0.0-140.0-0.0","81055132","wem/bandit_party_1","A2UGM73EHLK6XI","either","8","164","","","","","","","0","0","1","0.2843854285","","0.8","0.2","0.6","0.4","","","","","0.3176405447","0.0383131093","0.2843854285","0.1183399241","","","","","","","","","","75","K","2","","","99","main_expt",""
"","bandit","179","566837","0.0-141.0-0.0","81055132","wem/bandit_party_1","A2UGM73EHLK6XI","either","8","155","","","","","","","0","0","1","","0.1558635017","0.8","0.2","0.6","0.4","0.3586553183","0.03580757471","0.309751149","0.1558635017","","","","","","","","","","","","","","76","L","3","","","100","main_expt",""
"","bandit","180","568421","0.0-142.0-0.0","81055132","wem/bandit_party_1","A2UGM73EHLK6XI","either","8","16","","","","","","","0","0","1","","0.1389665978","0.8","0.2","0.6","0.4","0.2951503345","0.04899620691","0.2993195944","0.1389665978","","","","","","","","","","","","","","76","L","3","","","101","main_expt",""
"","bandit","181","570239","0.0-143.0-0.0","81055132","wem/bandit_party_1","A2UGM73EHLK6XI","either","8","257","","","","","","","0","0","1","0.3551890872","","0.8","0.2","0.6","0.4","","","","","0.2998391809","0.08055650644","0.3551890872","0.1377203561","","","","","","","","","","75","K","2","","","102","main_expt",""
"","bandit","182","571918","0.0-144.0-0.0","81055132","wem/bandit_party_1","A2UGM73EHLK6XI","either","8","113","","","","","","","0","0","1","","0.3148404956","0.8","0.2","0.6","0.4","0.2791823827","0.1040447627","0.3148404956","0.1285548106","","","","","","","","","","","","","","75","K","2","","","103","main_expt",""
"","bandit","183","573664","0.0-145.0-0.0","81055132","wem/bandit_party_1","A2UGM73EHLK6XI","either","8","180","","","","","","","0","0","1","","0.1143547335","0.8","0.2","0.6","0.4","0.3382769334","0.1143547335","0.3286912191","0.1555523735","","","","","","","","","","","","","","74","J","1","","","104","main_expt",""
"","bandit","184","575990","0.0-146.0-0.0","81055132","wem/bandit_party_1","A2UGM73EHLK6XI","either","8","771","","","","","","","0","0","1","","0.1487676438","0.8","0.2","0.6","0.4","0.3339697125","0.1487676438","0.298340497","0.1775592141","","","","","","","","","","","","","","74","J","1","","","105","main_expt",""
"","bandit","185","578210","0.0-147.0-0.0","81055132","wem/bandit_party_1","A2UGM73EHLK6XI","either","8","666","","","","","","","0","1","0","","0.3124129253","0.8","0.2","0.6","0.4","0.3124129253","0.152088545","0.3504464386","0.2263451353","","","","","","","","","","","","","","72","H","0","img/none_selected.jpg","","106","main_expt",""
"","bandit","186","579820","0.0-148.0-0.0","81055132","wem/bandit_party_1","A2UGM73EHLK6XI","either","8","41","","","","","","","0","0","1","0.3400683723","","0.8","0.2","0.6","0.4","","","","","0.3400683723","0.2406734145","0.3510410077","0.1679769802","","","","","","","","","","72","H","0","img/none_selected.jpg","","107","main_expt",""
"","bandit","187","581780","0.0-149.0-0.0","81055132","wem/bandit_party_1","A2UGM73EHLK6XI","either","8","401","","","","","","","1","0","0","0.3557340834","","0.8","0.2","0.6","0.4","","","","","0.3557340834","0.3048040024","0.3282766846","0.1999870147","","","","","","","","","","72","H","0","img/none_selected.jpg","","108","main_expt",""
"","bandit","188","583371","0.0-150.0-0.0","81055132","wem/bandit_party_1","A2UGM73EHLK6XI","either","8","37","","","","","","","0","0","1","0.3846418901","","0.8","0.2","0.6","0.4","","","","","0.3846418901","0.3418503096","0.3561186451","0.208992856","","","","","","","","","","72","H","0","img/none_selected.jpg","","109","main_expt",""
"","bandit","189","584958","0.0-151.0-0.0","81055132","wem/bandit_party_1","A2UGM73EHLK6XI","either","8","24","","","","","","","0","0","1","0.4057962062","","0.8","0.2","0.6","0.4","","","","","0.4057962062","0.3198501315","0.3576445865","0.1716040471","","","","","","","","","","72","H","0","img/none_selected.jpg","","110","main_expt",""
"","bandit","190","586535","0.0-152.0-0.0","81055132","wem/bandit_party_1","A2UGM73EHLK6XI","either","8","4","","","","","","","0","0","1","0.3692451483","","0.8","0.2","0.6","0.4","","","","","0.3692451483","0.3681534847","0.3377543854","0.08984071331","","","","","","","","","","72","H","0","img/none_selected.jpg","","111","main_expt",""
"","bandit","191","588478","0.0-153.0-0.0","81055132","wem/bandit_party_1","A2UGM73EHLK6XI","either","8","369","","","","","","","0","1","0","","0.3757830796","0.8","0.2","0.6","0.4","0.3577317973","0.3757830796","0.286234052","0.1243463141","","","","","","","","","","","","","","74","J","1","","","112","main_expt",""
"","bandit","192","590077","0.0-154.0-0.0","81055132","wem/bandit_party_1","A2UGM73EHLK6XI","either","8","36","","","","","","","0","1","0","","0.3838999828","0.8","0.2","0.6","0.4","0.3328808086","0.3838999828","0.1932674395","0.1433440675","","","","","","","","","","","","","","74","J","1","","","113","main_expt",""
"","bandit","193","592164","0.0-155.0-0.0","81055132","wem/bandit_party_1","A2UGM73EHLK6XI","either","8","528","","","","","","","0","0","1","","0.4157938717","0.8","0.2","0.6","0.4","0.3416979579","0.4157938717","0.2403040534","0.1510662198","","","","","","","","","","","","","","74","J","1","","","114","main_expt",""
"","bandit","194","594062","0.0-156.0-0.0","81055132","wem/bandit_party_1","A2UGM73EHLK6XI","either","8","334","","","","","","","0","0","1","","0.4055870595","0.8","0.2","0.6","0.4","0.3377137281","0.4055870595","0.254937398","0.09845245139","","","","","","","","","","","","","","74","J","1","","","115","main_expt",""
"","bandit","195","595618","0.0-157.0-0.0","81055132","wem/bandit_party_1","A2UGM73EHLK6XI","either","8","4","","","","","","","0","0","1","0.2605063941","","0.8","0.2","0.6","0.4","","","","","0.3039448029","0.4161015278","0.2605063941","0.107393795","","","","","","","","","","75","K","2","","","116","main_expt",""
"","bandit","196","597769","0.0-158.0-0.0","81055132","wem/bandit_party_1","A2UGM73EHLK6XI","either","8","584","","","","","","","0","0","1","","0.2161328783","0.8","0.2","0.6","0.4","0.2974336912","0.414877819","0.2161328783","0.07879800556","","","","","","","","","","","","","","75","K","2","","","117","main_expt",""
"","bandit","197","599338","0.0-159.0-0.0","81055132","wem/bandit_party_1","A2UGM73EHLK6XI","either","8","4","","","","","","","1","0","0","0.08383735875","","0.8","0.2","0.6","0.4","","","","","0.2651867246","0.3968259953","0.1931197841","0.08383735875","","","","","","","","","","76","L","3","","","118","main_expt",""
"","bandit","198","601138","0.0-160.0-0.0","81055132","wem/bandit_party_1","A2UGM73EHLK6XI","either","8","232","","","","","","","0","0","1","","0.1392474383","0.8","0.2","0.6","0.4","0.3131666206","0.4198241006","0.1638183597","0.1392474383","","","","","","","","","","","","","","76","L","3","","","119","main_expt",""
"","bandit","199","603049","0.0-161.0-0.0","81055132","wem/bandit_party_1","A2UGM73EHLK6XI","either","8","351","","","","","","","0","0","1","0.1649404926","","0.8","0.2","0.6","0.4","","","","","0.358829095","0.4286088018","0.1893282748","0.1649404926","","","","","","","","","","76","L","3","","","120","main_expt",""
"","bandit","200","604951","0.0-162.0-0.0","81055132","wem/bandit_party_1","A2UGM73EHLK6XI","either","8","344","","","","","","","1","0","0","0.1764152442","","0.8","0.2","0.6","0.4","","","","","0.3189860171","0.4253829576","0.2290368179","0.1764152442","","","","","","","","","","76","L","3","","","121","main_expt",""
"","bandit","201","606524","0.0-163.0-0.0","81055132","wem/bandit_party_1","A2UGM73EHLK6XI","either","8","4","","","","","","","0","0","1","0.2092397698","","0.8","0.2","0.6","0.4","","","","","0.3011672979","0.4235175979","0.2445441383","0.2092397698","","","","","","","","","","76","L","3","","","122","main_expt",""
"","bandit","202","608589","0.0-164.0-0.0","81055132","wem/bandit_party_1","A2UGM73EHLK6XI","either","8","500","","","","","","","0","0","1","0.1884058447","","0.8","0.2","0.6","0.4","","","","","0.3037948063","0.4182090072","0.2091075756","0.1884058447","","","","","","","","","","76","L","3","","","123","main_expt",""
"","bandit","203","613429","0.0-165.0-0.0","81055132","wem/bandit_party_1","A2UGM73EHLK6XI","either","8","3285","","","","","","","0","0","1","","0.4356016004","0.8","0.2","0.6","0.4","0.2446200253","0.4356016004","0.2216111921","0.1876417206","","","","","","","","","","","","","","74","J","1","","","124","main_expt",""
"","bandit","204","615698","0.0-166.0-0.0","81055132","wem/bandit_party_1","A2UGM73EHLK6XI","either","8","707","","","","","","","0","0","1","0.2464628806","","0.8","0.2","0.6","0.4","","","","","0.2464628806","0.403953628","0.1622020501","0.1890564589","","","","","","","","","","72","H","0","img/none_selected.jpg","","125","main_expt",""
"","bandit","205","617271","0.0-167.0-0.0","81055132","wem/bandit_party_1","A2UGM73EHLK6XI","either","8","4","","","","","","","0","0","1","","0.4020675328","0.8","0.2","0.6","0.4","0.281169445","0.4020675328","0.173533554","0.1659850756","","","","","","","","","","","","","","74","J","1","","","126","main_expt",""
"","bandit","206","619043","0.0-168.0-0.0","81055132","wem/bandit_party_1","A2UGM73EHLK6XI","either","8","242","","","","","","","0","0","1","0.290080064","","0.8","0.2","0.6","0.4","","","","","0.290080064","0.338443572","0.189829559","0.2006343121","","","","","","","","","","72","H","0","img/none_selected.jpg","","127","main_expt",""
"","bandit","207","620830","0.0-169.0-0.0","81055132","wem/bandit_party_1","A2UGM73EHLK6XI","either","8","228","","","","","","","0","0","1","0.1764696366","","0.8","0.2","0.6","0.4","","","","","0.3280989756","0.323123489","0.1764696366","0.2637444583","","","","","","","","","","75","K","2","","","128","main_expt",""
"","bandit","208","622479","0.0-170.0-0.0","81055132","wem/bandit_party_1","A2UGM73EHLK6XI","either","8","81","","","","","","","0","0","1","","0.172709194","0.8","0.2","0.6","0.4","0.3052704822","0.3615310162","0.172709194","0.2783394686","","","","","","","","","","","","","","75","K","2","","","129","main_expt",""
"","bandit","209","624270","0.0-171.0-0.0","81055132","wem/bandit_party_1","A2UGM73EHLK6XI","either","8","240","","","","","","","0","0","1","","0.2674474002","0.8","0.2","0.6","0.4","0.314718742","0.3667448715","0.1407460215","0.2674474002","","","","","","","","","","","","","","76","L","3","","","130","main_expt",""
"","bandit","210","625948","0.0-172.0-0.0","81055132","wem/bandit_party_1","A2UGM73EHLK6XI","either","8","116","","","","","","","0","1","0","","0.2122920843","0.8","0.2","0.6","0.4","0.2492347367","0.341745941","0.143826562","0.2122920843","","","","","","","","","","","","","","76","L","3","","","131","main_expt",""
"","bandit","211","627627","0.0-173.0-0.0","81055132","wem/bandit_party_1","A2UGM73EHLK6XI","either","8","114","","","","","","","0","1","0","","0.1969346152","0.8","0.2","0.6","0.4","0.2495736985","0.2615325727","0.1862992663","0.1969346152","","","","","","","","","","","","","","76","L","3","","","132","main_expt",""
"","bandit","212","629240","0.0-174.0-0.0","81055132","wem/bandit_party_1","A2UGM73EHLK6XI","either","8","50","","","","","","","0","0","1","","0.1390835973","0.8","0.2","0.6","0.4","0.2487120015","0.27905624","0.185648564","0.1390835973","","","","","","","","","","","","","","76","L","3","","","133","main_expt",""
"","bandit","213","631019","0.0-175.0-0.0","81055132","wem/bandit_party_1","A2UGM73EHLK6XI","either","8","205","","","","","","","0","0","1","0.1437640715","","0.8","0.2","0.6","0.4","","","","","0.3239420422","0.2751163123","0.2002276213","0.1437640715","","","","","","","","","","76","L","3","","","134","main_expt",""
"","bandit","214","632753","0.0-176.0-0.0","81055132","wem/bandit_party_1","A2UGM73EHLK6XI","either","8","157","","","","","","","0","0","1","0.1175999949","","0.8","0.2","0.6","0.4","","","","","0.3903525049","0.2586507773","0.2474552851","0.1175999949","","","","","","","","","","76","L","3","","","135","main_expt",""
"","bandit","215","635549","0.0-177.0-0.0","81055132","wem/bandit_party_1","A2UGM73EHLK6XI","either","8","1231","","","","","","","0","0","1","","0.1108499649","0.8","0.2","0.6","0.4","0.3703049055","0.2385277364","0.2454982057","0.1108499649","","","","","","","","","","","","","","76","L","3","","","136","main_expt",""
"","bandit","216","637510","0.0-178.0-0.0","81055132","wem/bandit_party_1","A2UGM73EHLK6XI","either","8","389","","","","","","","0","0","1","0.2708690816","","0.8","0.2","0.6","0.4","","","","","0.3657944308","0.1935782534","0.2708690816","0.1208727618","","","","","","","","","","75","K","2","","","137","main_expt",""
"","bandit","217","639231","0.0-179.0-0.0","81055132","wem/bandit_party_1","A2UGM73EHLK6XI","either","8","171","","","","","","","0","0","1","","0.2219039101","0.8","0.2","0.6","0.4","0.3452946514","0.14087624","0.2219039101","0.1098805161","","","","","","","","","","","","","","75","K","2","","","138","main_expt",""
"","bandit","218","640955","0.0-180.0-0.0","81055132","wem/bandit_party_1","A2UGM73EHLK6XI","either","8","166","","","","","","","1","0","0","0.1340930794","","0.8","0.2","0.6","0.4","","","","","0.3225052804","0.1340930794","0.2485571535","0.1359731218","","","","","","","","","","74","J","1","","","139","main_expt",""
"","bandit","219","642968","0.0-181.0-0.0","81055132","wem/bandit_party_1","A2UGM73EHLK6XI","either","8","422","","","","","","","0","0","1","","0.1170750994","0.8","0.2","0.6","0.4","0.2997250911","0.1170750994","0.2605640439","0.1419248406","","","","","","","","","","","","","","74","J","1","","","140","main_expt",""
"","bandit","220","644690","0.0-182.0-0.0","81055132","wem/bandit_party_1","A2UGM73EHLK6XI","either","8","160","","","","","","","0","0","1","","0.1316830279","0.8","0.2","0.6","0.4","0.311933389","0.1316830279","0.2260680923","0.1269577117","","","","","","","","","","","","","","74","J","1","","","141","main_expt",""
"","bandit","221","646600","0.0-183.0-0.0","81055132","wem/bandit_party_1","A2UGM73EHLK6XI","either","8","324","","","","","","","0","0","1","","0.09490366034","0.8","0.2","0.6","0.4","0.3442568425","0.09490366034","0.2354846983","0.1073819056","","","","","","","","","","","","","","74","J","1","","","142","main_expt",""
"","bandit","222","648290","0.0-184.0-0.0","81055132","wem/bandit_party_1","A2UGM73EHLK6XI","either","8","132","","","","","","","0","0","1","0.3117203045","","0.8","0.2","0.6","0.4","","","","","0.3117203045","0.1246024154","0.2089358464","0.1152767294","","","","","","","","","","72","H","0","img/none_selected.jpg","","143","main_expt",""
"","bandit","223","650413","0.0-185.0-0.0","81055132","wem/bandit_party_1","A2UGM73EHLK6XI","either","8","550","","","","","","","1","0","0","0.3080771123","","0.8","0.2","0.6","0.4","","","","","0.3080771123","0.1179874238","0.1844607625","0.1317444946","","","","","","","","","","72","H","0","img/none_selected.jpg","","144","main_expt",""
"","bandit","224","652286","0.0-186.0-0.0","81055132","wem/bandit_party_1","A2UGM73EHLK6XI","either","8","314","","","","","","","0","1","0","","0.3146876691","0.8","0.2","0.6","0.4","0.3146876691","0.1211842963","0.1940384654","0.1058600218","","","","","","","","","","","","","","72","H","0","img/none_selected.jpg","","145","main_expt",""
"","bandit","225","654390","0.0-187.0-0.0","81055132","wem/bandit_party_1","A2UGM73EHLK6XI","either","8","531","","","","","","","0","1","0","","0.3526806189","0.8","0.2","0.6","0.4","0.3526806189","0.06212451067","0.2532022814","0.1862633901","","","","","","","","","","","","","","72","H","0","img/none_selected.jpg","","146","main_expt",""
"","bandit","226","656212","0.0-188.0-0.0","81055132","wem/bandit_party_1","A2UGM73EHLK6XI","either","8","251","","","","","","","0","0","1","0.3859334927","","0.8","0.2","0.6","0.4","","","","","0.3859334927","0.05826033827","0.272856749","0.1944793183","","","","","","","","","","72","H","0","img/none_selected.jpg","","147","main_expt",""
"","bandit","227","658084","0.0-189.0-0.0","81055132","wem/bandit_party_1","A2UGM73EHLK6XI","either","8","301","","","","","","","0","0","1","","0.4089873985","0.8","0.2","0.6","0.4","0.4089873985","0.04847575149","0.2441255329","0.1572605535","","","","","","","","","","","","","","72","H","0","img/none_selected.jpg","","148","main_expt",""
"","bandit","228","659818","0.0-190.0-0.0","81055132","wem/bandit_party_1","A2UGM73EHLK6XI","either","8","172","","","","","","","0","0","1","0.3317076441","","0.8","0.2","0.6","0.4","","","","","0.3317076441","0.07397138717","0.2304797635","0.1632070519","","","","","","","","","","72","H","0","img/none_selected.jpg","","149","main_expt",""
"","bandit","229","661660","0.0-191.0-0.0","81055132","wem/bandit_party_1","A2UGM73EHLK6XI","either","8","266","","","","","","","0","0","1","","0.2514439341","0.8","0.2","0.6","0.4","0.2514439341","0.1178437277","0.2645424191","0.2162169298","","","","","","","","","","","","","","72","H","0","img/none_selected.jpg","","150","main_expt",""
"","bandit","230","663280","0.0-192.0-0.0","81055132","wem/bandit_party_1","A2UGM73EHLK6XI","either","8","66","","","","","","","0","0","1","","0.1116740648","0.8","0.2","0.6","0.4","0.2209696772","0.1116740648","0.2919476008","0.2806681102","","","","","","","","","","","","","","74","J","1","","","151","main_expt",""
"","bandit","231","664888","0.0-193.0-0.0","81055132","wem/bandit_party_1","A2UGM73EHLK6XI","either","8","39","","","","","","","0","0","1","0.25223767","","0.8","0.2","0.6","0.4","","","","","0.2004300668","0.09681320826","0.3004198658","0.25223767","","","","","","","","","","76","L","3","","","152","main_expt",""
"","bandit","232","666715","0.0-194.0-0.0","81055132","wem/bandit_party_1","A2UGM73EHLK6XI","either","8","261","","","","","","","1","0","0","0.2910243242","","0.8","0.2","0.6","0.4","","","","","0.1803159607","0.1162344283","0.2910243242","0.2259503681","","","","","","","","","","75","K","2","","","153","main_expt",""
"","bandit","233","668573","0.0-195.0-0.0","81055132","wem/bandit_party_1","A2UGM73EHLK6XI","either","8","279","","","","","","","0","0","1","","0.2858680692","0.8","0.2","0.6","0.4","0.1793353988","0.1441765144","0.2858680692","0.2520515582","","","","","","","","","","","","","","75","K","2","","","154","main_expt",""
"","bandit","234","670665","0.0-196.0-0.0","81055132","wem/bandit_party_1","A2UGM73EHLK6XI","either","8","526","","","","","","","1","0","0","0.276906037","","0.8","0.2","0.6","0.4","","","","","0.175125938","0.1506434262","0.276906037","0.246895917","","","","","","","","","","75","K","2","","","155","main_expt",""
"","bandit","235","672440","0.0-197.0-0.0","81055132","wem/bandit_party_1","A2UGM73EHLK6XI","either","8","209","","","","","","","1","0","0","0.3087514371","","0.8","0.2","0.6","0.4","","","","","0.19004546","0.1691825384","0.3087514371","0.2067462234","","","","","","","","","","75","K","2","","","156","main_expt",""
"","bandit","236","674043","0.0-198.0-0.0","81055132","wem/bandit_party_1","A2UGM73EHLK6XI","either","8","34","","","","","","","0","1","0","","0.3400763937","0.8","0.2","0.6","0.4","0.1538528063","0.1465267651","0.3400763937","0.1736677602","","","","","","","","","","","","","","75","K","2","","","157","main_expt",""
"","bandit","237","675680","0.0-199.0-0.0","81055132","wem/bandit_party_1","A2UGM73EHLK6XI","either","8","77","","","","","","","0","0","1","0.3388441277","","0.8","0.2","0.6","0.4","","","","","0.1624419901","0.1517260174","0.3388441277","0.2437422656","","","","","","","","","","75","K","2","","","158","main_expt",""
"","bandit","238","677258","0.0-200.0-0.0","81055132","wem/bandit_party_1","A2UGM73EHLK6XI","either","8","34","","","","","","","0","1","0","","0.3496437485","0.8","0.2","0.6","0.4","0.1749682205","0.143579764","0.3496437485","0.2627628197","","","","","","","","","","","","","","75","K","2","","","159","main_expt",""
"","bandit","239","678993","0.0-201.0-0.0","81055132","wem/bandit_party_1","A2UGM73EHLK6XI","either","8","195","","","","","","","0","0","1","0.3347491532","","0.8","0.2","0.6","0.4","","","","","0.2227833177","0.1701049762","0.3347491532","0.2532756584","","","","","","","","","","75","K","2","","","160","main_expt",""
"","bandit","240","680670","0.0-202.0-0.0","81055132","wem/bandit_party_1","A2UGM73EHLK6XI","either","8","107","","","","","","","0","0","1","","0.2846030245","0.8","0.2","0.6","0.4","0.1616195486","0.1596038406","0.3036625801","0.2846030245","","","","","","","","","","","","","","76","L","3","","","161","main_expt",""
"","bandit","241","682414","0.0-203.0-0.0","81055132","wem/bandit_party_1","A2UGM73EHLK6XI","either","8","181","","","","","","","0","0","1","0.2480450928","","0.8","0.2","0.6","0.4","","","","","0.1440802068","0.1186271452","0.2735804545","0.2480450928","","","","","","","","","","76","L","3","","","162","main_expt",""
"","bandit","242","684418","0.0-204.0-0.0","81055132","wem/bandit_party_1","A2UGM73EHLK6XI","either","8","469","","","","","","","0","0","1","","0.1460830151","0.8","0.2","0.6","0.4","0.1349250059","0.1460830151","0.2219233964","0.3217860246","","","","","","","","","","","","","","74","J","1","","","163","main_expt",""
"","bandit","243","686079","0.0-205.0-0.0","81055132","wem/bandit_party_1","A2UGM73EHLK6XI","either","8","95","","","","","","","0","0","1","0.1482528248","","0.8","0.2","0.6","0.4","","","","","0.1482528248","0.1924179555","0.2489701673","0.3528623486","","","","","","","","","","72","H","0","img/none_selected.jpg","","164","main_expt",""
"","bandit","244","687907","0.0-206.0-0.0","81055132","wem/bandit_party_1","A2UGM73EHLK6XI","either","8","253","","","","","","","0","1","0","","0.1909643941","0.8","0.2","0.6","0.4","0.1444116863","0.1909643941","0.2424219606","0.3113737792","","","","","","","","","","","","","","74","J","1","","","165","main_expt",""
"","bandit","245","689708","0.0-207.0-0.0","81055132","wem/bandit_party_1","A2UGM73EHLK6XI","either","8","248","","","","","","","0","0","1","","0.1917506842","0.8","0.2","0.6","0.4","0.1621449425","0.1917506842","0.1899742571","0.2820045276","","","","","","","","","","","","","","74","J","1","","","166","main_expt",""
"","bandit","246","692287","0.0-208.0-0.0","81055132","wem/bandit_party_1","A2UGM73EHLK6XI","either","8","998","","","","","","","0","0","1","","0.2238056512","0.8","0.2","0.6","0.4","0.1695256229","0.2238056512","0.2298880826","0.2539690707","","","","","","","","","","","","","","74","J","1","","","167","main_expt",""
"","bandit","247","693939","0.0-209.0-0.0","81055132","wem/bandit_party_1","A2UGM73EHLK6XI","either","8","83","","","","","","","0","0","1","","0.2132240521","0.8","0.2","0.6","0.4","0.1712445676","0.2132240521","0.241220494","0.2177565821","","","","","","","","","","","","","","74","J","1","","","168","main_expt",""
"","bandit","248","695950","0.0-210.0-0.0","81055132","wem/bandit_party_1","A2UGM73EHLK6XI","either","8","448","","","","","","","0","0","1","0.1363713625","","0.8","0.2","0.6","0.4","","","","","0.191079104","0.1363713625","0.2113351254","0.183214586","","","","","","","","","","74","J","1","","","169","main_expt",""
"","bandit","249","697705","0.0-211.0-0.0","81055132","wem/bandit_party_1","A2UGM73EHLK6XI","either","8","175","","","","","","","0","0","1","0.2224744884","","0.8","0.2","0.6","0.4","","","","","0.2227666825","0.2007690262","0.2224744884","0.1757282231","","","","","","","","","","75","K","2","","","170","main_expt",""
"","bandit","250","699363","0.0-212.0-0.0","81055132","wem/bandit_party_1","A2UGM73EHLK6XI","either","8","87","","","","","","","0","1","0","","0.1679331046","0.8","0.2","0.6","0.4","0.2719914804","0.1238998316","0.262177911","0.1679331046","","","","","","","","","","","","","","76","L","3","","","171","main_expt",""
"","bandit","251","701172","0.0-213.0-0.0","81055132","wem/bandit_party_1","A2UGM73EHLK6XI","either","8","239","","","","","","","0","0","1","","0.14560319","0.8","0.2","0.6","0.4","0.2330128459","0.09746419185","0.2822992514","0.14560319","","","","","","","","","","","","","","76","L","3","","","172","main_expt",""
"","bandit","252","702999","0.0-214.0-0.0","81055132","wem/bandit_party_1","A2UGM73EHLK6XI","either","8","256","","","","","","","0","0","1","0.1341549344","","0.8","0.2","0.6","0.4","","","","","0.2840251313","0.1018164217","0.2545762091","0.1341549344","","","","","","","","","","76","L","3","","","173","main_expt",""
"","bandit","253","705091","0.0-215.0-0.0","81055132","wem/bandit_party_1","A2UGM73EHLK6XI","either","8","533","","","","","","","0","0","1","","0.1401689619","0.8","0.2","0.6","0.4","0.2739042306","0.1401689619","0.2838184637","0.1471305278","","","","","","","","","","","","","","74","J","1","","","174","main_expt",""
"","bandit","254","707410","0.0-216.0-0.0","81055132","wem/bandit_party_1","A2UGM73EHLK6XI","either","8","768","","","","","","","0","1","0","","0.3002790513","0.8","0.2","0.6","0.4","0.3444735506","0.1697524679","0.3002790513","0.173963405","","","","","","","","","","","","","","75","K","2","","","175","main_expt",""
"","bandit","255","709079","0.0-217.0-0.0","81055132","wem/bandit_party_1","A2UGM73EHLK6XI","either","8","115","","","","","","","0","0","1","0.3771690292","","0.8","0.2","0.6","0.4","","","","","0.3223017316","0.1896898672","0.3771690292","0.1821857965","","","","","","","","","","75","K","2","","","176","main_expt",""
"","bandit","256","710682","0.0-218.0-0.0","81055132","wem/bandit_party_1","A2UGM73EHLK6XI","either","8","24","","","","","","","1","0","0","0.4047809956","","0.8","0.2","0.6","0.4","","","","","0.2964924158","0.2441254625","0.4047809956","0.1444884472","","","","","","","","","","75","K","2","","","177","main_expt",""
"","bandit","257","712451","0.0-219.0-0.0","81055132","wem/bandit_party_1","A2UGM73EHLK6XI","either","8","205","","","","","","","0","0","1","0.4344960837","","0.8","0.2","0.6","0.4","","","","","0.2780576925","0.2427722412","0.4344960837","0.1207783293","","","","","","","","","","75","K","2","","","178","main_expt",""
"","bandit","258","714441","0.0-220.0-0.0","81055132","wem/bandit_party_1","A2UGM73EHLK6XI","either","8","419","","","","","","","0","0","1","","0.4287912686","0.8","0.2","0.6","0.4","0.2859751729","0.2284650367","0.4287912686","0.111585665","","","","","","","","","","","","","","75","K","2","","","179","main_expt",""
"","bandit","259","716007","0.0-221.0-0.0","81055132","wem/bandit_party_1","A2UGM73EHLK6XI","either","8","4","","","","","","","0","0","1","","0.2694081366","0.8","0.2","0.6","0.4","0.283533164","0.2694081366","0.4294180747","0.06891525065","","","","","","","","","","","","","","74","J","1","","","180","main_expt",""
"","bandit","260","718142","0.0-222.0-0.0","81055132","wem/bandit_party_1","A2UGM73EHLK6XI","either","8","558","","","","","","","1","0","0","0.2430023428","","0.8","0.2","0.6","0.4","","","","","0.2430023428","0.2471628034","0.3887332701","0.07407739619","","","","","","","","","","72","H","0","img/none_selected.jpg","","181","main_expt",""
"","bandit","261","720025","0.0-223.0-0.0","81055132","wem/bandit_party_1","A2UGM73EHLK6XI","either","8","313","","","","","","","0","0","1","0.223254837","","0.8","0.2","0.6","0.4","","","","","0.223254837","0.275372354","0.3910635387","0.07501704201","","","","","","","","","","72","H","0","img/none_selected.jpg","","182","main_expt",""
"","bandit","262","721843","0.0-224.0-0.0","81055132","wem/bandit_party_1","A2UGM73EHLK6XI","either","8","241","","","","","","","0","0","1","0.2274286797","","0.8","0.2","0.6","0.4","","","","","0.2274286797","0.2378950907","0.3957792538","0.09354103142","","","","","","","","","","72","H","0","img/none_selected.jpg","","183","main_expt",""
"","bandit","263","723691","0.0-225.0-0.0","81055132","wem/bandit_party_1","A2UGM73EHLK6XI","either","8","268","","","","","","","0","0","1","0.06673830493","","0.8","0.2","0.6","0.4","","","","","0.2485964068","0.2611999536","0.3777829694","0.06673830493","","","","","","","","","","76","L","3","","","184","main_expt",""
"","bandit","264","725500","0.0-226.0-0.0","81055132","wem/bandit_party_1","A2UGM73EHLK6XI","either","8","242","","","","","","","0","0","1","0.08617836821","","0.8","0.2","0.6","0.4","","","","","0.2080173303","0.2799245071","0.4130939835","0.08617836821","","","","","","","","","","76","L","3","","","185","main_expt",""
"","bandit","265","727827","0.0-227.0-0.0","81055132","wem/bandit_party_1","A2UGM73EHLK6XI","either","8","766","","","","","","","0","1","0","","0.2275386122","0.8","0.2","0.6","0.4","0.2538883687","0.2275386122","0.376930599","0.05054014018","","","","","","","","","","","","","","74","J","1","","","186","main_expt",""
"","bandit","266","729529","0.0-228.0-0.0","81055132","wem/bandit_party_1","A2UGM73EHLK6XI","either","8","116","","","","","","","0","0","1","","0.2558518805","0.8","0.2","0.6","0.4","0.2267652077","0.2558518805","0.3934592684","0.1101456656","","","","","","","","","","","","","","74","J","1","","","187","main_expt",""
"","bandit","267","731205","0.0-229.0-0.0","81055132","wem/bandit_party_1","A2UGM73EHLK6XI","either","8","105","","","","","","","0","0","1","","0.2757393749","0.8","0.2","0.6","0.4","0.2583789709","0.2757393749","0.4086060551","0.1076418148","","","","","","","","","","","","","","74","J","1","","","188","main_expt",""
"","bandit","268","732809","0.0-230.0-0.0","81055132","wem/bandit_party_1","A2UGM73EHLK6XI","either","8","37","","","","","","","0","1","0","","0.3326758055","0.8","0.2","0.6","0.4","0.2329768584","0.3326758055","0.447145564","0.1230456027","","","","","","","","","","","","","","74","J","1","","","189","main_expt",""
"","bandit","269","734548","0.0-231.0-0.0","81055132","wem/bandit_party_1","A2UGM73EHLK6XI","either","8","165","","","","","","","1","0","0","0.332927569","","0.8","0.2","0.6","0.4","","","","","0.2002510669","0.332927569","0.386091063","0.1872873117","","","","","","","","","","74","J","1","","","190","main_expt",""
"","bandit","270","736153","0.0-232.0-0.0","81055132","wem/bandit_party_1","A2UGM73EHLK6XI","either","8","37","","","","","","","0","1","0","","0.3859199101","0.8","0.2","0.6","0.4","0.2182600554","0.3859199101","0.4221145333","0.1413073252","","","","","","","","","","","","","","74","J","1","","","191","main_expt",""
"","bandit","271","737733","0.0-233.0-0.0","81055132","wem/bandit_party_1","A2UGM73EHLK6XI","either","8","4","","","","","","","0","1","0","","0.392668484","0.8","0.2","0.6","0.4","0.2681613901","0.392668484","0.3913199708","0.1868627967","","","","","","","","","","","","","","74","J","1","","","192","main_expt",""
"","bandit","272","740481","0.0-234.0-0.0","81055132","wem/bandit_party_1","A2UGM73EHLK6XI","either","8","1180","","","","","","","0","0","1","","0.3789843676","0.8","0.2","0.6","0.4","0.3035027483","0.3789843676","0.4013624592","0.2312719224","","","","","","","","","","","","","","74","J","1","","","193","main_expt",""
"","bandit","273","742995","0.0-235.0-0.0","81055132","wem/bandit_party_1","A2UGM73EHLK6XI","either","8","935","","","","","","","0","1","0","","0.3689216281","0.8","0.2","0.6","0.4","0.275531754","0.3689216281","0.3668237699","0.2585201677","","","","","","","","","","","","","","74","J","1","","","194","main_expt",""
"","bandit","274","744580","0.0-236.0-0.0","81055132","wem/bandit_party_1","A2UGM73EHLK6XI","either","8","4","","","","","","","0","0","1","","0.4136905162","0.8","0.2","0.6","0.4","0.2716401532","0.4136905162","0.3856266791","0.2786104129","","","","","","","","","","","","","","74","J","1","","","195","main_expt",""
"","bandit","275","746419","0.0-237.0-0.0","81055132","wem/bandit_party_1","A2UGM73EHLK6XI","either","8","274","","","","","","","0","0","1","","0.4258575101","0.8","0.2","0.6","0.4","0.2814611543","0.4258575101","0.3702439493","0.2407834285","","","","","","","","","","","","","","74","J","1","","","196","main_expt",""
"","bandit","276","748095","0.0-238.0-0.0","81055132","wem/bandit_party_1","A2UGM73EHLK6XI","either","8","105","","","","","","","0","0","1","","0.3976178043","0.8","0.2","0.6","0.4","0.2588010394","0.3976178043","0.3665926528","0.2550568011","","","","","","","","","","","","","","74","J","1","","","197","main_expt",""
"","bandit","277","749919","0.0-239.0-0.0","81055132","wem/bandit_party_1","A2UGM73EHLK6XI","either","8","242","","","","","","","0","0","1","","0.3802378075","0.8","0.2","0.6","0.4","0.3094610495","0.3802378075","0.3432124584","0.3094863904","","","","","","","","","","","","","","74","J","1","","","198","main_expt",""
"","bandit","278","751896","0.0-240.0-0.0","81055132","wem/bandit_party_1","A2UGM73EHLK6XI","either","8","424","","","","","","","0","0","1","","0.4096574544","0.8","0.2","0.6","0.4","0.3139278769","0.3926800246","0.4096574544","0.3012985694","","","","","","","","","","","","","","75","K","2","","","199","main_expt",""
"","bandit","279","753780","0.0-241.0-0.0","81055132","wem/bandit_party_1","A2UGM73EHLK6XI","either","8","321","","","","","","","0","0","1","0.3799023259","","0.8","0.2","0.6","0.4","","","","","0.3459706187","0.3814844917","0.3799023259","0.3149132519","","","","","","","","","","75","K","2","","","200","main_expt",""
"","bandit","280","755385","0.0-242.0-0.0","81055132","wem/bandit_party_1","A2UGM73EHLK6XI","either","8","8","","","","","","","0","0","1","","0.3236307962","0.8","0.2","0.6","0.4","0.3038365479","0.3831630738","0.3513783521","0.3236307962","","","","","","","","","","","","","","76","L","3","","","201","main_expt",""
"","bandit","281","757460","0.0-243.0-0.0","81055132","wem/bandit_party_1","A2UGM73EHLK6XI","either","8","498","","","","","","","1","0","0","0.3163717903","","0.8","0.2","0.6","0.4","","","","","0.2964599608","0.3957430938","0.3439351057","0.3163717903","","","","","","","","","","76","L","3","","","202","main_expt",""
"","bandit","282","759469","0.0-244.0-0.0","81055132","wem/bandit_party_1","A2UGM73EHLK6XI","either","8","406","","","","","","","0","1","0","","0.4175506619","0.8","0.2","0.6","0.4","0.280336616","0.4175506619","0.2615327891","0.3165936227","","","","","","","","","","","","","","74","J","1","","","203","main_expt",""
"","bandit","283","761424","0.0-245.0-0.0","81055132","wem/bandit_party_1","A2UGM73EHLK6XI","either","8","389","","","","","","","0","1","0","","0.4356800279","0.8","0.2","0.6","0.4","0.262900641","0.4356800279","0.2211517471","0.3166231072","","","","","","","","","","","","","","74","J","1","","","204","main_expt",""
"","bandit","284","763324","0.0-246.0-0.0","81055132","wem/bandit_party_1","A2UGM73EHLK6XI","either","8","327","","","","","","","0","0","1","0.4342993254","","0.8","0.2","0.6","0.4","","","","","0.3403150927","0.4342993254","0.1955747294","0.2983153058","","","","","","","","","","74","J","1","","","205","main_expt",""
"","bandit","285","765503","0.0-247.0-0.0","81055132","wem/bandit_party_1","A2UGM73EHLK6XI","either","8","641","","","","","","","0","1","0","","0.4515967499","0.8","0.2","0.6","0.4","0.3407188883","0.4515967499","0.3137251184","0.255573156","","","","","","","","","","","","","","74","J","1","","","206","main_expt",""
"","bandit","286","767600","0.0-248.0-0.0","81055132","wem/bandit_party_1","A2UGM73EHLK6XI","either","8","525","","","","","","","0","0","1","0.4559700358","","0.8","0.2","0.6","0.4","","","","","0.2955601217","0.4559700358","0.2982459604","0.2816724171","","","","","","","","","","74","J","1","","","207","main_expt",""
"","bandit","287","771279","0.0-249.0-0.0","81055132","wem/bandit_party_1","A2UGM73EHLK6XI","either","8","2089","","","","","","","0","0","1","","0.4711787588","0.8","0.2","0.6","0.4","0.2832193826","0.4711787588","0.2359404152","0.2462622089","","","","","","","","","","","","","","74","J","1","","","208","main_expt",""
"","bandit","288","773024","0.0-250.0-0.0","81055132","wem/bandit_party_1","A2UGM73EHLK6XI","either","8","159","","","","","","","1","0","0","0.25637755","","0.8","0.2","0.6","0.4","","","","","0.25637755","0.4859779177","0.2396635106","0.2608633631","","","","","","","","","","72","H","0","img/none_selected.jpg","","209","main_expt",""
"","bandit","289","774879","0.0-251.0-0.0","81055132","wem/bandit_party_1","A2UGM73EHLK6XI","either","8","278","","","","","","","1","0","0","0.2500912527","","0.8","0.2","0.6","0.4","","","","","0.2500912527","0.4798195452","0.2320506775","0.2649708152","","","","","","","","","","72","H","0","img/none_selected.jpg","","210","main_expt",""
"","bandit","290","776755","0.0-252.0-0.0","81055132","wem/bandit_party_1","A2UGM73EHLK6XI","either","8","310","","","","","","","0","1","0","","0.2481129288","0.8","0.2","0.6","0.4","0.2481129288","0.4754072522","0.1894847828","0.2658594566","","","","","","","","","","","","","","72","H","0","img/none_selected.jpg","","211","main_expt",""
"","bandit","291","778679","0.0-253.0-0.0","81055132","wem/bandit_party_1","A2UGM73EHLK6XI","either","8","357","","","","","","","0","0","1","0.3192168596","","0.8","0.2","0.6","0.4","","","","","0.3192168596","0.4780703898","0.2330804604","0.2648449814","","","","","","","","","","72","H","0","img/none_selected.jpg","","212","main_expt",""
"","bandit","292","788449","0.0-254.0-0.0","81055132","wem/bandit_party_1","A2UGM73EHLK6XI","either","8","8181","","","","","","","1","0","0","0.2361953268","","0.8","0.2","0.6","0.4","","","","","0.2361953268","0.4883488692","0.2484053244","0.286492297","","","","","","","","","","72","H","0","img/none_selected.jpg","","213","main_expt",""
"","bandit","293","790313","0.0-255.0-0.0","81055132","wem/bandit_party_1","A2UGM73EHLK6XI","either","8","287","","","","","","","0","0","1","0.2308921763","","0.8","0.2","0.6","0.4","","","","","0.2308921763","0.4872562331","0.2182548364","0.2540339129","","","","","","","","","","72","H","0","img/none_selected.jpg","","214","main_expt",""
"","bandit","294","792284","0.0-256.0-0.0","81055132","wem/bandit_party_1","A2UGM73EHLK6XI","either","8","430","","","","","","","0","0","1","","0.4749609167","0.8","0.2","0.6","0.4","0.2161033537","0.4749609167","0.1824073789","0.254651127","","","","","","","","","","","","","","74","J","1","","","215","main_expt",""
"","bandit","295","795103","0.0-257.0-0.0","81055132","wem/bandit_party_1","A2UGM73EHLK6XI","either","8","1237","","","","","","","0","0","1","0.3140517816","","0.8","0.2","0.6","0.4","","","","","0.1896756427","0.4798413464","0.1923730387","0.3140517816","","","","","","","","","","76","L","3","","","216","main_expt",""
"","bandit","296","796865","0.0-258.0-0.0","81055132","wem/bandit_party_1","A2UGM73EHLK6XI","either","8","182","","","","","","","0","0","1","0.3338676317","","0.8","0.2","0.6","0.4","","","","","0.1724286307","0.4865144435","0.2266612446","0.3338676317","","","","","","","","","","76","L","3","","","217","main_expt",""
"","bandit","297","798855","0.0-259.0-0.0","81055132","wem/bandit_party_1","A2UGM73EHLK6XI","either","8","412","","","","","","","0","1","0","","0.3397001125","0.8","0.2","0.6","0.4","0.161168334","0.4789145001","0.1702705737","0.3397001125","","","","","","","","","","","","","","76","L","3","","","218","main_expt",""
"","bandit","298","803145","0.0-260.0-0.0","81055132","wem/bandit_party_1","A2UGM73EHLK6XI","either","8","2711","","","","","","","1","0","0","0.4834748692","","0.8","0.2","0.6","0.4","","","","","0.2021763003","0.4834748692","0.1159766116","0.2982528089","","","","","","","","","","74","J","1","","","219","main_expt",""
"","bandit","299","805203","0.0-261.0-0.0","81055132","wem/bandit_party_1","A2UGM73EHLK6XI","either","8","486","","","","","","","0","1","0","","0.4722371777","0.8","0.2","0.6","0.4","0.2142164272","0.4722371777","0.09529473055","0.2770934022","","","","","","","","","","","","","","74","J","1","","","220","main_expt",""
"","bandit","300","806975","0.0-262.0-0.0","81055132","wem/bandit_party_1","A2UGM73EHLK6XI","either","8","184","","","","","","","0","0","1","","0.4654689219","0.8","0.2","0.6","0.4","0.189068297","0.4654689219","0.09060922323","0.2696770889","","","","","","","","","","","","","","74","J","1","","","221","main_expt",""
"","bandit","301","808701","0.0-263.0-0.0","81055132","wem/bandit_party_1","A2UGM73EHLK6XI","either","8","167","","","","","","","0","1","0","","0.4533789701","0.8","0.2","0.6","0.4","0.2120997892","0.4533789701","0.1250772464","0.3103502417","","","","","","","","","","","","","","74","J","1","","","222","main_expt",""
"","bandit","302","810478","0.0-264.0-0.0","81055132","wem/bandit_party_1","A2UGM73EHLK6XI","either","8","206","","","","","","","0","1","0","","0.4473019993","0.8","0.2","0.6","0.4","0.1937664477","0.4473019993","0.1177235221","0.3477728299","","","","","","","","","","","","","","74","J","1","","","223","main_expt",""
"","bandit","303","814930","0.0-265.0-0.0","81055132","wem/bandit_party_1","A2UGM73EHLK6XI","either","8","2880","","","","","","","0","0","1","","0.4651086175","0.8","0.2","0.6","0.4","0.2195846313","0.4651086175","0.1589673504","0.3230244909","","","","","","","","","","","","","","74","J","1","","","224","main_expt",""
"","bandit","304","819198","0.0-266.0-0.0","81055132","wem/bandit_party_1","A2UGM73EHLK6XI","either","8","2720","","","","","","","0","0","1","","0.1973587738","0.8","0.2","0.6","0.4","0.1973587738","0.4704934375","0.1582937281","0.3641913847","","","","","","","","","","","","","","72","H","0","img/none_selected.jpg","","225","main_expt",""
"","bandit","305","821320","0.0-267.0-0.0","81055132","wem/bandit_party_1","A2UGM73EHLK6XI","either","8","535","","","","","","","0","0","1","0.3211822138","","0.8","0.2","0.6","0.4","","","","","0.2029059012","0.4545632724","0.1585786296","0.3211822138","","","","","","","","","","76","L","3","","","226","main_expt",""
"","bandit","306","825828","0.0-268.0-0.0","81055132","wem/bandit_party_1","A2UGM73EHLK6XI","either","8","2925","","","","","","","0","0","1","0.4313330006","","0.8","0.2","0.6","0.4","","","","","0.1677618241","0.4313330006","0.1614007709","0.3318596792","","","","","","","","","","74","J","1","","","227","main_expt",""
"","bandit","307","827419","0.0-269.0-0.0","81055132","wem/bandit_party_1","A2UGM73EHLK6XI","either","8","4","","","","","","","0","0","1","0.3715738924","","0.8","0.2","0.6","0.4","","","","","0.2079318551","0.4253897179","0.1160982884","0.3715738924","","","","","","","","","","76","L","3","","","228","main_expt",""
"","bandit","308","829625","0.0-270.0-0.0","81055132","wem/bandit_party_1","A2UGM73EHLK6XI","either","8","664","","","","","","","1","0","0","0.1327168588","","0.8","0.2","0.6","0.4","","","","","0.1860779256","0.4416009531","0.1327168588","0.3571583743","","","","","","","","","","75","K","2","","","229","main_expt",""
"","bandit","309","831643","0.0-271.0-0.0","81055132","wem/bandit_party_1","A2UGM73EHLK6XI","either","8","410","","","","","","","0","0","1","0.1751239199","","0.8","0.2","0.6","0.4","","","","","0.1294985144","0.4612445757","0.1751239199","0.3455313741","","","","","","","","","","75","K","2","","","230","main_expt",""
"","bandit","310","833329","0.0-272.0-0.0","81055132","wem/bandit_party_1","A2UGM73EHLK6XI","either","8","127","","","","","","","0","0","1","0.2080149414","","0.8","0.2","0.6","0.4","","","","","0.1424139305","0.4455927364","0.2080149414","0.3114256563","","","","","","","","","","75","K","2","","","231","main_expt",""
"","bandit","311","835419","0.0-273.0-0.0","81055132","wem/bandit_party_1","A2UGM73EHLK6XI","either","8","508","","","","","","","0","0","1","0.1777617008","","0.8","0.2","0.6","0.4","","","","","0.1777617008","0.4449483857","0.2305008548","0.3127001645","","","","","","","","","","72","H","0","img/none_selected.jpg","","232","main_expt",""
"","bandit","312","837350","0.0-274.0-0.0","81055132","wem/bandit_party_1","A2UGM73EHLK6XI","either","8","352","","","","","","","0","0","1","0.1408291819","","0.8","0.2","0.6","0.4","","","","","0.1408291819","0.4570404202","0.2331895239","0.2953609795","","","","","","","","","","72","H","0","img/none_selected.jpg","","233","main_expt",""
"","bandit","313","842935","0.0-275.0-0.0","81055132","wem/bandit_party_1","A2UGM73EHLK6XI","either","8","4042","","","","","","","0","0","1","0.09563300426","","0.8","0.2","0.6","0.4","","","","","0.09563300426","0.4785018613","0.2007149185","0.2743769666","","","","","","","","","","72","H","0","img/none_selected.jpg","","234","main_expt",""
"","bandit","314","845289","0.0-276.0-0.0","81055132","wem/bandit_party_1","A2UGM73EHLK6XI","either","8","779","","","","","","","0","0","1","0.1428876463","","0.8","0.2","0.6","0.4","","","","","0.06508254785","0.4708517218","0.1428876463","0.2842570603","","","","","","","","","","75","K","2","","","235","main_expt",""
"","bandit","315","846910","0.0-277.0-0.0","81055132","wem/bandit_party_1","A2UGM73EHLK6XI","either","8","47","","","","","","","0","0","1","0.3536106974","","0.8","0.2","0.6","0.4","","","","","0.05272484418","0.4721911582","0.1327756685","0.3536106974","","","","","","","","","","76","L","3","","","236","main_expt",""
