"consent","trial_type","trial_index","time_elapsed","internal_node_id","subjID","study","MID","cond","drift","rt","responses","button_pressed","key_press","like","value","connected","gems","bombs","no_reward","GemPrChosen","BombPrChosen","GainOverPainPr_0","GainOverPainPr_1","GainOverPainPr_2","GainOverPainPr_3","LosePr_0","LosePr_1","LosePr_2","LosePr_3","WinPr_0","WinPr_1","WinPr_2","WinPr_3","Q0","Q1","Q2","gender","age","ethnicity","label","expt_phase","target","respCharCode","respKey","respChoiceNum","respChoice","practice","trial_counter","trial_label","Q0_index"
"GDM/GDM_behavioral_consent_30min_online.html","consent","0","9685","0.0-0.0","82163900","wem/bandit_party_1","AE05QWB4IQA44","either","4","","","","","","","","","","","","","","","","","","","","","","","","","","","","","","","","","","","","","","","","",""
"","survey-text","1","17139","0.0-1.0","82163900","wem/bandit_party_1","AE05QWB4IQA44","either","4","6427","{""Q0"":""AE05QWB4IQA44""}","","","","","","","","","","","","","","","","","","","","","","","","","","","","","","","","","","","","","","",""
"","button-response","2","20298","0.0-2.0","82163900","wem/bandit_party_1","AE05QWB4IQA44","either","4","2134","","0","","","","","","","","","","","","","","","","","","","","","","","","","","","","","","","","","","","","","",""
"","text-replacement","3","39269","0.0-3.0","82163900","wem/bandit_party_1","AE05QWB4IQA44","either","4","17967","","","32","","","","","","","","","","","","","","","","","","","","","","","","","","","","","","","","","","","","",""
"","text-replacement","4","50427","0.0-4.0","82163900","wem/bandit_party_1","AE05QWB4IQA44","either","4","11156","","","32","","","","","","","","","","","","","","","","","","","","","","","","","","","","","","","","","","","","",""
"","identification","5","59342","0.0-6.0-0.0","82163900","wem/bandit_party_1","AE05QWB4IQA44","either","4","8884","","","","2","2","2","","","","","","","","","","","","","","","","","","","","","","","","pre","identification_pre","the Democratic Party","","","","","","","",""
"","identification","6","66038","0.0-6.0-1.0","82163900","wem/bandit_party_1","AE05QWB4IQA44","either","4","5671","","","","2","2","1","","","","","","","","","","","","","","","","","","","","","","","","pre","identification_pre","the Republican party","","","","","","","",""
"","text-replacement","7","74248","0.0-7.0","82163900","wem/bandit_party_1","AE05QWB4IQA44","either","4","7206","","","32","","","","","","","","","","","","","","","","","","","","","","","","","","","","","","","","","","","","",""
"","text-replacement","8","81785","0.0-8.0","82163900","wem/bandit_party_1","AE05QWB4IQA44","either","4","7532","","","32","","","","","","","","","","","","","","","","","","","","","","","","","","","","","","","","","","","","",""
"","text-replacement","9","92591","0.0-9.0","82163900","wem/bandit_party_1","AE05QWB4IQA44","either","4","10804","","","32","","","","","","","","","","","","","","","","","","","","","","","","","","","","","","","","","","","","",""
"","text-replacement","10","97441","0.0-10.0","82163900","wem/bandit_party_1","AE05QWB4IQA44","either","4","4848","","","32","","","","","","","","","","","","","","","","","","","","","","","","","","","","","","","","","","","","",""
"","text-replacement","11","102987","0.0-11.0","82163900","wem/bandit_party_1","AE05QWB4IQA44","either","4","5543","","","32","","","","","","","","","","","","","","","","","","","","","","","","","","","","","","","","","","","","",""
"","bandit","12","106546","0.0-12.0-0.0","82163900","wem/bandit_party_1","AE05QWB4IQA44","either","4","2045","","","","","","","0","0","1","0","0","","","","","0","","","","0","","","","","","","","","","","","","74","J","0","img/none_selected_demo.jpg","true","0","",""
"","bandit","13","108614","0.0-13.0-0.0","82163900","wem/bandit_party_1","AE05QWB4IQA44","either","4","561","","","","","","","0","0","1","0","0","","","","","0","","","","0","","","","","","","","","","","","","75","K","0","img/none_selected_demo.jpg","true","0","",""
"","text-replacement","14","116764","0.0-14.0","82163900","wem/bandit_party_1","AE05QWB4IQA44","either","4","8147","","","32","","","","","","","","","","","","","","","","","","","","","","","","","","","","","","","","","","","","",""
"","text-replacement","15","160540","0.0-15.0","82163900","wem/bandit_party_1","AE05QWB4IQA44","either","4","43773","","","32","","","","","","","","","","","","","","","","","","","","","","","","","","","","","","","","","","","","",""
"","text-replacement","16","168930","0.0-16.0","82163900","wem/bandit_party_1","AE05QWB4IQA44","either","4","8386","","","32","","","","","","","","","","","","","","","","","","","","","","","","","","","","","","","","","","","","",""
"","text-replacement","17","174349","0.0-17.0","82163900","wem/bandit_party_1","AE05QWB4IQA44","either","4","5415","","","32","","","","","","","","","","","","","","","","","","","","","","","","","","","","","","","","","","","","",""
"","bandit","18","177332","0.0-18.0-0.0","82163900","wem/bandit_party_1","AE05QWB4IQA44","either","4","1469","","","","","","","0","0","1","","0.8","0.5","0.5","","","0.8","0.2","","","","","","","","","","","","","","","","74","J","0","img/none_selected_demo.jpg","true","0","80_20_practice",""
"","bandit","19","179737","0.0-18.0-1.0","82163900","wem/bandit_party_1","AE05QWB4IQA44","either","4","896","","","","","","","0","0","1","0.2","","0.5","0.5","","","","","","","0.8","0.2","","","","","","","","","","","","75","K","1","","true","0","80_20_practice",""
"","bandit","20","183770","0.0-18.0-2.0","82163900","wem/bandit_party_1","AE05QWB4IQA44","either","4","2523","","","","","","","0","0","1","","0.8","0.5","0.5","","","0.8","0.2","","","","","","","","","","","","","","","","74","J","0","img/none_selected_demo.jpg","true","0","80_20_practice",""
"","bandit","21","187449","0.0-18.0-3.0","82163900","wem/bandit_party_1","AE05QWB4IQA44","either","4","2171","","","","","","","0","1","0","","0.2","0.5","0.5","","","0.8","0.2","","","","","","","","","","","","","","","","75","K","1","","true","0","80_20_practice",""
"","bandit","22","191129","0.0-18.0-4.0","82163900","wem/bandit_party_1","AE05QWB4IQA44","either","4","2171","","","","","","","0","1","0","","0.8","0.5","0.5","","","0.8","0.2","","","","","","","","","","","","","","","","74","J","0","img/none_selected_demo.jpg","true","0","80_20_practice",""
"","bandit","23","193673","0.0-18.0-5.0","82163900","wem/bandit_party_1","AE05QWB4IQA44","either","4","1035","","","","","","","0","0","1","0.2","","0.5","0.5","","","","","","","0.8","0.2","","","","","","","","","","","","75","K","1","","true","0","80_20_practice",""
"","bandit","24","195569","0.0-18.0-6.0","82163900","wem/bandit_party_1","AE05QWB4IQA44","either","4","387","","","","","","","0","0","1","0.8","","0.5","0.5","","","","","","","0.8","0.2","","","","","","","","","","","","74","J","0","img/none_selected_demo.jpg","true","0","80_20_practice",""
"","bandit","25","197819","0.0-18.0-7.0","82163900","wem/bandit_party_1","AE05QWB4IQA44","either","4","741","","","","","","","1","0","0","0.8","","0.5","0.5","","","","","","","0.8","0.2","","","","","","","","","","","","74","J","0","img/none_selected_demo.jpg","true","0","80_20_practice",""
"","bandit","26","199755","0.0-18.0-8.0","82163900","wem/bandit_party_1","AE05QWB4IQA44","either","4","426","","","","","","","1","0","0","0.8","","0.5","0.5","","","","","","","0.8","0.2","","","","","","","","","","","","74","J","0","img/none_selected_demo.jpg","true","0","80_20_practice",""
"","bandit","27","201650","0.0-18.0-9.0","82163900","wem/bandit_party_1","AE05QWB4IQA44","either","4","386","","","","","","","1","0","0","0.8","","0.5","0.5","","","","","","","0.8","0.2","","","","","","","","","","","","74","J","0","img/none_selected_demo.jpg","true","0","80_20_practice",""
"","bandit","28","203457","0.0-18.0-10.0","82163900","wem/bandit_party_1","AE05QWB4IQA44","either","4","299","","","","","","","0","1","0","","0.2","0.5","0.5","","","0.8","0.2","","","","","","","","","","","","","","","","75","K","1","","true","0","80_20_practice",""
"","bandit","29","205265","0.0-18.0-11.0","82163900","wem/bandit_party_1","AE05QWB4IQA44","either","4","298","","","","","","","0","0","1","","0.2","0.5","0.5","","","0.8","0.2","","","","","","","","","","","","","","","","75","K","1","","true","0","80_20_practice",""
"","bandit","30","207058","0.0-18.0-12.0","82163900","wem/bandit_party_1","AE05QWB4IQA44","either","4","283","","","","","","","0","0","1","","0.2","0.5","0.5","","","0.8","0.2","","","","","","","","","","","","","","","","75","K","1","","true","0","80_20_practice",""
"","bandit","31","208828","0.0-18.0-13.0","82163900","wem/bandit_party_1","AE05QWB4IQA44","either","4","261","","","","","","","0","0","1","0.2","","0.5","0.5","","","","","","","0.8","0.2","","","","","","","","","","","","75","K","1","","true","0","80_20_practice",""
"","bandit","32","210521","0.0-18.0-14.0","82163900","wem/bandit_party_1","AE05QWB4IQA44","either","4","184","","","","","","","1","0","0","0.8","","0.5","0.5","","","","","","","0.8","0.2","","","","","","","","","","","","74","J","0","img/none_selected_demo.jpg","true","0","80_20_practice",""
"","bandit","33","212329","0.0-18.0-15.0","82163900","wem/bandit_party_1","AE05QWB4IQA44","either","4","297","","","","","","","0","1","0","","0.8","0.5","0.5","","","0.8","0.2","","","","","","","","","","","","","","","","74","J","0","img/none_selected_demo.jpg","true","0","80_20_practice",""
"","bandit","34","214113","0.0-18.0-16.0","82163900","wem/bandit_party_1","AE05QWB4IQA44","either","4","274","","","","","","","0","1","0","","0.8","0.5","0.5","","","0.8","0.2","","","","","","","","","","","","","","","","74","J","0","img/none_selected_demo.jpg","true","0","80_20_practice",""
"","bandit","35","215930","0.0-18.0-17.0","82163900","wem/bandit_party_1","AE05QWB4IQA44","either","4","306","","","","","","","1","0","0","0.8","","0.5","0.5","","","","","","","0.8","0.2","","","","","","","","","","","","74","J","0","img/none_selected_demo.jpg","true","0","80_20_practice",""
"","bandit","36","217721","0.0-18.0-18.0","82163900","wem/bandit_party_1","AE05QWB4IQA44","either","4","283","","","","","","","1","0","0","0.8","","0.5","0.5","","","","","","","0.8","0.2","","","","","","","","","","","","74","J","0","img/none_selected_demo.jpg","true","0","80_20_practice",""
"","bandit","37","220530","0.0-18.0-19.0","82163900","wem/bandit_party_1","AE05QWB4IQA44","either","4","1300","","","","","","","1","0","0","0.8","","0.5","0.5","","","","","","","0.8","0.2","","","","","","","","","","","","74","J","0","img/none_selected_demo.jpg","true","0","80_20_practice",""
"","text-replacement","38","228300","0.0-19.0","82163900","wem/bandit_party_1","AE05QWB4IQA44","either","4","7765","","","32","","","","","","","","","","","","","","","","","","","","","","","","","","","","","","","","","","","","",""
"","bandit","39","231097","0.0-20.0-0.0","82163900","wem/bandit_party_1","AE05QWB4IQA44","either","4","1287","","","","","","","1","0","0","1","0","","","","","0","1","","","1","0","","","","","","","","","","","","74","J","0","img/none_selected_demo.jpg","true","0","",""
"","text-replacement","40","259156","0.0-21.0","82163900","wem/bandit_party_1","AE05QWB4IQA44","either","4","28055","","","32","","","","","","","","","","","","","","","","","","","","","","","","","","","","","","","","","","","","",""
"","text-replacement","41","267041","0.0-22.0","82163900","wem/bandit_party_1","AE05QWB4IQA44","either","4","7881","","","32","","","","","","","","","","","","","","","","","","","","","","","","","","","","","","","","","","","","",""
"","text-replacement","42","348857","0.0-23.0","82163900","wem/bandit_party_1","AE05QWB4IQA44","either","4","81813","","","32","","","","","","","","","","","","","","","","","","","","","","","","","","","","","","","","","","","","",""
"","text-replacement","43","352123","0.0-24.0","82163900","wem/bandit_party_1","AE05QWB4IQA44","either","4","3261","","","32","","","","","","","","","","","","","","","","","","","","","","","","","","","","","","","","","","","","",""
"","text-replacement","44","359369","0.0-25.0","82163900","wem/bandit_party_1","AE05QWB4IQA44","either","4","7242","","","32","","","","","","","","","","","","","","","","","","","","","","","","","","","","","","","","","","","","",""
"","text-replacement","45","362948","0.0-26.0","82163900","wem/bandit_party_1","AE05QWB4IQA44","either","4","3574","","","32","","","","","","","","","","","","","","","","","","","","","","","","","","","","","","","","","","","","",""
"","text-replacement","46","367097","0.0-27.0","82163900","wem/bandit_party_1","AE05QWB4IQA44","either","4","4145","","","32","","","","","","","","","","","","","","","","","","","","","","","","","","","","","","","","","","","","",""
"","text-replacement","47","370216","0.0-28.0","82163900","wem/bandit_party_1","AE05QWB4IQA44","either","4","3115","","","32","","","","","","","","","","","","","","","","","","","","","","","","","","","","","","","","","","","","",""
"","text-replacement","48","375060","0.0-29.0","82163900","wem/bandit_party_1","AE05QWB4IQA44","either","4","4839","","","32","","","","","","","","","","","","","","","","","","","","","","","","","","","","","","","","","","","","",""
"","text-replacement","49","377353","0.0-30.0","82163900","wem/bandit_party_1","AE05QWB4IQA44","either","4","2290","","","32","","","","","","","","","","","","","","","","","","","","","","","","","","","","","","","","","","","","",""
"","text-replacement","50","381361","0.0-31.0","82163900","wem/bandit_party_1","AE05QWB4IQA44","either","4","4002","","","32","","","","","","","","","","","","","","","","","","","","","","","","","","","","","","","","","","","","",""
"","bandit","51","384041","0.0-32.0-0.0","82163900","wem/bandit_party_1","AE05QWB4IQA44","either","4","1171","","","","","","","0","1","0","","0.8","0.5","0.5","0.5","0.5","0.8","0.2","0.6","0.2","","","","","","","","","","","","","","72","H","0","img/none_selected.jpg","true","0","full_practice",""
"","bandit","52","386619","0.0-32.0-1.0","82163900","wem/bandit_party_1","AE05QWB4IQA44","either","4","1068","","","","","","","0","1","0","","0.2","0.5","0.5","0.5","0.5","0.8","0.2","0.6","0.2","","","","","","","","","","","","","","74","J","1","","true","0","full_practice",""
"","bandit","53","388712","0.0-32.0-2.0","82163900","wem/bandit_party_1","AE05QWB4IQA44","either","4","587","","","","","","","0","1","0","","0.6","0.5","0.5","0.5","0.5","0.8","0.2","0.6","0.2","","","","","","","","","","","","","","75","K","2","","true","0","full_practice",""
"","bandit","54","390622","0.0-32.0-3.0","82163900","wem/bandit_party_1","AE05QWB4IQA44","either","4","401","","","","","","","0","0","1","","0.2","0.5","0.5","0.5","0.5","0.8","0.2","0.6","0.2","","","","","","","","","","","","","","76","L","3","","true","0","full_practice",""
"","bandit","55","392505","0.0-32.0-4.0","82163900","wem/bandit_party_1","AE05QWB4IQA44","either","4","376","","","","","","","1","0","0","0.8","","0.5","0.5","0.5","0.5","","","","","0.8","0.2","0.6","0.2","","","","","","","","","","72","H","0","img/none_selected.jpg","true","0","full_practice",""
"","bandit","56","394185","0.0-32.0-5.0","82163900","wem/bandit_party_1","AE05QWB4IQA44","either","4","170","","","","","","","0","0","1","0.2","","0.5","0.5","0.5","0.5","","","","","0.8","0.2","0.6","0.2","","","","","","","","","","74","J","1","","true","0","full_practice",""
"","bandit","57","395777","0.0-32.0-6.0","82163900","wem/bandit_party_1","AE05QWB4IQA44","either","4","82","","","","","","","0","0","1","0.6","","0.5","0.5","0.5","0.5","","","","","0.8","0.2","0.6","0.2","","","","","","","","","","75","K","2","","true","0","full_practice",""
"","bandit","58","397985","0.0-32.0-7.0","82163900","wem/bandit_party_1","AE05QWB4IQA44","either","4","698","","","","","","","0","0","1","","0.2","0.5","0.5","0.5","0.5","0.8","0.2","0.6","0.2","","","","","","","","","","","","","","76","L","3","","true","0","full_practice",""
"","bandit","59","399841","0.0-32.0-8.0","82163900","wem/bandit_party_1","AE05QWB4IQA44","either","4","345","","","","","","","1","0","0","0.8","","0.5","0.5","0.5","0.5","","","","","0.8","0.2","0.6","0.2","","","","","","","","","","72","H","0","img/none_selected.jpg","true","0","full_practice",""
"","bandit","60","401680","0.0-32.0-9.0","82163900","wem/bandit_party_1","AE05QWB4IQA44","either","4","330","","","","","","","0","0","1","0.2","","0.5","0.5","0.5","0.5","","","","","0.8","0.2","0.6","0.2","","","","","","","","","","74","J","1","","true","0","full_practice",""
"","bandit","61","403377","0.0-32.0-10.0","82163900","wem/bandit_party_1","AE05QWB4IQA44","either","4","186","","","","","","","1","0","0","0.6","","0.5","0.5","0.5","0.5","","","","","0.8","0.2","0.6","0.2","","","","","","","","","","75","K","2","","true","0","full_practice",""
"","bandit","62","405048","0.0-32.0-11.0","82163900","wem/bandit_party_1","AE05QWB4IQA44","either","4","161","","","","","","","0","0","1","","0.2","0.5","0.5","0.5","0.5","0.8","0.2","0.6","0.2","","","","","","","","","","","","","","76","L","3","","true","0","full_practice",""
"","bandit","63","406722","0.0-32.0-12.0","82163900","wem/bandit_party_1","AE05QWB4IQA44","either","4","161","","","","","","","1","0","0","0.8","","0.5","0.5","0.5","0.5","","","","","0.8","0.2","0.6","0.2","","","","","","","","","","72","H","0","img/none_selected.jpg","true","0","full_practice",""
"","bandit","64","408620","0.0-32.0-13.0","82163900","wem/bandit_party_1","AE05QWB4IQA44","either","4","386","","","","","","","0","0","1","0.2","","0.5","0.5","0.5","0.5","","","","","0.8","0.2","0.6","0.2","","","","","","","","","","74","J","1","","true","0","full_practice",""
"","bandit","65","410612","0.0-32.0-14.0","82163900","wem/bandit_party_1","AE05QWB4IQA44","either","4","480","","","","","","","1","0","0","0.6","","0.5","0.5","0.5","0.5","","","","","0.8","0.2","0.6","0.2","","","","","","","","","","75","K","2","","true","0","full_practice",""
"","bandit","66","412378","0.0-32.0-15.0","82163900","wem/bandit_party_1","AE05QWB4IQA44","either","4","255","","","","","","","0","0","1","","0.2","0.5","0.5","0.5","0.5","0.8","0.2","0.6","0.2","","","","","","","","","","","","","","76","L","3","","true","0","full_practice",""
"","bandit","67","415746","0.0-32.0-16.0","82163900","wem/bandit_party_1","AE05QWB4IQA44","either","4","1856","","","","","","","0","0","1","0.8","","0.5","0.5","0.5","0.5","","","","","0.8","0.2","0.6","0.2","","","","","","","","","","72","H","0","img/none_selected.jpg","true","0","full_practice",""
"","bandit","68","417529","0.0-32.0-17.0","82163900","wem/bandit_party_1","AE05QWB4IQA44","either","4","273","","","","","","","0","0","1","","0.2","0.5","0.5","0.5","0.5","0.8","0.2","0.6","0.2","","","","","","","","","","","","","","74","J","1","","true","0","full_practice",""
"","bandit","69","420961","0.0-32.0-18.0","82163900","wem/bandit_party_1","AE05QWB4IQA44","either","4","1922","","","","","","","0","0","1","0.6","","0.5","0.5","0.5","0.5","","","","","0.8","0.2","0.6","0.2","","","","","","","","","","75","K","2","","true","0","full_practice",""
"","bandit","70","433556","0.0-32.0-19.0","82163900","wem/bandit_party_1","AE05QWB4IQA44","either","4","11083","","","","","","","0","1","0","","0.8","0.5","0.5","0.5","0.5","0.8","0.2","0.6","0.2","","","","","","","","","","","","","","72","H","0","img/none_selected.jpg","true","0","full_practice",""
"","text","71","437802","0.0-33.0","82163900","wem/bandit_party_1","AE05QWB4IQA44","either","4","4225","","","32","","","","","","","","","","","","","","","","","","","","","","","","","","","","","","","","","","","","",""
"","text-replacement","72","454020","0.0-34.0","82163900","wem/bandit_party_1","AE05QWB4IQA44","either","4","15212","","","32","","","","","","","","","","","","","","","","","","","","","","","","","","","","","","","","","","","","",""
"","text-replacement","73","467804","0.0-35.0","82163900","wem/bandit_party_1","AE05QWB4IQA44","either","4","13777","","","32","","","","","","","","","","","","","","","","","","","","","","","","","","","","","","","","","","","","",""
"","text-replacement","74","472441","0.0-36.0","82163900","wem/bandit_party_1","AE05QWB4IQA44","either","4","4633","","","32","","","","","","","","","","","","","","","","","","","","","","","","","","","","","","","","","","","","",""
"","text-replacement","75","478460","0.0-37.0","82163900","wem/bandit_party_1","AE05QWB4IQA44","either","4","6014","","","32","","","","","","","","","","","","","","","","","","","","","","","","","","","","","","","","","","","","",""
"","text-replacement","76","483441","0.0-38.0","82163900","wem/bandit_party_1","AE05QWB4IQA44","either","4","4976","","","32","","","","","","","","","","","","","","","","","","","","","","","","","","","","","","","","","","","","",""
"","survey-multi-choice-replacement","77","489246","0.0-39.0-0.0","82163900","wem/bandit_party_1","AE05QWB4IQA44","either","4","5786","","","","","","","","","","","","","","","","","","","","","","","","Money will be added to the pool for <span style='color:red;'>REPUBLICANS</span>","","","","","","","attn_check","","","","","","","","","0"
"","survey-multi-choice-replacement","78","551189","0.0-40.0-0.0","82163900","wem/bandit_party_1","AE05QWB4IQA44","either","4","60921","","","","","","","","","","","","","","","","","","","","","","","","Equal amounts of money will be added to the pool for <span style='color:red;'>REPUBLICANS</span> and subtracted from the pool for <span style='color:blue;'>DEMOCRATS</span>","","","","","","","attn_check","","","","","","","","","2"
"","survey-multi-choice-replacement","79","555412","0.0-41.0-0.0","82163900","wem/bandit_party_1","AE05QWB4IQA44","either","4","3205","","","","","","","","","","","","","","","","","","","","","","","","No money will be added to either pool","","","","","","","attn_check","","","","","","","","","3"
"","bandit","80","560250","0.0-42.0-0.0","82163900","wem/bandit_party_1","AE05QWB4IQA44","either","4","2320","","","","","","","1","0","0","0.2771551185","","0.4","0.6","0.2","0.8","","","","","0.2771551185","0.3525715257","0.3894728165","0.3242650943","","","","","","","","","","72","H","0","img/none_selected.jpg","","1","main_expt",""
"","bandit","81","563433","0.0-43.0-0.0","82163900","wem/bandit_party_1","AE05QWB4IQA44","either","4","1673","","","","","","","0","0","1","0.390153736","","0.4","0.6","0.2","0.8","","","","","0.3030893157","0.390153736","0.363660736","0.3296228245","","","","","","","","","","74","J","1","","","2","main_expt",""
"","bandit","82","565658","0.0-44.0-0.0","82163900","wem/bandit_party_1","AE05QWB4IQA44","either","4","712","","","","","","","0","0","1","0.3842171554","","0.4","0.6","0.2","0.8","","","","","0.3211059343","0.3725447061","0.3842171554","0.3102780753","","","","","","","","","","75","K","2","","","3","main_expt",""
"","bandit","83","567586","0.0-45.0-0.0","82163900","wem/bandit_party_1","AE05QWB4IQA44","either","4","416","","","","","","","1","0","0","0.2749892112","","0.4","0.6","0.2","0.8","","","","","0.2804386453","0.3431524481","0.3831963053","0.2749892112","","","","","","","","","","76","L","3","","","4","main_expt",""
"","bandit","84","569474","0.0-46.0-0.0","82163900","wem/bandit_party_1","AE05QWB4IQA44","either","4","377","","","","","","","0","0","1","0.2609559086","","0.4","0.6","0.2","0.8","","","","","0.2609559086","0.3448007793","0.4056596471","0.3037824898","","","","","","","","","","72","H","0","img/none_selected.jpg","","5","main_expt",""
"","bandit","85","571290","0.0-47.0-0.0","82163900","wem/bandit_party_1","AE05QWB4IQA44","either","4","304","","","","","","","0","0","1","","0.2259287768","0.4","0.6","0.2","0.8","0.2259287768","0.3980888019","0.4409946319","0.3217417103","","","","","","","","","","","","","","72","H","0","img/none_selected.jpg","","6","main_expt",""
"","bandit","86","573268","0.0-48.0-0.0","82163900","wem/bandit_party_1","AE05QWB4IQA44","either","4","466","","","","","","","0","0","1","","0.3018715163","0.4","0.6","0.2","0.8","0.2433618728","0.3693121862","0.3821747998","0.3018715163","","","","","","","","","","","","","","76","L","3","","","7","main_expt",""
"","bandit","87","575098","0.0-49.0-0.0","82163900","wem/bandit_party_1","AE05QWB4IQA44","either","4","319","","","","","","","0","0","1","0.3643645816","","0.4","0.6","0.2","0.8","","","","","0.2025356769","0.2933697555","0.3841844813","0.3643645816","","","","","","","","","","76","L","3","","","8","main_expt",""
"","bandit","88","576858","0.0-50.0-0.0","82163900","wem/bandit_party_1","AE05QWB4IQA44","either","4","249","","","","","","","0","0","1","","0.3418610374","0.4","0.6","0.2","0.8","0.1441028094","0.3036212831","0.3412237964","0.3418610374","","","","","","","","","","","","","","76","L","3","","","9","main_expt",""
"","bandit","89","578433","0.0-51.0-0.0","82163900","wem/bandit_party_1","AE05QWB4IQA44","either","4","58","","","","","","","0","0","1","","0.3256420777","0.4","0.6","0.2","0.8","0.1736005971","0.308020301","0.3256420777","0.3190157878","","","","","","","","","","","","","","75","K","2","","","10","main_expt",""
"","bandit","90","580193","0.0-52.0-0.0","82163900","wem/bandit_party_1","AE05QWB4IQA44","either","4","249","","","","","","","0","0","1","","0.3514007431","0.4","0.6","0.2","0.8","0.1836365694","0.3065973113","0.3514007431","0.2998731478","","","","","","","","","","","","","","75","K","2","","","11","main_expt",""
"","bandit","91","583128","0.0-53.0-0.0","82163900","wem/bandit_party_1","AE05QWB4IQA44","either","4","1424","","","","","","","0","0","1","","0.3271859636","0.4","0.6","0.2","0.8","0.2143869662","0.3271859636","0.3722032088","0.2942822571","","","","","","","","","","","","","","74","J","1","","","12","main_expt",""
"","bandit","92","585134","0.0-54.0-0.0","82163900","wem/bandit_party_1","AE05QWB4IQA44","either","4","493","","","","","","","0","0","1","","0.2761076709","0.4","0.6","0.2","0.8","0.1637139448","0.2761076709","0.3681707299","0.3009212619","","","","","","","","","","","","","","74","J","1","","","13","main_expt",""
"","bandit","93","587020","0.0-55.0-0.0","82163900","wem/bandit_party_1","AE05QWB4IQA44","either","4","373","","","","","","","0","0","1","","0.2311164494","0.4","0.6","0.2","0.8","0.1488535162","0.2311164494","0.3528222564","0.3227424667","","","","","","","","","","","","","","74","J","1","","","14","main_expt",""
"","bandit","94","588826","0.0-56.0-0.0","82163900","wem/bandit_party_1","AE05QWB4IQA44","either","4","294","","","","","","","0","0","1","0.1332411271","","0.4","0.6","0.2","0.8","","","","","0.1332411271","0.2905977425","0.3738838661","0.3547546862","","","","","","","","","","72","H","0","img/none_selected.jpg","","15","main_expt",""
"","bandit","95","590898","0.0-57.0-0.0","82163900","wem/bandit_party_1","AE05QWB4IQA44","either","4","558","","","","","","","0","0","1","","0.09882415698","0.4","0.6","0.2","0.8","0.09882415698","0.2924554969","0.3385239332","0.3241157583","","","","","","","","","","","","","","72","H","0","img/none_selected.jpg","","16","main_expt",""
"","bandit","96","592811","0.0-58.0-0.0","82163900","wem/bandit_party_1","AE05QWB4IQA44","either","4","401","","","","","","","0","0","1","0.1069157009","","0.4","0.6","0.2","0.8","","","","","0.1069157009","0.3114836302","0.3111355138","0.3363410386","","","","","","","","","","72","H","0","img/none_selected.jpg","","17","main_expt",""
"","bandit","97","594872","0.0-59.0-0.0","82163900","wem/bandit_party_1","AE05QWB4IQA44","either","4","551","","","","","","","1","0","0","0.3880947854","","0.4","0.6","0.2","0.8","","","","","0.134958137","0.3215333475","0.3487767647","0.3880947854","","","","","","","","","","76","L","3","","","18","main_expt",""
"","bandit","98","597060","0.0-60.0-0.0","82163900","wem/bandit_party_1","AE05QWB4IQA44","either","4","675","","","","","","","1","0","0","0.4116912081","","0.4","0.6","0.2","0.8","","","","","0.1230418706","0.2733398822","0.3010303499","0.4116912081","","","","","","","","","","76","L","3","","","19","main_expt",""
"","bandit","99","598938","0.0-61.0-0.0","82163900","wem/bandit_party_1","AE05QWB4IQA44","either","4","367","","","","","","","1","0","0","0.3973894305","","0.4","0.6","0.2","0.8","","","","","0.09866604889","0.2351410235","0.2907203997","0.3973894305","","","","","","","","","","76","L","3","","","20","main_expt",""
"","bandit","100","600802","0.0-62.0-0.0","82163900","wem/bandit_party_1","AE05QWB4IQA44","either","4","352","","","","","","","0","0","1","0.369037109","","0.4","0.6","0.2","0.8","","","","","0.1021222834","0.2257810982","0.3088108907","0.369037109","","","","","","","","","","76","L","3","","","21","main_expt",""
"","bandit","101","602690","0.0-63.0-0.0","82163900","wem/bandit_party_1","AE05QWB4IQA44","either","4","377","","","","","","","0","0","1","0.4179468344","","0.4","0.6","0.2","0.8","","","","","0.1234138809","0.2221856846","0.349202701","0.4179468344","","","","","","","","","","76","L","3","","","22","main_expt",""
"","bandit","102","604568","0.0-64.0-0.0","82163900","wem/bandit_party_1","AE05QWB4IQA44","either","4","368","","","","","","","1","0","0","0.4276062926","","0.4","0.6","0.2","0.8","","","","","0.1030640584","0.2127124712","0.3785068464","0.4276062926","","","","","","","","","","76","L","3","","","23","main_expt",""
"","bandit","103","606657","0.0-65.0-0.0","82163900","wem/bandit_party_1","AE05QWB4IQA44","either","4","576","","","","","","","0","0","1","0.4078122208","","0.4","0.6","0.2","0.8","","","","","0.1261035851","0.1882566648","0.4012919653","0.4078122208","","","","","","","","","","76","L","3","","","24","main_expt",""
"","bandit","104","608587","0.0-66.0-0.0","82163900","wem/bandit_party_1","AE05QWB4IQA44","either","4","418","","","","","","","0","0","1","0.3950411191","","0.4","0.6","0.2","0.8","","","","","0.1796705612","0.1273223766","0.400899794","0.3950411191","","","","","","","","","","76","L","3","","","25","main_expt",""
"","bandit","105","610625","0.0-67.0-0.0","82163900","wem/bandit_party_1","AE05QWB4IQA44","either","4","527","","","","","","","0","0","1","","0.2414651519","0.4","0.6","0.2","0.8","0.2414651519","0.15747458","0.4126274585","0.4322303329","","","","","","","","","","","","","","72","H","0","img/none_selected.jpg","","26","main_expt",""
"","bandit","106","612345","0.0-68.0-0.0","82163900","wem/bandit_party_1","AE05QWB4IQA44","either","4","209","","","","","","","0","0","1","0.1442684908","","0.4","0.6","0.2","0.8","","","","","0.2005374927","0.1442684908","0.3992263875","0.4353643722","","","","","","","","","","74","J","1","","","27","main_expt",""
"","bandit","107","614505","0.0-69.0-0.0","82163900","wem/bandit_party_1","AE05QWB4IQA44","either","4","648","","","","","","","0","1","0","","0.3197257227","0.4","0.6","0.2","0.8","0.3197257227","0.2255404594","0.3846584236","0.4464017809","","","","","","","","","","","","","","72","H","0","img/none_selected.jpg","","28","main_expt",""
"","bandit","108","616696","0.0-70.0-0.0","82163900","wem/bandit_party_1","AE05QWB4IQA44","either","4","678","","","","","","","0","0","1","0.3141869899","","0.4","0.6","0.2","0.8","","","","","0.3141869899","0.2730951691","0.3561298134","0.4417109462","","","","","","","","","","72","H","0","img/none_selected.jpg","","29","main_expt",""
"","bandit","109","618642","0.0-71.0-0.0","82163900","wem/bandit_party_1","AE05QWB4IQA44","either","4","434","","","","","","","0","0","1","","0.3445991012","0.4","0.6","0.2","0.8","0.3445991012","0.2890412698","0.3101363315","0.4065908859","","","","","","","","","","","","","","72","H","0","img/none_selected.jpg","","30","main_expt",""
"","bandit","110","620691","0.0-72.0-0.0","82163900","wem/bandit_party_1","AE05QWB4IQA44","either","4","535","","","","","","","0","0","1","0.3456655029","","0.4","0.6","0.2","0.8","","","","","0.3456655029","0.3309226042","0.3322219809","0.3954582793","","","","","","","","","","72","H","0","img/none_selected.jpg","","31","main_expt",""
"","bandit","111","622513","0.0-73.0-0.0","82163900","wem/bandit_party_1","AE05QWB4IQA44","either","4","310","","","","","","","1","0","0","0.3716723047","","0.4","0.6","0.2","0.8","","","","","0.3826172224","0.3519301717","0.3516269472","0.3716723047","","","","","","","","","","76","L","3","","","32","main_expt",""
"","bandit","112","624342","0.0-74.0-0.0","82163900","wem/bandit_party_1","AE05QWB4IQA44","either","4","317","","","","","","","0","0","1","0.3799724366","","0.4","0.6","0.2","0.8","","","","","0.3804083149","0.3414953842","0.3852085553","0.3799724366","","","","","","","","","","76","L","3","","","33","main_expt",""
"","bandit","113","626151","0.0-75.0-0.0","82163900","wem/bandit_party_1","AE05QWB4IQA44","either","4","295","","","","","","","1","0","0","0.409480615","","0.4","0.6","0.2","0.8","","","","","0.3808178469","0.2938412915","0.4196644934","0.409480615","","","","","","","","","","76","L","3","","","34","main_expt",""
"","bandit","114","628097","0.0-76.0-0.0","82163900","wem/bandit_party_1","AE05QWB4IQA44","either","4","426","","","","","","","0","0","1","0.3869649509","","0.4","0.6","0.2","0.8","","","","","0.376129724","0.2256616696","0.420891004","0.3869649509","","","","","","","","","","76","L","3","","","35","main_expt",""
"","bandit","115","629953","0.0-77.0-0.0","82163900","wem/bandit_party_1","AE05QWB4IQA44","either","4","342","","","","","","","0","0","1","0.3045389962","","0.4","0.6","0.2","0.8","","","","","0.4027809904","0.2525957923","0.3808881167","0.3045389962","","","","","","","","","","76","L","3","","","36","main_expt",""
"","bandit","116","631880","0.0-78.0-0.0","82163900","wem/bandit_party_1","AE05QWB4IQA44","either","4","416","","","","","","","0","0","1","0.2954217214","","0.4","0.6","0.2","0.8","","","","","0.3715556026","0.2333373749","0.3634360393","0.2954217214","","","","","","","","","","76","L","3","","","37","main_expt",""
"","bandit","117","634377","0.0-79.0-0.0","82163900","wem/bandit_party_1","AE05QWB4IQA44","either","4","982","","","","","","","0","0","1","0.2126884676","","0.4","0.6","0.2","0.8","","","","","0.354842885","0.2126884676","0.3432691328","0.2749906923","","","","","","","","","","74","J","1","","","38","main_expt",""
"","bandit","118","636233","0.0-80.0-0.0","82163900","wem/bandit_party_1","AE05QWB4IQA44","either","4","343","","","","","","","0","0","1","0.212498526","","0.4","0.6","0.2","0.8","","","","","0.3066825603","0.212498526","0.3113322025","0.2911873598","","","","","","","","","","74","J","1","","","39","main_expt",""
"","bandit","119","638049","0.0-81.0-0.0","82163900","wem/bandit_party_1","AE05QWB4IQA44","either","4","302","","","","","","","1","0","0","0.2031275136","","0.4","0.6","0.2","0.8","","","","","0.3208648015","0.2031275136","0.3298138996","0.3066149412","","","","","","","","","","74","J","1","","","40","main_expt",""
"","bandit","120","639889","0.0-82.0-0.0","82163900","wem/bandit_party_1","AE05QWB4IQA44","either","4","327","","","","","","","0","0","1","","0.2409224204","0.4","0.6","0.2","0.8","0.2774570704","0.2409224204","0.3590557929","0.2612722093","","","","","","","","","","","","","","74","J","1","","","41","main_expt",""
"","bandit","121","641747","0.0-83.0-0.0","82163900","wem/bandit_party_1","AE05QWB4IQA44","either","4","344","","","","","","","0","0","1","","0.2166695961","0.4","0.6","0.2","0.8","0.3092882543","0.2166695961","0.3455434044","0.2579482203","","","","","","","","","","","","","","74","J","1","","","42","main_expt",""
"","bandit","122","643584","0.0-84.0-0.0","82163900","wem/bandit_party_1","AE05QWB4IQA44","either","4","326","","","","","","","1","0","0","0.4020043176","","0.4","0.6","0.2","0.8","","","","","0.3161251671","0.2314197793","0.4020043176","0.2232302517","","","","","","","","","","75","K","2","","","43","main_expt",""
"","bandit","123","645449","0.0-85.0-0.0","82163900","wem/bandit_party_1","AE05QWB4IQA44","either","4","351","","","","","","","0","0","1","","0.4088695108","0.4","0.6","0.2","0.8","0.3032549762","0.1889371852","0.4088695108","0.2435669349","","","","","","","","","","","","","","75","K","2","","","44","main_expt",""
"","bandit","124","647305","0.0-86.0-0.0","82163900","wem/bandit_party_1","AE05QWB4IQA44","either","4","344","","","","","","","1","0","0","0.3914045207","","0.4","0.6","0.2","0.8","","","","","0.3012359134","0.2152104473","0.3914045207","0.1885724617","","","","","","","","","","75","K","2","","","45","main_expt",""
"","bandit","125","649127","0.0-87.0-0.0","82163900","wem/bandit_party_1","AE05QWB4IQA44","either","4","308","","","","","","","0","0","1","","0.3682142312","0.4","0.6","0.2","0.8","0.2994346937","0.2260726972","0.3682142312","0.104230756","","","","","","","","","","","","","","75","K","2","","","46","main_expt",""
"","bandit","126","650938","0.0-88.0-0.0","82163900","wem/bandit_party_1","AE05QWB4IQA44","either","4","297","","","","","","","0","1","0","","0.3462276735","0.4","0.6","0.2","0.8","0.3169549043","0.2330399618","0.3462276735","0.09013225529","","","","","","","","","","","","","","75","K","2","","","47","main_expt",""
"","bandit","127","652819","0.0-89.0-0.0","82163900","wem/bandit_party_1","AE05QWB4IQA44","either","4","367","","","","","","","0","1","0","","0.3501405617","0.4","0.6","0.2","0.8","0.3137179834","0.2769685944","0.3501405617","0.1066227192","","","","","","","","","","","","","","75","K","2","","","48","main_expt",""
"","bandit","128","654665","0.0-90.0-0.0","82163900","wem/bandit_party_1","AE05QWB4IQA44","either","4","334","","","","","","","0","0","1","","0.3607669766","0.4","0.6","0.2","0.8","0.3026837323","0.2954986192","0.3607669766","0.1273062614","","","","","","","","","","","","","","75","K","2","","","49","main_expt",""
"","bandit","129","656481","0.0-91.0-0.0","82163900","wem/bandit_party_1","AE05QWB4IQA44","either","4","302","","","","","","","0","0","1","","0.3776327681","0.4","0.6","0.2","0.8","0.2690248343","0.2730110453","0.3776327681","0.08158159543","","","","","","","","","","","","","","75","K","2","","","50","main_expt",""
"","bandit","130","658305","0.0-92.0-0.0","82163900","wem/bandit_party_1","AE05QWB4IQA44","either","4","311","","","","","","","1","0","0","0.3922012959","","0.4","0.6","0.2","0.8","","","","","0.2407215714","0.2672659715","0.3922012959","0.08035098666","","","","","","","","","","75","K","2","","","51","main_expt",""
"","bandit","131","660257","0.0-93.0-0.0","82163900","wem/bandit_party_1","AE05QWB4IQA44","either","4","438","","","","","","","0","0","1","","0.3532085343","0.4","0.6","0.2","0.8","0.2758158767","0.2552972095","0.3532085343","0.1007468434","","","","","","","","","","","","","","75","K","2","","","52","main_expt",""
"","bandit","132","662065","0.0-94.0-0.0","82163900","wem/bandit_party_1","AE05QWB4IQA44","either","4","294","","","","","","","0","0","1","","0.2661511239","0.4","0.6","0.2","0.8","0.2661511239","0.1954439593","0.3597378762","0.1479770317","","","","","","","","","","","","","","72","H","0","img/none_selected.jpg","","53","main_expt",""
"","bandit","133","663875","0.0-95.0-0.0","82163900","wem/bandit_party_1","AE05QWB4IQA44","either","4","295","","","","","","","0","0","1","0.250303373","","0.4","0.6","0.2","0.8","","","","","0.250303373","0.1250298759","0.3553644404","0.1450389045","","","","","","","","","","72","H","0","img/none_selected.jpg","","54","main_expt",""
"","bandit","134","665729","0.0-96.0-0.0","82163900","wem/bandit_party_1","AE05QWB4IQA44","either","4","339","","","","","","","0","0","1","0.1678096349","","0.4","0.6","0.2","0.8","","","","","0.1850572083","0.1224949652","0.3427354451","0.1678096349","","","","","","","","","","76","L","3","","","55","main_expt",""
"","bandit","135","667634","0.0-97.0-0.0","82163900","wem/bandit_party_1","AE05QWB4IQA44","either","4","391","","","","","","","0","0","1","0.1748395718","","0.4","0.6","0.2","0.8","","","","","0.2410157884","0.1312048923","0.3158877586","0.1748395718","","","","","","","","","","76","L","3","","","56","main_expt",""
"","bandit","136","669513","0.0-98.0-0.0","82163900","wem/bandit_party_1","AE05QWB4IQA44","either","4","367","","","","","","","0","1","0","","0.14452077","0.4","0.6","0.2","0.8","0.2657224069","0.14452077","0.3224611445","0.146986137","","","","","","","","","","","","","","74","J","1","","","57","main_expt",""
"","bandit","137","671362","0.0-99.0-0.0","82163900","wem/bandit_party_1","AE05QWB4IQA44","either","4","334","","","","","","","0","0","1","0.1198415177","","0.4","0.6","0.2","0.8","","","","","0.2361308133","0.1198415177","0.3378672788","0.1316135006","","","","","","","","","","74","J","1","","","58","main_expt",""
"","bandit","138","673202","0.0-100.0-0.0","82163900","wem/bandit_party_1","AE05QWB4IQA44","either","4","327","","","","","","","0","0","1","0.1674914914","","0.4","0.6","0.2","0.8","","","","","0.2078360154","0.1674914914","0.3438075972","0.1776120447","","","","","","","","","","74","J","1","","","59","main_expt",""
"","bandit","139","675029","0.0-101.0-0.0","82163900","wem/bandit_party_1","AE05QWB4IQA44","either","4","313","","","","","","","0","0","1","0.147959707","","0.4","0.6","0.2","0.8","","","","","0.2256957235","0.147959707","0.2950987239","0.2034864675","","","","","","","","","","74","J","1","","","60","main_expt",""
"","bandit","140","676778","0.0-102.0-0.0","82163900","wem/bandit_party_1","AE05QWB4IQA44","either","4","235","","","","","","","0","0","1","","0.2939622289","0.4","0.6","0.2","0.8","0.2713547376","0.1217284172","0.2939622289","0.1325668513","","","","","","","","","","","","","","75","K","2","","","61","main_expt",""
"","bandit","141","678586","0.0-103.0-0.0","82163900","wem/bandit_party_1","AE05QWB4IQA44","either","4","295","","","","","","","0","0","1","","0.2907096119","0.4","0.6","0.2","0.8","0.2800078023","0.1392905859","0.2907096119","0.125492747","","","","","","","","","","","","","","75","K","2","","","62","main_expt",""
"","bandit","142","680369","0.0-104.0-0.0","82163900","wem/bandit_party_1","AE05QWB4IQA44","either","4","269","","","","","","","0","1","0","","0.2696382907","0.4","0.6","0.2","0.8","0.362183352","0.1953314019","0.2696382907","0.1081989139","","","","","","","","","","","","","","75","K","2","","","63","main_expt",""
"","bandit","143","682306","0.0-105.0-0.0","82163900","wem/bandit_party_1","AE05QWB4IQA44","either","4","423","","","","","","","0","0","1","0.2496415039","","0.4","0.6","0.2","0.8","","","","","0.3354395381","0.2618523415","0.2496415039","0.09104284411","","","","","","","","","","75","K","2","","","64","main_expt",""
"","bandit","144","684138","0.0-106.0-0.0","82163900","wem/bandit_party_1","AE05QWB4IQA44","either","4","317","","","","","","","0","0","1","","0.2364994079","0.4","0.6","0.2","0.8","0.2893845237","0.2686672798","0.2364994079","0.1264903162","","","","","","","","","","","","","","75","K","2","","","65","main_expt",""
"","bandit","145","685948","0.0-107.0-0.0","82163900","wem/bandit_party_1","AE05QWB4IQA44","either","4","297","","","","","","","0","0","1","","0.2541683514","0.4","0.6","0.2","0.8","0.2355717356","0.2451656397","0.2541683514","0.1665937301","","","","","","","","","","","","","","75","K","2","","","66","main_expt",""
"","bandit","146","687833","0.0-108.0-0.0","82163900","wem/bandit_party_1","AE05QWB4IQA44","either","4","372","","","","","","","0","0","1","","0.2985471382","0.4","0.6","0.2","0.8","0.2848755716","0.2445320338","0.2985471382","0.1740025863","","","","","","","","","","","","","","75","K","2","","","67","main_expt",""
"","bandit","147","689612","0.0-109.0-0.0","82163900","wem/bandit_party_1","AE05QWB4IQA44","either","4","269","","","","","","","0","0","1","","0.3341158043","0.4","0.6","0.2","0.8","0.3341158043","0.2261158315","0.3391290389","0.2300011382","","","","","","","","","","","","","","72","H","0","img/none_selected.jpg","","68","main_expt",""
"","bandit","148","691596","0.0-110.0-0.0","82163900","wem/bandit_party_1","AE05QWB4IQA44","either","4","469","","","","","","","0","1","0","","0.3253412689","0.4","0.6","0.2","0.8","0.3253412689","0.1627286519","0.3114764975","0.1768594062","","","","","","","","","","","","","","72","H","0","img/none_selected.jpg","","69","main_expt",""
"","bandit","149","693506","0.0-111.0-0.0","82163900","wem/bandit_party_1","AE05QWB4IQA44","either","4","397","","","","","","","0","0","1","","0.3280915152","0.4","0.6","0.2","0.8","0.3280915152","0.1301009224","0.3056328376","0.1906145184","","","","","","","","","","","","","","72","H","0","img/none_selected.jpg","","70","main_expt",""
"","bandit","150","695322","0.0-112.0-0.0","82163900","wem/bandit_party_1","AE05QWB4IQA44","either","4","301","","","","","","","0","0","1","","0.3772643828","0.4","0.6","0.2","0.8","0.3772643828","0.1356707761","0.3445325487","0.1451664327","","","","","","","","","","","","","","72","H","0","img/none_selected.jpg","","71","main_expt",""
"","bandit","151","697428","0.0-113.0-0.0","82163900","wem/bandit_party_1","AE05QWB4IQA44","either","4","592","","","","","","","1","0","0","0.4074174212","","0.4","0.6","0.2","0.8","","","","","0.4074174212","0.1045412551","0.364612409","0.1091447996","","","","","","","","","","72","H","0","img/none_selected.jpg","","72","main_expt",""
"","bandit","152","699602","0.0-114.0-0.0","82163900","wem/bandit_party_1","AE05QWB4IQA44","either","4","661","","","","","","","0","0","1","0.3736299767","","0.4","0.6","0.2","0.8","","","","","0.3736299767","0.0867882282","0.4454774056","0.1248737042","","","","","","","","","","72","H","0","img/none_selected.jpg","","73","main_expt",""
"","bandit","153","701490","0.0-115.0-0.0","82163900","wem/bandit_party_1","AE05QWB4IQA44","either","4","363","","","","","","","0","0","1","","0.383211712","0.4","0.6","0.2","0.8","0.383211712","0.1018359722","0.4492830973","0.1073746888","","","","","","","","","","","","","","72","H","0","img/none_selected.jpg","","74","main_expt",""
"","bandit","154","703426","0.0-116.0-0.0","82163900","wem/bandit_party_1","AE05QWB4IQA44","either","4","423","","","","","","","0","0","1","","0.3681962321","0.4","0.6","0.2","0.8","0.3681962321","0.09443707336","0.449321966","0.1051395745","","","","","","","","","","","","","","72","H","0","img/none_selected.jpg","","75","main_expt",""
"","bandit","155","705298","0.0-117.0-0.0","82163900","wem/bandit_party_1","AE05QWB4IQA44","either","4","357","","","","","","","0","0","1","","0.3574328021","0.4","0.6","0.2","0.8","0.3574328021","0.08768691443","0.4299726132","0.09171451076","","","","","","","","","","","","","","72","H","0","img/none_selected.jpg","","76","main_expt",""
"","bandit","156","707154","0.0-118.0-0.0","82163900","wem/bandit_party_1","AE05QWB4IQA44","either","4","342","","","","","","","0","0","1","","0.1256070833","0.4","0.6","0.2","0.8","0.4041720962","0.07744448812","0.4349340462","0.1256070833","","","","","","","","","","","","","","76","L","3","","","77","main_expt",""
"","bandit","157","709085","0.0-119.0-0.0","82163900","wem/bandit_party_1","AE05QWB4IQA44","either","4","416","","","","","","","0","0","1","0.1398604905","","0.4","0.6","0.2","0.8","","","","","0.4000946746","0.05712631425","0.4112950215","0.1398604905","","","","","","","","","","76","L","3","","","78","main_expt",""
"","bandit","158","711196","0.0-120.0-0.0","82163900","wem/bandit_party_1","AE05QWB4IQA44","either","4","593","","","","","","","0","0","1","0.03981704588","","0.4","0.6","0.2","0.8","","","","","0.425248604","0.03981704588","0.4123046053","0.1303191282","","","","","","","","","","74","J","1","","","79","main_expt",""
"","bandit","159","713042","0.0-121.0-0.0","82163900","wem/bandit_party_1","AE05QWB4IQA44","either","4","332","","","","","","","0","0","1","","0.4345430878","0.4","0.6","0.2","0.8","0.4263383456","0.02961196177","0.4345430878","0.1491340647","","","","","","","","","","","","","","75","K","2","","","80","main_expt",""
"","bandit","160","714866","0.0-122.0-0.0","82163900","wem/bandit_party_1","AE05QWB4IQA44","either","4","309","","","","","","","0","0","1","","0.4255274095","0.4","0.6","0.2","0.8","0.4377411966","0.0408206899","0.4255274095","0.1484119081","","","","","","","","","","","","","","75","K","2","","","81","main_expt",""
"","bandit","161","716690","0.0-123.0-0.0","82163900","wem/bandit_party_1","AE05QWB4IQA44","either","4","310","","","","","","","0","1","0","","0.4266934287","0.4","0.6","0.2","0.8","0.4263216968","0.03491361241","0.4266934287","0.135460029","","","","","","","","","","","","","","75","K","2","","","82","main_expt",""
"","bandit","162","718562","0.0-124.0-0.0","82163900","wem/bandit_party_1","AE05QWB4IQA44","either","4","355","","","","","","","0","0","1","","0.4321646522","0.4","0.6","0.2","0.8","0.4536492548","0.01881925386","0.4321646522","0.09497461961","","","","","","","","","","","","","","75","K","2","","","83","main_expt",""
"","bandit","163","720397","0.0-125.0-0.0","82163900","wem/bandit_party_1","AE05QWB4IQA44","either","4","320","","","","","","","0","0","1","","0.4344769981","0.4","0.6","0.2","0.8","0.4344769981","0.03441768066","0.43129245","0.0956585677","","","","","","","","","","","","","","72","H","0","img/none_selected.jpg","","84","main_expt",""
"","bandit","164","722361","0.0-126.0-0.0","82163900","wem/bandit_party_1","AE05QWB4IQA44","either","4","451","","","","","","","0","0","1","","0.4167097255","0.4","0.6","0.2","0.8","0.4167097255","0.04015732792","0.4307495417","0.08427930603","","","","","","","","","","","","","","72","H","0","img/none_selected.jpg","","85","main_expt",""
"","bandit","165","724194","0.0-127.0-0.0","82163900","wem/bandit_party_1","AE05QWB4IQA44","either","4","317","","","","","","","1","0","0","0.4215971904","","0.4","0.6","0.2","0.8","","","","","0.4215971904","0.0462821445","0.4327415212","0.09540141202","","","","","","","","","","72","H","0","img/none_selected.jpg","","86","main_expt",""
"","bandit","166","725985","0.0-128.0-0.0","82163900","wem/bandit_party_1","AE05QWB4IQA44","either","4","277","","","","","","","0","0","1","","0.3962725568","0.4","0.6","0.2","0.8","0.3962725568","0.07236867375","0.4507305815","0.06504543429","","","","","","","","","","","","","","72","H","0","img/none_selected.jpg","","87","main_expt",""
"","bandit","167","727769","0.0-129.0-0.0","82163900","wem/bandit_party_1","AE05QWB4IQA44","either","4","270","","","","","","","0","0","1","","0.4038430626","0.4","0.6","0.2","0.8","0.4038430626","0.1132918069","0.4571393315","0.05894337134","","","","","","","","","","","","","","72","H","0","img/none_selected.jpg","","88","main_expt",""
"","bandit","168","729585","0.0-130.0-0.0","82163900","wem/bandit_party_1","AE05QWB4IQA44","either","4","301","","","","","","","1","0","0","0.4247877058","","0.4","0.6","0.2","0.8","","","","","0.4247877058","0.1466354559","0.4639779763","0.06803635399","","","","","","","","","","72","H","0","img/none_selected.jpg","","89","main_expt",""
"","bandit","169","731395","0.0-131.0-0.0","82163900","wem/bandit_party_1","AE05QWB4IQA44","either","4","294","","","","","","","1","0","0","0.4196700557","","0.4","0.6","0.2","0.8","","","","","0.4196700557","0.1746819083","0.4620017245","0.09657856289","","","","","","","","","","72","H","0","img/none_selected.jpg","","90","main_expt",""
"","bandit","170","733184","0.0-132.0-0.0","82163900","wem/bandit_party_1","AE05QWB4IQA44","either","4","276","","","","","","","0","1","0","","0.401758082","0.4","0.6","0.2","0.8","0.401758082","0.1864657318","0.4492963398","0.08522031428","","","","","","","","","","","","","","72","H","0","img/none_selected.jpg","","91","main_expt",""
"","bandit","171","734986","0.0-133.0-0.0","82163900","wem/bandit_party_1","AE05QWB4IQA44","either","4","293","","","","","","","0","1","0","","0.3422099147","0.4","0.6","0.2","0.8","0.3422099147","0.2124622091","0.462009279","0.07078380504","","","","","","","","","","","","","","72","H","0","img/none_selected.jpg","","92","main_expt",""
"","bandit","172","736856","0.0-134.0-0.0","82163900","wem/bandit_party_1","AE05QWB4IQA44","either","4","356","","","","","","","0","0","1","","0.3279059742","0.4","0.6","0.2","0.8","0.3279059742","0.245786276","0.4363090379","0.0564278809","","","","","","","","","","","","","","72","H","0","img/none_selected.jpg","","93","main_expt",""
"","bandit","173","738648","0.0-135.0-0.0","82163900","wem/bandit_party_1","AE05QWB4IQA44","either","4","272","","","","","","","0","0","1","0.3155724737","","0.4","0.6","0.2","0.8","","","","","0.3155724737","0.2316759231","0.4457519602","0.06067733924","","","","","","","","","","72","H","0","img/none_selected.jpg","","94","main_expt",""
"","bandit","174","740457","0.0-136.0-0.0","82163900","wem/bandit_party_1","AE05QWB4IQA44","either","4","291","","","","","","","0","1","0","","0.3519625041","0.4","0.6","0.2","0.8","0.3519625041","0.2231756969","0.4231248902","0.08632751489","","","","","","","","","","","","","","72","H","0","img/none_selected.jpg","","95","main_expt",""
"","bandit","175","742261","0.0-137.0-0.0","82163900","wem/bandit_party_1","AE05QWB4IQA44","either","4","288","","","","","","","0","0","1","0.3661455107","","0.4","0.6","0.2","0.8","","","","","0.3661455107","0.1957128212","0.4210676831","0.08481729553","","","","","","","","","","72","H","0","img/none_selected.jpg","","96","main_expt",""
"","bandit","176","744603","0.0-138.0-0.0","82163900","wem/bandit_party_1","AE05QWB4IQA44","either","4","289","","","","","","","0","1","0","","0.3558031673","0.4","0.6","0.2","0.8","0.3558031673","0.1638116915","0.4022895305","0.08386440452","","","","","","","","","","","","","","72","H","0","img/none_selected.jpg","","97","main_expt",""
"","bandit","177","747647","0.0-139.0-0.0","82163900","wem/bandit_party_1","AE05QWB4IQA44","either","4","1523","","","","","","","0","0","1","","0.3558230887","0.4","0.6","0.2","0.8","0.3558230887","0.1405816365","0.4187351015","0.0940701929","","","","","","","","","","","","","","72","H","0","img/none_selected.jpg","","98","main_expt",""
"","bandit","178","749601","0.0-140.0-0.0","82163900","wem/bandit_party_1","AE05QWB4IQA44","either","4","446","","","","","","","0","0","1","","0.3064708089","0.4","0.6","0.2","0.8","0.3064708089","0.1435678602","0.3981340028","0.1285058524","","","","","","","","","","","","","","72","H","0","img/none_selected.jpg","","99","main_expt",""
"","bandit","179","751409","0.0-141.0-0.0","82163900","wem/bandit_party_1","AE05QWB4IQA44","either","4","291","","","","","","","0","0","1","0.1478754355","","0.4","0.6","0.2","0.8","","","","","0.352498313","0.1478754355","0.3520446815","0.065882019","","","","","","","","","","74","J","1","","","100","main_expt",""
"","bandit","180","753123","0.0-142.0-0.0","82163900","wem/bandit_party_1","AE05QWB4IQA44","either","4","198","","","","","","","0","1","0","","0.3715523215","0.4","0.6","0.2","0.8","0.3511810171","0.1532559328","0.3715523215","0.05692140794","","","","","","","","","","","","","","75","K","2","","","101","main_expt",""
"","bandit","181","754912","0.0-143.0-0.0","82163900","wem/bandit_party_1","AE05QWB4IQA44","either","4","275","","","","","","","1","0","0","0.3966955113","","0.4","0.6","0.2","0.8","","","","","0.3246867477","0.15857411","0.3966955113","0.04322280369","","","","","","","","","","75","K","2","","","102","main_expt",""
"","bandit","182","756856","0.0-144.0-0.0","82163900","wem/bandit_party_1","AE05QWB4IQA44","either","4","429","","","","","","","0","0","1","","0.3865714765","0.4","0.6","0.2","0.8","0.2827689756","0.1552377357","0.3865714765","0.05121437093","","","","","","","","","","","","","","75","K","2","","","103","main_expt",""
"","bandit","183","758689","0.0-145.0-0.0","82163900","wem/bandit_party_1","AE05QWB4IQA44","either","4","315","","","","","","","0","0","1","","0.3440646931","0.4","0.6","0.2","0.8","0.3307995119","0.1584193753","0.3440646931","0.06548077564","","","","","","","","","","","","","","75","K","2","","","104","main_expt",""
"","bandit","184","760465","0.0-146.0-0.0","82163900","wem/bandit_party_1","AE05QWB4IQA44","either","4","261","","","","","","","0","0","1","","0.330981063","0.4","0.6","0.2","0.8","0.3078297571","0.192058402","0.330981063","0.07577357845","","","","","","","","","","","","","","75","K","2","","","105","main_expt",""
"","bandit","185","762217","0.0-147.0-0.0","82163900","wem/bandit_party_1","AE05QWB4IQA44","either","4","237","","","","","","","0","0","1","0.09041352565","","0.4","0.6","0.2","0.8","","","","","0.3202685942","0.1562344916","0.3317280627","0.09041352565","","","","","","","","","","76","L","3","","","106","main_expt",""
"","bandit","186","763947","0.0-148.0-0.0","82163900","wem/bandit_party_1","AE05QWB4IQA44","either","4","214","","","","","","","0","0","1","0.1184921167","","0.4","0.6","0.2","0.8","","","","","0.3163418234","0.1493116313","0.2760665195","0.1184921167","","","","","","","","","","76","L","3","","","107","main_expt",""
"","bandit","187","765632","0.0-149.0-0.0","82163900","wem/bandit_party_1","AE05QWB4IQA44","either","4","171","","","","","","","0","0","1","","0.1057615429","0.4","0.6","0.2","0.8","0.3425943818","0.1357435498","0.2826301941","0.1057615429","","","","","","","","","","","","","","76","L","3","","","108","main_expt",""
"","bandit","188","767297","0.0-150.0-0.0","82163900","wem/bandit_party_1","AE05QWB4IQA44","either","4","150","","","","","","","0","0","1","0.2852030557","","0.4","0.6","0.2","0.8","","","","","0.2852030557","0.1164074326","0.318117281","0.1464484126","","","","","","","","","","72","H","0","img/none_selected.jpg","","109","main_expt",""
"","bandit","189","769041","0.0-151.0-0.0","82163900","wem/bandit_party_1","AE05QWB4IQA44","either","4","228","","","","","","","0","0","1","0.3392406975","","0.4","0.6","0.2","0.8","","","","","0.3392406975","0.1444451916","0.3358587519","0.1641354829","","","","","","","","","","72","H","0","img/none_selected.jpg","","110","main_expt",""
"","bandit","190","770848","0.0-152.0-0.0","82163900","wem/bandit_party_1","AE05QWB4IQA44","either","4","292","","","","","","","0","0","1","","0.3023411017","0.4","0.6","0.2","0.8","0.3023411017","0.09905323685","0.3031660534","0.1386891192","","","","","","","","","","","","","","72","H","0","img/none_selected.jpg","","111","main_expt",""
"","bandit","191","772639","0.0-153.0-0.0","82163900","wem/bandit_party_1","AE05QWB4IQA44","either","4","277","","","","","","","0","0","1","0.09652445584","","0.4","0.6","0.2","0.8","","","","","0.296849772","0.09652445584","0.2773548355","0.1847512065","","","","","","","","","","74","J","1","","","112","main_expt",""
"","bandit","192","774467","0.0-154.0-0.0","82163900","wem/bandit_party_1","AE05QWB4IQA44","either","4","320","","","","","","","0","1","0","","0.09961189632","0.4","0.6","0.2","0.8","0.2673419259","0.09961189632","0.2370758425","0.1304555333","","","","","","","","","","","","","","74","J","1","","","113","main_expt",""
"","bandit","193","776605","0.0-155.0-0.0","82163900","wem/bandit_party_1","AE05QWB4IQA44","either","4","402","","","","","","","0","0","1","","0.1036139638","0.4","0.6","0.2","0.8","0.2670531803","0.1036139638","0.1821928837","0.1770102637","","","","","","","","","","","","","","74","J","1","","","114","main_expt",""
"","bandit","194","785786","0.0-156.0-0.0","82163900","wem/bandit_party_1","AE05QWB4IQA44","either","4","7662","","","","","","","0","0","1","","0.0968506792","0.4","0.6","0.2","0.8","0.2825009356","0.0968506792","0.1315453283","0.1564651975","","","","","","","","","","","","","","74","J","1","","","115","main_expt",""
"","bandit","195","787761","0.0-157.0-0.0","82163900","wem/bandit_party_1","AE05QWB4IQA44","either","4","457","","","","","","","1","0","0","0.1102777544","","0.4","0.6","0.2","0.8","","","","","0.3237719372","0.08782875681","0.1102777544","0.1665702367","","","","","","","","","","75","K","2","","","116","main_expt",""
"","bandit","196","789569","0.0-158.0-0.0","82163900","wem/bandit_party_1","AE05QWB4IQA44","either","4","293","","","","","","","0","0","1","","0.1101610351","0.4","0.6","0.2","0.8","0.3154846423","0.06031800864","0.1101610351","0.1530687496","","","","","","","","","","","","","","75","K","2","","","117","main_expt",""
"","bandit","197","791442","0.0-159.0-0.0","82163900","wem/bandit_party_1","AE05QWB4IQA44","either","4","358","","","","","","","0","0","1","","0.122460482","0.4","0.6","0.2","0.8","0.2584508078","0.05633053331","0.122460482","0.1674206906","","","","","","","","","","","","","","75","K","2","","","118","main_expt",""
"","bandit","198","793290","0.0-160.0-0.0","82163900","wem/bandit_party_1","AE05QWB4IQA44","either","4","332","","","","","","","0","0","1","","0.07530514027","0.4","0.6","0.2","0.8","0.2141905193","0.07530514027","0.1451868924","0.1990215448","","","","","","","","","","","","","","74","J","1","","","119","main_expt",""
"","bandit","199","795152","0.0-161.0-0.0","82163900","wem/bandit_party_1","AE05QWB4IQA44","either","4","345","","","","","","","0","0","1","","0.09639595661","0.4","0.6","0.2","0.8","0.2341954374","0.09639595661","0.09092593383","0.2208640619","","","","","","","","","","","","","","74","J","1","","","120","main_expt",""
"","bandit","200","797065","0.0-162.0-0.0","82163900","wem/bandit_party_1","AE05QWB4IQA44","either","4","396","","","","","","","0","0","1","","0.1886372651","0.4","0.6","0.2","0.8","0.1886372651","0.1421799471","0.1080456108","0.2602917539","","","","","","","","","","","","","","72","H","0","img/none_selected.jpg","","121","main_expt",""
"","bandit","201","799121","0.0-163.0-0.0","82163900","wem/bandit_party_1","AE05QWB4IQA44","either","4","539","","","","","","","0","0","1","0.1597592322","","0.4","0.6","0.2","0.8","","","","","0.1597592322","0.1624760489","0.1169053248","0.2512498235","","","","","","","","","","72","H","0","img/none_selected.jpg","","122","main_expt",""
"","bandit","202","800921","0.0-164.0-0.0","82163900","wem/bandit_party_1","AE05QWB4IQA44","either","4","285","","","","","","","0","0","1","0.2266242761","","0.4","0.6","0.2","0.8","","","","","0.1895266442","0.1640214383","0.1571594809","0.2266242761","","","","","","","","","","76","L","3","","","123","main_expt",""
"","bandit","203","802811","0.0-165.0-0.0","82163900","wem/bandit_party_1","AE05QWB4IQA44","either","4","374","","","","","","","0","0","1","0.2373824638","","0.4","0.6","0.2","0.8","","","","","0.2042850732","0.2014340991","0.2231804049","0.2373824638","","","","","","","","","","76","L","3","","","124","main_expt",""
"","bandit","204","804664","0.0-166.0-0.0","82163900","wem/bandit_party_1","AE05QWB4IQA44","either","4","338","","","","","","","0","0","1","0.2538727107","","0.4","0.6","0.2","0.8","","","","","0.1812515389","0.2229229076","0.2232794356","0.2538727107","","","","","","","","","","76","L","3","","","125","main_expt",""
"","bandit","205","806480","0.0-167.0-0.0","82163900","wem/bandit_party_1","AE05QWB4IQA44","either","4","299","","","","","","","0","0","1","","0.2316903634","0.4","0.6","0.2","0.8","0.1694736183","0.2324712723","0.2316903634","0.290219491","","","","","","","","","","","","","","75","K","2","","","126","main_expt",""
"","bandit","206","808465","0.0-168.0-0.0","82163900","wem/bandit_party_1","AE05QWB4IQA44","either","4","469","","","","","","","0","0","1","","0.2337524142","0.4","0.6","0.2","0.8","0.1624528765","0.2628391623","0.2337524142","0.2542505169","","","","","","","","","","","","","","75","K","2","","","127","main_expt",""
"","bandit","207","810264","0.0-169.0-0.0","82163900","wem/bandit_party_1","AE05QWB4IQA44","either","4","282","","","","","","","0","0","1","","0.2654356302","0.4","0.6","0.2","0.8","0.1632982916","0.2654356302","0.2198210178","0.2582316027","","","","","","","","","","","","","","74","J","1","","","128","main_expt",""
"","bandit","208","812105","0.0-170.0-0.0","82163900","wem/bandit_party_1","AE05QWB4IQA44","either","4","324","","","","","","","0","0","1","0.2070569149","","0.4","0.6","0.2","0.8","","","","","0.2264598068","0.2070569149","0.2280168395","0.3267566011","","","","","","","","","","74","J","1","","","129","main_expt",""
"","bandit","209","813932","0.0-171.0-0.0","82163900","wem/bandit_party_1","AE05QWB4IQA44","either","4","310","","","","","","","1","0","0","0.2579182239","","0.4","0.6","0.2","0.8","","","","","0.202760285","0.2579182239","0.243895296","0.3323271388","","","","","","","","","","74","J","1","","","130","main_expt",""
"","bandit","210","815769","0.0-172.0-0.0","82163900","wem/bandit_party_1","AE05QWB4IQA44","either","4","320","","","","","","","0","0","1","","0.2329110821","0.4","0.6","0.2","0.8","0.1585094705","0.2329110821","0.2164454501","0.2666668646","","","","","","","","","","","","","","74","J","1","","","131","main_expt",""
"","bandit","211","817569","0.0-173.0-0.0","82163900","wem/bandit_party_1","AE05QWB4IQA44","either","4","291","","","","","","","0","0","1","0.2400232435","","0.4","0.6","0.2","0.8","","","","","0.1304261544","0.2400232435","0.200468731","0.2359119393","","","","","","","","","","74","J","1","","","132","main_expt",""
"","bandit","212","819351","0.0-174.0-0.0","82163900","wem/bandit_party_1","AE05QWB4IQA44","either","4","260","","","","","","","0","0","1","0.2038597077","","0.4","0.6","0.2","0.8","","","","","0.09339990826","0.2084798617","0.2038597077","0.2540740643","","","","","","","","","","75","K","2","","","133","main_expt",""
"","bandit","213","821193","0.0-175.0-0.0","82163900","wem/bandit_party_1","AE05QWB4IQA44","either","4","325","","","","","","","0","0","1","0.08524612959","","0.4","0.6","0.2","0.8","","","","","0.08524612959","0.2034544","0.2263269307","0.2414927735","","","","","","","","","","72","H","0","img/none_selected.jpg","","134","main_expt",""
"","bandit","214","823305","0.0-176.0-0.0","82163900","wem/bandit_party_1","AE05QWB4IQA44","either","4","596","","","","","","","0","0","1","","0.0622033461","0.4","0.6","0.2","0.8","0.0622033461","0.2088958693","0.2686469146","0.2632369982","","","","","","","","","","","","","","72","H","0","img/none_selected.jpg","","135","main_expt",""
"","bandit","215","825323","0.0-177.0-0.0","82163900","wem/bandit_party_1","AE05QWB4IQA44","either","4","501","","","","","","","0","0","1","0.05632890875","","0.4","0.6","0.2","0.8","","","","","0.05632890875","0.2573758916","0.3170393738","0.3032623762","","","","","","","","","","72","H","0","img/none_selected.jpg","","136","main_expt",""
"","bandit","216","827248","0.0-178.0-0.0","82163900","wem/bandit_party_1","AE05QWB4IQA44","either","4","410","","","","","","","1","0","0","0.2984046037","","0.4","0.6","0.2","0.8","","","","","0.06052980877","0.2467438462","0.338962466","0.2984046037","","","","","","","","","","76","L","3","","","137","main_expt",""
"","bandit","217","829034","0.0-179.0-0.0","82163900","wem/bandit_party_1","AE05QWB4IQA44","either","4","268","","","","","","","0","0","1","0.3110629865","","0.4","0.6","0.2","0.8","","","","","0.1038497792","0.2221944767","0.3586643031","0.3110629865","","","","","","","","","","76","L","3","","","138","main_expt",""
"","bandit","218","830825","0.0-180.0-0.0","82163900","wem/bandit_party_1","AE05QWB4IQA44","either","4","275","","","","","","","0","0","1","","0.3048373826","0.4","0.6","0.2","0.8","0.08561062373","0.2750517365","0.3430902759","0.3048373826","","","","","","","","","","","","","","76","L","3","","","139","main_expt",""
"","bandit","219","832649","0.0-181.0-0.0","82163900","wem/bandit_party_1","AE05QWB4IQA44","either","4","306","","","","","","","0","1","0","","0.3163642845","0.4","0.6","0.2","0.8","0.08025295029","0.277474309","0.3777112835","0.3163642845","","","","","","","","","","","","","","76","L","3","","","140","main_expt",""
"","bandit","220","834457","0.0-182.0-0.0","82163900","wem/bandit_party_1","AE05QWB4IQA44","either","4","291","","","","","","","0","0","1","0.2213861514","","0.4","0.6","0.2","0.8","","","","","0.09309891757","0.2932007391","0.4276051364","0.2213861514","","","","","","","","","","76","L","3","","","141","main_expt",""
"","bandit","221","836243","0.0-183.0-0.0","82163900","wem/bandit_party_1","AE05QWB4IQA44","either","4","268","","","","","","","0","0","1","","0.2492613222","0.4","0.6","0.2","0.8","0.1107976638","0.3001807938","0.4312347149","0.2492613222","","","","","","","","","","","","","","76","L","3","","","142","main_expt",""
"","bandit","222","837977","0.0-184.0-0.0","82163900","wem/bandit_party_1","AE05QWB4IQA44","either","4","218","","","","","","","0","0","1","0.2645663874","","0.4","0.6","0.2","0.8","","","","","0.09575525052","0.3640878437","0.386657586","0.2645663874","","","","","","","","","","76","L","3","","","143","main_expt",""
"","bandit","223","839721","0.0-185.0-0.0","82163900","wem/bandit_party_1","AE05QWB4IQA44","either","4","227","","","","","","","0","0","1","0.2928215939","","0.4","0.6","0.2","0.8","","","","","0.07222794989","0.2706796495","0.3409851627","0.2928215939","","","","","","","","","","76","L","3","","","144","main_expt",""
"","bandit","224","841497","0.0-186.0-0.0","82163900","wem/bandit_party_1","AE05QWB4IQA44","either","4","260","","","","","","","1","0","0","0.3178979655","","0.4","0.6","0.2","0.8","","","","","0.03203798906","0.2359726437","0.3538709708","0.3178979655","","","","","","","","","","76","L","3","","","145","main_expt",""
"","bandit","225","843329","0.0-187.0-0.0","82163900","wem/bandit_party_1","AE05QWB4IQA44","either","4","315","","","","","","","0","0","1","","0.2850957273","0.4","0.6","0.2","0.8","0.03073079809","0.2200332621","0.2745956728","0.2850957273","","","","","","","","","","","","","","76","L","3","","","146","main_expt",""
"","bandit","226","845192","0.0-188.0-0.0","82163900","wem/bandit_party_1","AE05QWB4IQA44","either","4","348","","","","","","","0","0","1","0.2483519338","","0.4","0.6","0.2","0.8","","","","","0.05105424151","0.1957794229","0.2375793476","0.2483519338","","","","","","","","","","76","L","3","","","147","main_expt",""
"","bandit","227","847020","0.0-189.0-0.0","82163900","wem/bandit_party_1","AE05QWB4IQA44","either","4","311","","","","","","","0","1","0","","0.2309770791","0.4","0.6","0.2","0.8","0.04045355104","0.1790722045","0.2954602587","0.2309770791","","","","","","","","","","","","","","76","L","3","","","148","main_expt",""
"","bandit","228","849114","0.0-190.0-0.0","82163900","wem/bandit_party_1","AE05QWB4IQA44","either","4","576","","","","","","","0","0","1","0.1759049641","","0.4","0.6","0.2","0.8","","","","","0.06416506337","0.2189150546","0.3435099865","0.1759049641","","","","","","","","","","76","L","3","","","149","main_expt",""
"","bandit","229","851105","0.0-191.0-0.0","82163900","wem/bandit_party_1","AE05QWB4IQA44","either","4","473","","","","","","","0","0","1","","0.268900415","0.4","0.6","0.2","0.8","0.07819388902","0.2119229637","0.268900415","0.1910702346","","","","","","","","","","","","","","75","K","2","","","150","main_expt",""
"","bandit","230","852921","0.0-192.0-0.0","82163900","wem/bandit_party_1","AE05QWB4IQA44","either","4","299","","","","","","","0","1","0","","0.2472398003","0.4","0.6","0.2","0.8","0.1186979887","0.2472398003","0.2326488896","0.1799178466","","","","","","","","","","","","","","74","J","1","","","151","main_expt",""
"","bandit","231","854769","0.0-193.0-0.0","82163900","wem/bandit_party_1","AE05QWB4IQA44","either","4","330","","","","","","","0","0","1","","0.2148428051","0.4","0.6","0.2","0.8","0.1084773402","0.2148428051","0.2768057641","0.1826140084","","","","","","","","","","","","","","74","J","1","","","152","main_expt",""
"","bandit","232","856553","0.0-194.0-0.0","82163900","wem/bandit_party_1","AE05QWB4IQA44","either","4","267","","","","","","","0","0","1","0.1598057249","","0.4","0.6","0.2","0.8","","","","","0.1314289417","0.1598057249","0.2997660112","0.147924298","","","","","","","","","","74","J","1","","","153","main_expt",""
"","bandit","233","858507","0.0-195.0-0.0","82163900","wem/bandit_party_1","AE05QWB4IQA44","either","4","436","","","","","","","0","0","1","0.1489099923","","0.4","0.6","0.2","0.8","","","","","0.1354051011","0.1489099923","0.3196464983","0.1388357139","","","","","","","","","","74","J","1","","","154","main_expt",""
"","bandit","234","860377","0.0-196.0-0.0","82163900","wem/bandit_party_1","AE05QWB4IQA44","either","4","353","","","","","","","0","1","0","","0.1502541116","0.4","0.6","0.2","0.8","0.1085215933","0.1502541116","0.3141654429","0.1658398244","","","","","","","","","","","","","","74","J","1","","","155","main_expt",""
"","bandit","235","862207","0.0-197.0-0.0","82163900","wem/bandit_party_1","AE05QWB4IQA44","either","4","312","","","","","","","0","0","1","0.1383379057","","0.4","0.6","0.2","0.8","","","","","0.1383379057","0.1605084188","0.2667217688","0.1104921729","","","","","","","","","","72","H","0","img/none_selected.jpg","","156","main_expt",""
"","bandit","236","864273","0.0-198.0-0.0","82163900","wem/bandit_party_1","AE05QWB4IQA44","either","4","548","","","","","","","0","0","1","","0.1428990181","0.4","0.6","0.2","0.8","0.1428990181","0.1684101418","0.2867075714","0.09530810267","","","","","","","","","","","","","","72","H","0","img/none_selected.jpg","","157","main_expt",""
"","bandit","237","866066","0.0-199.0-0.0","82163900","wem/bandit_party_1","AE05QWB4IQA44","either","4","273","","","","","","","0","0","1","","0.1807688322","0.4","0.6","0.2","0.8","0.07455979893","0.1807688322","0.2788639118","0.1211627972","","","","","","","","","","","","","","74","J","1","","","158","main_expt",""
"","bandit","238","867873","0.0-200.0-0.0","82163900","wem/bandit_party_1","AE05QWB4IQA44","either","4","290","","","","","","","0","0","1","0.1516426412","","0.4","0.6","0.2","0.8","","","","","0.1009372764","0.1516426412","0.3020710819","0.1012897464","","","","","","","","","","74","J","1","","","159","main_expt",""
"","bandit","239","869416","0.0-201.0-0.0","82163900","wem/bandit_party_1","AE05QWB4IQA44","either","4","27","","","","","","","1","0","0","0.3404227007","","0.4","0.6","0.2","0.8","","","","","0.05118862797","0.1638698877","0.3404227007","0.1188035868","","","","","","","","","","75","K","2","","","160","main_expt",""
"","bandit","240","871353","0.0-202.0-0.0","82163900","wem/bandit_party_1","AE05QWB4IQA44","either","4","419","","","","","","","0","0","1","","0.2876249865","0.4","0.6","0.2","0.8","0.05265847637","0.1645359983","0.2876249865","0.1606836622","","","","","","","","","","","","","","75","K","2","","","161","main_expt",""
"","bandit","241","873337","0.0-203.0-0.0","82163900","wem/bandit_party_1","AE05QWB4IQA44","either","4","465","","","","","","","0","0","1","","0.2401308511","0.4","0.6","0.2","0.8","0.07938684611","0.2509918509","0.2401308511","0.1859884171","","","","","","","","","","","","","","75","K","2","","","162","main_expt",""
"","bandit","242","875266","0.0-204.0-0.0","82163900","wem/bandit_party_1","AE05QWB4IQA44","either","4","411","","","","","","","0","0","1","","0.2486605046","0.4","0.6","0.2","0.8","0.0970900163","0.1883685458","0.2486605046","0.2528258464","","","","","","","","","","","","","","75","K","2","","","163","main_expt",""
"","bandit","243","877017","0.0-205.0-0.0","82163900","wem/bandit_party_1","AE05QWB4IQA44","either","4","233","","","","","","","0","1","0","","0.22675384","0.4","0.6","0.2","0.8","0.07401968201","0.2179532334","0.22675384","0.2515292425","","","","","","","","","","","","","","75","K","2","","","164","main_expt",""
"","bandit","244","878729","0.0-206.0-0.0","82163900","wem/bandit_party_1","AE05QWB4IQA44","either","4","194","","","","","","","0","0","1","","0.2841151948","0.4","0.6","0.2","0.8","0.06633104104","0.2143704678","0.2841151948","0.2068970429","","","","","","","","","","","","","","75","K","2","","","165","main_expt",""
"","bandit","245","880428","0.0-207.0-0.0","82163900","wem/bandit_party_1","AE05QWB4IQA44","either","4","174","","","","","","","0","0","1","0.1413778631","","0.4","0.6","0.2","0.8","","","","","0.05309652092","0.2175899085","0.2842980464","0.1413778631","","","","","","","","","","76","L","3","","","166","main_expt",""
"","bandit","246","882218","0.0-208.0-0.0","82163900","wem/bandit_party_1","AE05QWB4IQA44","either","4","272","","","","","","","0","0","1","","0.1999497975","0.4","0.6","0.2","0.8","0.07357446968","0.2137120923","0.3007590714","0.1999497975","","","","","","","","","","","","","","76","L","3","","","167","main_expt",""
"","bandit","247","883970","0.0-209.0-0.0","82163900","wem/bandit_party_1","AE05QWB4IQA44","either","4","232","","","","","","","1","0","0","0.1696145944","","0.4","0.6","0.2","0.8","","","","","0.1054325378","0.2331560811","0.2884936601","0.1696145944","","","","","","","","","","76","L","3","","","168","main_expt",""
"","bandit","248","885913","0.0-210.0-0.0","82163900","wem/bandit_party_1","AE05QWB4IQA44","either","4","425","","","","","","","0","0","1","0.1338518967","","0.4","0.6","0.2","0.8","","","","","0.08536867429","0.2367963754","0.2803439438","0.1338518967","","","","","","","","","","76","L","3","","","169","main_expt",""
"","bandit","249","887777","0.0-211.0-0.0","82163900","wem/bandit_party_1","AE05QWB4IQA44","either","4","346","","","","","","","0","0","1","0.3010437192","","0.4","0.6","0.2","0.8","","","","","0.1083432756","0.2378050175","0.3010437192","0.1307598277","","","","","","","","","","75","K","2","","","170","main_expt",""
"","bandit","250","889539","0.0-212.0-0.0","82163900","wem/bandit_party_1","AE05QWB4IQA44","either","4","243","","","","","","","0","0","1","0.1200375331","","0.4","0.6","0.2","0.8","","","","","0.09185370626","0.2253696972","0.3243802095","0.1200375331","","","","","","","","","","76","L","3","","","171","main_expt",""
"","bandit","251","891275","0.0-213.0-0.0","82163900","wem/bandit_party_1","AE05QWB4IQA44","either","4","219","","","","","","","0","0","1","","0.3140094691","0.4","0.6","0.2","0.8","0.09458096772","0.2903394368","0.3140094691","0.07514546963","","","","","","","","","","","","","","75","K","2","","","172","main_expt",""
"","bandit","252","893232","0.0-214.0-0.0","82163900","wem/bandit_party_1","AE05QWB4IQA44","either","4","440","","","","","","","0","0","1","0.1016296913","","0.4","0.6","0.2","0.8","","","","","0.1016296913","0.2384828248","0.2433770114","0.07704486673","","","","","","","","","","72","H","0","img/none_selected.jpg","","173","main_expt",""
"","bandit","253","896369","0.0-215.0-0.0","82163900","wem/bandit_party_1","AE05QWB4IQA44","either","4","1614","","","","","","","0","0","1","0.117107939","","0.4","0.6","0.2","0.8","","","","","0.117107939","0.2823111034","0.2080779891","0.04061738922","","","","","","","","","","72","H","0","img/none_selected.jpg","","174","main_expt",""
"","bandit","254","898210","0.0-216.0-0.0","82163900","wem/bandit_party_1","AE05QWB4IQA44","either","4","320","","","","","","","0","0","1","0.1254773658","","0.4","0.6","0.2","0.8","","","","","0.1254773658","0.292147578","0.2211365803","0.02968316822","","","","","","","","","","72","H","0","img/none_selected.jpg","","175","main_expt",""
"","bandit","255","900041","0.0-217.0-0.0","82163900","wem/bandit_party_1","AE05QWB4IQA44","either","4","313","","","","","","","0","0","1","0.1518856622","","0.4","0.6","0.2","0.8","","","","","0.1518856622","0.2928295457","0.231280906","0.04419366322","","","","","","","","","","72","H","0","img/none_selected.jpg","","176","main_expt",""
"","bandit","256","901820","0.0-218.0-0.0","82163900","wem/bandit_party_1","AE05QWB4IQA44","either","4","260","","","","","","","0","0","1","0.297241693","","0.4","0.6","0.2","0.8","","","","","0.1502483312","0.297241693","0.1689881391","0.04140429262","","","","","","","","","","74","J","1","","","177","main_expt",""
"","bandit","257","903609","0.0-219.0-0.0","82163900","wem/bandit_party_1","AE05QWB4IQA44","either","4","268","","","","","","","0","0","1","0.276241128","","0.4","0.6","0.2","0.8","","","","","0.2073149786","0.276241128","0.1699404395","0.06103489621","","","","","","","","","","74","J","1","","","178","main_expt",""
"","bandit","258","905345","0.0-220.0-0.0","82163900","wem/bandit_party_1","AE05QWB4IQA44","either","4","215","","","","","","","0","0","1","","0.2405339857","0.4","0.6","0.2","0.8","0.1928578162","0.2405339857","0.1571972967","0.053608248","","","","","","","","","","","","","","74","J","1","","","179","main_expt",""
"","bandit","259","907033","0.0-221.0-0.0","82163900","wem/bandit_party_1","AE05QWB4IQA44","either","4","169","","","","","","","0","0","1","","0.1567782565","0.4","0.6","0.2","0.8","0.1412953234","0.233428307","0.1567782565","0.06289379635","","","","","","","","","","","","","","75","K","2","","","180","main_expt",""
"","bandit","260","908865","0.0-222.0-0.0","82163900","wem/bandit_party_1","AE05QWB4IQA44","either","4","311","","","","","","","0","0","1","","0.1492691696","0.4","0.6","0.2","0.8","0.1258774719","0.1459310114","0.1492691696","0.07748386732","","","","","","","","","","","","","","75","K","2","","","181","main_expt",""
"","bandit","261","910585","0.0-223.0-0.0","82163900","wem/bandit_party_1","AE05QWB4IQA44","either","4","201","","","","","","","0","0","1","","0.1609613705","0.4","0.6","0.2","0.8","0.1121960069","0.1796360657","0.1609613705","0.096714051","","","","","","","","","","","","","","75","K","2","","","182","main_expt",""
"","bandit","262","912483","0.0-224.0-0.0","82163900","wem/bandit_party_1","AE05QWB4IQA44","either","4","378","","","","","","","0","0","1","","0.05351369794","0.4","0.6","0.2","0.8","0.08335286121","0.1907874973","0.1982891881","0.05351369794","","","","","","","","","","","","","","76","L","3","","","183","main_expt",""
"","bandit","263","914226","0.0-225.0-0.0","82163900","wem/bandit_party_1","AE05QWB4IQA44","either","4","223","","","","","","","0","0","1","0.08854511538","","0.4","0.6","0.2","0.8","","","","","0.1085923678","0.1451627339","0.1703318442","0.08854511538","","","","","","","","","","76","L","3","","","184","main_expt",""
"","bandit","264","916034","0.0-226.0-0.0","82163900","wem/bandit_party_1","AE05QWB4IQA44","either","4","286","","","","","","","0","0","1","0.136385666","","0.4","0.6","0.2","0.8","","","","","0.1113654269","0.1692531577","0.09566746086","0.136385666","","","","","","","","","","76","L","3","","","185","main_expt",""
"","bandit","265","917842","0.0-227.0-0.0","82163900","wem/bandit_party_1","AE05QWB4IQA44","either","4","289","","","","","","","0","0","1","0.1848043888","","0.4","0.6","0.2","0.8","","","","","0.1383531569","0.1885113298","0.1254261761","0.1848043888","","","","","","","","","","76","L","3","","","186","main_expt",""
"","bandit","266","919369","0.0-228.0-0.0","82163900","wem/bandit_party_1","AE05QWB4IQA44","either","4","8","","","","","","","0","0","1","","0.1739713275","0.4","0.6","0.2","0.8","0.1739713275","0.2088125345","0.1081798115","0.1640989128","","","","","","","","","","","","","","72","H","0","img/none_selected.jpg","","187","main_expt",""
"","bandit","267","922193","0.0-229.0-0.0","82163900","wem/bandit_party_1","AE05QWB4IQA44","either","4","1304","","","","","","","0","0","1","","0.1926366302","0.4","0.6","0.2","0.8","0.1926366302","0.2228369986","0.08529062399","0.1301402021","","","","","","","","","","","","","","72","H","0","img/none_selected.jpg","","188","main_expt",""
"","bandit","268","923874","0.0-230.0-0.0","82163900","wem/bandit_party_1","AE05QWB4IQA44","either","4","162","","","","","","","0","0","1","0.2499935398","","0.4","0.6","0.2","0.8","","","","","0.2499935398","0.2567428292","0.07250281893","0.1980942663","","","","","","","","","","72","H","0","img/none_selected.jpg","","189","main_expt",""
"","bandit","269","925649","0.0-231.0-0.0","82163900","wem/bandit_party_1","AE05QWB4IQA44","either","4","266","","","","","","","0","0","1","","0.2367317824","0.4","0.6","0.2","0.8","0.2367317824","0.3177850294","0.07895395147","0.1842725295","","","","","","","","","","","","","","72","H","0","img/none_selected.jpg","","190","main_expt",""
"","bandit","270","927504","0.0-232.0-0.0","82163900","wem/bandit_party_1","AE05QWB4IQA44","either","4","333","","","","","","","0","1","0","","0.2876912335","0.4","0.6","0.2","0.8","0.2515026666","0.2876912335","0.06204701637","0.2087081259","","","","","","","","","","","","","","74","J","1","","","191","main_expt",""
"","bandit","271","929257","0.0-233.0-0.0","82163900","wem/bandit_party_1","AE05QWB4IQA44","either","4","231","","","","","","","0","1","0","","0.2383873749","0.4","0.6","0.2","0.8","0.2451916405","0.2383873749","0.064067899","0.1800110976","","","","","","","","","","","","","","74","J","1","","","192","main_expt",""
"","bandit","272","930905","0.0-234.0-0.0","82163900","wem/bandit_party_1","AE05QWB4IQA44","either","4","128","","","","","","","0","0","1","","0.24690957","0.4","0.6","0.2","0.8","0.2353451433","0.24690957","0.1286650472","0.1519186298","","","","","","","","","","","","","","74","J","1","","","193","main_expt",""
"","bandit","273","932754","0.0-235.0-0.0","82163900","wem/bandit_party_1","AE05QWB4IQA44","either","4","327","","","","","","","0","0","1","0.2728455101","","0.4","0.6","0.2","0.8","","","","","0.307075739","0.2728455101","0.1746490116","0.1431656489","","","","","","","","","","74","J","1","","","194","main_expt",""
"","bandit","274","934630","0.0-236.0-0.0","82163900","wem/bandit_party_1","AE05QWB4IQA44","either","4","355","","","","","","","0","0","1","","0.2421292151","0.4","0.6","0.2","0.8","0.3011001907","0.2421292151","0.129035247","0.1868251083","","","","","","","","","","","","","","74","J","1","","","195","main_expt",""
"","bandit","275","936305","0.0-237.0-0.0","82163900","wem/bandit_party_1","AE05QWB4IQA44","either","4","166","","","","","","","1","0","0","0.2598052724","","0.4","0.6","0.2","0.8","","","","","0.2861216794","0.2598052724","0.09052040682","0.176624335","","","","","","","","","","74","J","1","","","196","main_expt",""
"","bandit","276","938033","0.0-238.0-0.0","82163900","wem/bandit_party_1","AE05QWB4IQA44","either","4","206","","","","","","","1","0","0","0.2540930088","","0.4","0.6","0.2","0.8","","","","","0.2121549007","0.2540930088","0.08675464884","0.2383323772","","","","","","","","","","74","J","1","","","197","main_expt",""
"","bandit","277","939945","0.0-239.0-0.0","82163900","wem/bandit_party_1","AE05QWB4IQA44","either","4","391","","","","","","","0","0","1","0.2460150375","","0.4","0.6","0.2","0.8","","","","","0.260340052","0.2460150375","0.09429549835","0.260618614","","","","","","","","","","74","J","1","","","198","main_expt",""
"","bandit","278","941873","0.0-240.0-0.0","82163900","wem/bandit_party_1","AE05QWB4IQA44","either","4","406","","","","","","","0","0","1","0.2217343644","","0.4","0.6","0.2","0.8","","","","","0.3009562829","0.2217343644","0.09303778716","0.2935067364","","","","","","","","","","74","J","1","","","199","main_expt",""
"","bandit","279","943945","0.0-241.0-0.0","82163900","wem/bandit_party_1","AE05QWB4IQA44","either","4","551","","","","","","","0","0","1","0.2830302048","","0.4","0.6","0.2","0.8","","","","","0.3430896668","0.2830302048","0.07354084322","0.362920627","","","","","","","","","","74","J","1","","","200","main_expt",""
"","bandit","280","945795","0.0-242.0-0.0","82163900","wem/bandit_party_1","AE05QWB4IQA44","either","4","329","","","","","","","1","0","0","0.3175621279","","0.4","0.6","0.2","0.8","","","","","0.2973668079","0.3175621279","0.08115367452","0.3119044903","","","","","","","","","","74","J","1","","","201","main_expt",""
"","bandit","281","947697","0.0-243.0-0.0","82163900","wem/bandit_party_1","AE05QWB4IQA44","either","4","379","","","","","","","0","1","0","","0.3049471546","0.4","0.6","0.2","0.8","0.3219337599","0.3049471546","0.0774842685","0.3095695708","","","","","","","","","","","","","","74","J","1","","","202","main_expt",""
"","bandit","282","949657","0.0-244.0-0.0","82163900","wem/bandit_party_1","AE05QWB4IQA44","either","4","434","","","","","","","0","0","1","0.2975042969","","0.4","0.6","0.2","0.8","","","","","0.3229991028","0.2975042969","0.09704724367","0.3005459379","","","","","","","","","","74","J","1","","","203","main_expt",""
"","bandit","283","951602","0.0-245.0-0.0","82163900","wem/bandit_party_1","AE05QWB4IQA44","either","4","418","","","","","","","0","0","1","","0.2268457719","0.4","0.6","0.2","0.8","0.3077995671","0.2268457719","0.1224111047","0.3116824409","","","","","","","","","","","","","","74","J","1","","","204","main_expt",""
"","bandit","284","953530","0.0-246.0-0.0","82163900","wem/bandit_party_1","AE05QWB4IQA44","either","4","405","","","","","","","0","0","1","0.2582085449","","0.4","0.6","0.2","0.8","","","","","0.3070199156","0.2582085449","0.1627664319","0.3291635812","","","","","","","","","","74","J","1","","","205","main_expt",""
"","bandit","285","955449","0.0-247.0-0.0","82163900","wem/bandit_party_1","AE05QWB4IQA44","either","4","398","","","","","","","0","1","0","","0.2841247045","0.4","0.6","0.2","0.8","0.3109683939","0.2841247045","0.1604236747","0.4008790519","","","","","","","","","","","","","","74","J","1","","","206","main_expt",""
"","bandit","286","957428","0.0-248.0-0.0","82163900","wem/bandit_party_1","AE05QWB4IQA44","either","4","457","","","","","","","0","0","1","0.3333225396","","0.4","0.6","0.2","0.8","","","","","0.2845075958","0.3333225396","0.126388554","0.4202180382","","","","","","","","","","74","J","1","","","207","main_expt",""
"","bandit","287","959409","0.0-249.0-0.0","82163900","wem/bandit_party_1","AE05QWB4IQA44","either","4","459","","","","","","","1","0","0","0.290219871","","0.4","0.6","0.2","0.8","","","","","0.2419557814","0.290219871","0.1602309633","0.4168586074","","","","","","","","","","74","J","1","","","208","main_expt",""
"","bandit","288","961225","0.0-250.0-0.0","82163900","wem/bandit_party_1","AE05QWB4IQA44","either","4","293","","","","","","","0","1","0","","0.3426384504","0.4","0.6","0.2","0.8","0.2449545816","0.3426384504","0.2009997365","0.3949328033","","","","","","","","","","","","","","74","J","1","","","209","main_expt",""
"","bandit","289","962809","0.0-251.0-0.0","82163900","wem/bandit_party_1","AE05QWB4IQA44","either","4","63","","","","","","","0","0","1","","0.2932754766","0.4","0.6","0.2","0.8","0.2176860071","0.2932754766","0.1997114924","0.41782505","","","","","","","","","","","","","","74","J","1","","","210","main_expt",""
"","bandit","290","964753","0.0-252.0-0.0","82163900","wem/bandit_party_1","AE05QWB4IQA44","either","4","421","","","","","","","0","0","1","0.2522206247","","0.4","0.6","0.2","0.8","","","","","0.2460847292","0.2522206247","0.2631807131","0.4377941382","","","","","","","","","","74","J","1","","","211","main_expt",""
"","bandit","291","966570","0.0-253.0-0.0","82163900","wem/bandit_party_1","AE05QWB4IQA44","either","4","295","","","","","","","0","0","1","0.2323705111","","0.4","0.6","0.2","0.8","","","","","0.2017704833","0.2323705111","0.2008991105","0.4619006446","","","","","","","","","","74","J","1","","","212","main_expt",""
"","bandit","292","968356","0.0-254.0-0.0","82163900","wem/bandit_party_1","AE05QWB4IQA44","either","4","263","","","","","","","0","0","1","0.2815580385","","0.4","0.6","0.2","0.8","","","","","0.1891715169","0.2815580385","0.1656487101","0.4508737721","","","","","","","","","","74","J","1","","","213","main_expt",""
"","bandit","293","970153","0.0-255.0-0.0","82163900","wem/bandit_party_1","AE05QWB4IQA44","either","4","275","","","","","","","0","0","1","","0.213788386","0.4","0.6","0.2","0.8","0.1819308411","0.2955812139","0.213788386","0.4639731149","","","","","","","","","","","","","","75","K","2","","","214","main_expt",""
"","bandit","294","972026","0.0-256.0-0.0","82163900","wem/bandit_party_1","AE05QWB4IQA44","either","4","352","","","","","","","0","0","1","","0.2206736926","0.4","0.6","0.2","0.8","0.1406935411","0.2988647484","0.2206736926","0.4690757113","","","","","","","","","","","","","","75","K","2","","","215","main_expt",""
"","bandit","295","973945","0.0-257.0-0.0","82163900","wem/bandit_party_1","AE05QWB4IQA44","either","4","398","","","","","","","0","0","1","","0.2270120675","0.4","0.6","0.2","0.8","0.206739756","0.3361974059","0.2270120675","0.4685680314","","","","","","","","","","","","","","75","K","2","","","216","main_expt",""
"","bandit","296","976001","0.0-258.0-0.0","82163900","wem/bandit_party_1","AE05QWB4IQA44","either","4","535","","","","","","","0","0","1","","0.178624692","0.4","0.6","0.2","0.8","0.178624692","0.2764506131","0.2561581829","0.4873952874","","","","","","","","","","","","","","72","H","0","img/none_selected.jpg","","217","main_expt",""
"","bandit","297","977928","0.0-259.0-0.0","82163900","wem/bandit_party_1","AE05QWB4IQA44","either","4","407","","","","","","","0","0","1","","0.2021641755","0.4","0.6","0.2","0.8","0.2021641755","0.299893698","0.2785758431","0.4790671899","","","","","","","","","","","","","","72","H","0","img/none_selected.jpg","","218","main_expt",""
"","bandit","298","979771","0.0-260.0-0.0","82163900","wem/bandit_party_1","AE05QWB4IQA44","either","4","321","","","","","","","0","0","1","","0.2076996705","0.4","0.6","0.2","0.8","0.2076996705","0.3213687962","0.2707863597","0.4769795117","","","","","","","","","","","","","","72","H","0","img/none_selected.jpg","","219","main_expt",""
"","bandit","299","981552","0.0-261.0-0.0","82163900","wem/bandit_party_1","AE05QWB4IQA44","either","4","261","","","","","","","1","0","0","0.4746148145","","0.4","0.6","0.2","0.8","","","","","0.2479045362","0.3782095139","0.2262269101","0.4746148145","","","","","","","","","","76","L","3","","","220","main_expt",""
"","bandit","300","983417","0.0-262.0-0.0","82163900","wem/bandit_party_1","AE05QWB4IQA44","either","4","342","","","","","","","0","0","1","","0.4789253058","0.4","0.6","0.2","0.8","0.251163546","0.3572699546","0.2522421151","0.4789253058","","","","","","","","","","","","","","76","L","3","","","221","main_expt",""
"","bandit","301","985274","0.0-263.0-0.0","82163900","wem/bandit_party_1","AE05QWB4IQA44","either","4","335","","","","","","","0","0","1","0.4765400837","","0.4","0.6","0.2","0.8","","","","","0.2653622565","0.332217079","0.2323100388","0.4765400837","","","","","","","","","","76","L","3","","","222","main_expt",""
"","bandit","302","987010","0.0-264.0-0.0","82163900","wem/bandit_party_1","AE05QWB4IQA44","either","4","214","","","","","","","1","0","0","0.4872993944","","0.4","0.6","0.2","0.8","","","","","0.2034578964","0.3327789551","0.2013525365","0.4872993944","","","","","","","","","","76","L","3","","","223","main_expt",""
"","bandit","303","988801","0.0-265.0-0.0","82163900","wem/bandit_party_1","AE05QWB4IQA44","either","4","269","","","","","","","0","0","1","","0.4864577786","0.4","0.6","0.2","0.8","0.1176985371","0.3720138676","0.2017363432","0.4864577786","","","","","","","","","","","","","","76","L","3","","","224","main_expt",""
"","bandit","304","990917","0.0-266.0-0.0","82163900","wem/bandit_party_1","AE05QWB4IQA44","either","4","593","","","","","","","0","0","1","0.4815865163","","0.4","0.6","0.2","0.8","","","","","0.08531446518","0.4035982493","0.1608447522","0.4815865163","","","","","","","","","","76","L","3","","","225","main_expt",""
"","bandit","305","992793","0.0-267.0-0.0","82163900","wem/bandit_party_1","AE05QWB4IQA44","either","4","354","","","","","","","0","0","1","0.4781941344","","0.4","0.6","0.2","0.8","","","","","0.0901010045","0.3538577565","0.2023183299","0.4781941344","","","","","","","","","","76","L","3","","","226","main_expt",""
"","bandit","306","994681","0.0-268.0-0.0","82163900","wem/bandit_party_1","AE05QWB4IQA44","either","4","366","","","","","","","1","0","0","0.4742279627","","0.4","0.6","0.2","0.8","","","","","0.06499555022","0.4205879778","0.1555458008","0.4742279627","","","","","","","","","","76","L","3","","","227","main_expt",""
"","bandit","307","996529","0.0-269.0-0.0","82163900","wem/bandit_party_1","AE05QWB4IQA44","either","4","325","","","","","","","0","0","1","0.4597327255","","0.4","0.6","0.2","0.8","","","","","0.06967502077","0.4082381823","0.1210896773","0.4597327255","","","","","","","","","","76","L","3","","","228","main_expt",""
"","bandit","308","998233","0.0-270.0-0.0","82163900","wem/bandit_party_1","AE05QWB4IQA44","either","4","179","","","","","","","0","1","0","","0.4733003713","0.4","0.6","0.2","0.8","0.07642173418","0.4274963613","0.1206830913","0.4733003713","","","","","","","","","","","","","","76","L","3","","","229","main_expt",""
"","bandit","309","1000121","0.0-271.0-0.0","82163900","wem/bandit_party_1","AE05QWB4IQA44","either","4","364","","","","","","","0","0","1","0.4832022084","","0.4","0.6","0.2","0.8","","","","","0.04973788902","0.4362488765","0.1334008039","0.4832022084","","","","","","","","","","76","L","3","","","230","main_expt",""
"","bandit","310","1001848","0.0-272.0-0.0","82163900","wem/bandit_party_1","AE05QWB4IQA44","either","4","217","","","","","","","1","0","0","0.4802630573","","0.4","0.6","0.2","0.8","","","","","0.07419495466","0.4420629534","0.1048467088","0.4802630573","","","","","","","","","","76","L","3","","","231","main_expt",""
"","bandit","311","1003689","0.0-273.0-0.0","82163900","wem/bandit_party_1","AE05QWB4IQA44","either","4","316","","","","","","","0","1","0","","0.4739318499","0.4","0.6","0.2","0.8","0.08125260149","0.4287414635","0.1184002818","0.4739318499","","","","","","","","","","","","","","76","L","3","","","232","main_expt",""
"","bandit","312","1005466","0.0-274.0-0.0","82163900","wem/bandit_party_1","AE05QWB4IQA44","either","4","254","","","","","","","0","0","1","0.4709765286","","0.4","0.6","0.2","0.8","","","","","0.06057073796","0.4395511981","0.08533064469","0.4709765286","","","","","","","","","","76","L","3","","","233","main_expt",""
"","bandit","313","1007313","0.0-275.0-0.0","82163900","wem/bandit_party_1","AE05QWB4IQA44","either","4","326","","","","","","","1","0","0","0.4658145356","","0.4","0.6","0.2","0.8","","","","","0.1037411708","0.4479240545","0.1190123434","0.4658145356","","","","","","","","","","76","L","3","","","234","main_expt",""
"","bandit","314","1008913","0.0-276.0-0.0","82163900","wem/bandit_party_1","AE05QWB4IQA44","either","4","78","","","","","","","0","0","1","0.4312508187","","0.4","0.6","0.2","0.8","","","","","0.1267441937","0.4476644646","0.1392024459","0.4312508187","","","","","","","","","","76","L","3","","","235","main_expt",""
"","bandit","315","1010729","0.0-277.0-0.0","82163900","wem/bandit_party_1","AE05QWB4IQA44","either","4","294","","","","","","","1","0","0","0.4323277229","","0.4","0.6","0.2","0.8","","","","","0.1002206095","0.457106966","0.1076242464","0.4323277229","","","","","","","","","","76","L","3","","","236","main_expt",""
"","bandit","316","1012603","0.0-278.0-0.0","82163900","wem/bandit_party_1","AE05QWB4IQA44","either","4","352","","","","","","","1","0","0","0.4517679415","","0.4","0.6","0.2","0.8","","","","","0.08353940566","0.4097288684","0.1539911713","0.4517679415","","","","","","","","","","76","L","3","","","237","main_expt",""
"","bandit","317","1014473","0.0-279.0-0.0","82163900","wem/bandit_party_1","AE05QWB4IQA44","either","4","348","","","","","","","0","0","1","0.4476427196","","0.4","0.6","0.2","0.8","","","","","0.07847158511","0.4530646831","0.1833253983","0.4476427196","","","","","","","","","","76","L","3","","","238","main_expt",""
