"consent","trial_type","trial_index","time_elapsed","internal_node_id","subjID","study","MID","cond","drift","rt","responses","button_pressed","key_press","like","value","connected","gems","bombs","no_reward","GemPrChosen","BombPrChosen","GainOverPainPr_0","GainOverPainPr_1","GainOverPainPr_2","GainOverPainPr_3","LosePr_0","LosePr_1","LosePr_2","LosePr_3","WinPr_0","WinPr_1","WinPr_2","WinPr_3","Q0","Q1","Q2","gender","age","ethnicity","label","expt_phase","target","respCharCode","respKey","respChoiceNum","respChoice","practice","trial_counter","trial_label","Q0_index"
"GDM/GDM_behavioral_consent_30min_online.html","consent","0","7083","0.0-0.0","82364786","wem/bandit_party_1","A4IH4CO046EV3","either","8","","","","","","","","","","","","","","","","","","","","","","","","","","","","","","","","","","","","","","","","",""
"","survey-text","1","9894","0.0-1.0","82364786","wem/bandit_party_1","A4IH4CO046EV3","either","8","1806","{""Q0"":""A4IH4CO046EV3""}","","","","","","","","","","","","","","","","","","","","","","","","","","","","","","","","","","","","","","",""
"","button-response","2","12903","0.0-2.0","82364786","wem/bandit_party_1","A4IH4CO046EV3","either","8","2005","","1","","","","","","","","","","","","","","","","","","","","","","","","","","","","","","","","","","","","","",""
"","text-replacement","3","23185","0.0-3.0","82364786","wem/bandit_party_1","A4IH4CO046EV3","either","8","9278","","","32","","","","","","","","","","","","","","","","","","","","","","","","","","","","","","","","","","","","",""
"","text-replacement","4","27480","0.0-4.0","82364786","wem/bandit_party_1","A4IH4CO046EV3","either","8","4294","","","32","","","","","","","","","","","","","","","","","","","","","","","","","","","","","","","","","","","","",""
"","identification","5","33606","0.0-6.0-0.0","82364786","wem/bandit_party_1","A4IH4CO046EV3","either","8","6117","","","","0","4","0","","","","","","","","","","","","","","","","","","","","","","","","pre","identification_pre","the Republican party","","","","","","","",""
"","identification","6","39919","0.0-6.0-1.0","82364786","wem/bandit_party_1","A4IH4CO046EV3","either","8","5304","","","","3","5","3","","","","","","","","","","","","","","","","","","","","","","","","pre","identification_pre","the Democratic Party","","","","","","","",""
"","text-replacement","7","46036","0.0-7.0","82364786","wem/bandit_party_1","A4IH4CO046EV3","either","8","5115","","","32","","","","","","","","","","","","","","","","","","","","","","","","","","","","","","","","","","","","",""
"","text-replacement","8","48632","0.0-8.0","82364786","wem/bandit_party_1","A4IH4CO046EV3","either","8","2594","","","32","","","","","","","","","","","","","","","","","","","","","","","","","","","","","","","","","","","","",""
"","text-replacement","9","53482","0.0-9.0","82364786","wem/bandit_party_1","A4IH4CO046EV3","either","8","4849","","","32","","","","","","","","","","","","","","","","","","","","","","","","","","","","","","","","","","","","",""
"","text-replacement","10","55688","0.0-10.0","82364786","wem/bandit_party_1","A4IH4CO046EV3","either","8","2205","","","32","","","","","","","","","","","","","","","","","","","","","","","","","","","","","","","","","","","","",""
"","text-replacement","11","59091","0.0-11.0","82364786","wem/bandit_party_1","A4IH4CO046EV3","either","8","3401","","","32","","","","","","","","","","","","","","","","","","","","","","","","","","","","","","","","","","","","",""
"","bandit","12","64834","0.0-12.0-0.0","82364786","wem/bandit_party_1","A4IH4CO046EV3","either","8","4236","","","","","","","0","0","1","0","0","","","","","0","","","","0","","","","","","","","","","","","","74","J","0","img/none_selected_demo.jpg","true","0","",""
"","bandit","13","66918","0.0-13.0-0.0","82364786","wem/bandit_party_1","A4IH4CO046EV3","either","8","580","","","","","","","0","0","1","0","0","","","","","0","","","","0","","","","","","","","","","","","","75","K","0","img/none_selected_demo.jpg","true","0","",""
"","text-replacement","14","72530","0.0-14.0","82364786","wem/bandit_party_1","A4IH4CO046EV3","either","8","5611","","","32","","","","","","","","","","","","","","","","","","","","","","","","","","","","","","","","","","","","",""
"","text-replacement","15","75087","0.0-15.0","82364786","wem/bandit_party_1","A4IH4CO046EV3","either","8","2555","","","32","","","","","","","","","","","","","","","","","","","","","","","","","","","","","","","","","","","","",""
"","text-replacement","16","88049","0.0-16.0","82364786","wem/bandit_party_1","A4IH4CO046EV3","either","8","12961","","","32","","","","","","","","","","","","","","","","","","","","","","","","","","","","","","","","","","","","",""
"","text-replacement","17","90433","0.0-17.0","82364786","wem/bandit_party_1","A4IH4CO046EV3","either","8","2384","","","32","","","","","","","","","","","","","","","","","","","","","","","","","","","","","","","","","","","","",""
"","bandit","18","92748","0.0-18.0-0.0","82364786","wem/bandit_party_1","A4IH4CO046EV3","either","8","812","","","","","","","1","0","0","0.8","","0.5","0.5","","","","","","","0.8","0.2","","","","","","","","","","","","74","J","0","img/none_selected_demo.jpg","true","0","80_20_practice",""
"","bandit","19","94344","0.0-18.0-1.0","82364786","wem/bandit_party_1","A4IH4CO046EV3","either","8","93","","","","","","","0","0","1","","0.2","0.5","0.5","","","0.8","0.2","","","","","","","","","","","","","","","","75","K","1","","true","0","80_20_practice",""
"","bandit","20","96111","0.0-18.0-2.0","82364786","wem/bandit_party_1","A4IH4CO046EV3","either","8","265","","","","","","","0","0","1","0.8","","0.5","0.5","","","","","","","0.8","0.2","","","","","","","","","","","","74","J","0","img/none_selected_demo.jpg","true","0","80_20_practice",""
"","bandit","21","97862","0.0-18.0-3.0","82364786","wem/bandit_party_1","A4IH4CO046EV3","either","8","248","","","","","","","0","1","0","","0.2","0.5","0.5","","","0.8","0.2","","","","","","","","","","","","","","","","75","K","1","","true","0","80_20_practice",""
"","bandit","22","99548","0.0-18.0-4.0","82364786","wem/bandit_party_1","A4IH4CO046EV3","either","8","183","","","","","","","0","0","1","0.2","","0.5","0.5","","","","","","","0.8","0.2","","","","","","","","","","","","75","K","1","","true","0","80_20_practice",""
"","bandit","23","101274","0.0-18.0-5.0","82364786","wem/bandit_party_1","A4IH4CO046EV3","either","8","222","","","","","","","0","1","0","","0.2","0.5","0.5","","","0.8","0.2","","","","","","","","","","","","","","","","75","K","1","","true","0","80_20_practice",""
"","bandit","24","103076","0.0-18.0-6.0","82364786","wem/bandit_party_1","A4IH4CO046EV3","either","8","297","","","","","","","0","0","1","0.2","","0.5","0.5","","","","","","","0.8","0.2","","","","","","","","","","","","75","K","1","","true","0","80_20_practice",""
"","bandit","25","104803","0.0-18.0-7.0","82364786","wem/bandit_party_1","A4IH4CO046EV3","either","8","223","","","","","","","0","0","1","0.2","","0.5","0.5","","","","","","","0.8","0.2","","","","","","","","","","","","75","K","1","","true","0","80_20_practice",""
"","bandit","26","106493","0.0-18.0-8.0","82364786","wem/bandit_party_1","A4IH4CO046EV3","either","8","185","","","","","","","0","1","0","","0.8","0.5","0.5","","","0.8","0.2","","","","","","","","","","","","","","","","74","J","0","img/none_selected_demo.jpg","true","0","80_20_practice",""
"","bandit","27","108281","0.0-18.0-9.0","82364786","wem/bandit_party_1","A4IH4CO046EV3","either","8","284","","","","","","","0","0","1","","0.8","0.5","0.5","","","0.8","0.2","","","","","","","","","","","","","","","","74","J","0","img/none_selected_demo.jpg","true","0","80_20_practice",""
"","bandit","28","109991","0.0-18.0-10.0","82364786","wem/bandit_party_1","A4IH4CO046EV3","either","8","205","","","","","","","1","0","0","0.8","","0.5","0.5","","","","","","","0.8","0.2","","","","","","","","","","","","74","J","0","img/none_selected_demo.jpg","true","0","80_20_practice",""
"","bandit","29","111815","0.0-18.0-11.0","82364786","wem/bandit_party_1","A4IH4CO046EV3","either","8","320","","","","","","","0","0","1","0.8","","0.5","0.5","","","","","","","0.8","0.2","","","","","","","","","","","","74","J","0","img/none_selected_demo.jpg","true","0","80_20_practice",""
"","bandit","30","113528","0.0-18.0-12.0","82364786","wem/bandit_party_1","A4IH4CO046EV3","either","8","208","","","","","","","0","0","1","","0.2","0.5","0.5","","","0.8","0.2","","","","","","","","","","","","","","","","75","K","1","","true","0","80_20_practice",""
"","bandit","31","115124","0.0-18.0-13.0","82364786","wem/bandit_party_1","A4IH4CO046EV3","either","8","93","","","","","","","0","1","0","","0.2","0.5","0.5","","","0.8","0.2","","","","","","","","","","","","","","","","75","K","1","","true","0","80_20_practice",""
"","bandit","32","116731","0.0-18.0-14.0","82364786","wem/bandit_party_1","A4IH4CO046EV3","either","8","102","","","","","","","0","0","1","0.2","","0.5","0.5","","","","","","","0.8","0.2","","","","","","","","","","","","75","K","1","","true","0","80_20_practice",""
"","bandit","33","118326","0.0-18.0-15.0","82364786","wem/bandit_party_1","A4IH4CO046EV3","either","8","92","","","","","","","0","0","1","","0.2","0.5","0.5","","","0.8","0.2","","","","","","","","","","","","","","","","75","K","1","","true","0","80_20_practice",""
"","bandit","34","119974","0.0-18.0-16.0","82364786","wem/bandit_party_1","A4IH4CO046EV3","either","8","141","","","","","","","1","0","0","0.2","","0.5","0.5","","","","","","","0.8","0.2","","","","","","","","","","","","75","K","1","","true","0","80_20_practice",""
"","bandit","35","121623","0.0-18.0-17.0","82364786","wem/bandit_party_1","A4IH4CO046EV3","either","8","143","","","","","","","1","0","0","0.2","","0.5","0.5","","","","","","","0.8","0.2","","","","","","","","","","","","75","K","1","","true","0","80_20_practice",""
"","bandit","36","123281","0.0-18.0-18.0","82364786","wem/bandit_party_1","A4IH4CO046EV3","either","8","153","","","","","","","0","0","1","","0.2","0.5","0.5","","","0.8","0.2","","","","","","","","","","","","","","","","75","K","1","","true","0","80_20_practice",""
"","bandit","37","124906","0.0-18.0-19.0","82364786","wem/bandit_party_1","A4IH4CO046EV3","either","8","120","","","","","","","0","0","1","","0.2","0.5","0.5","","","0.8","0.2","","","","","","","","","","","","","","","","75","K","1","","true","0","80_20_practice",""
"","text-replacement","38","131170","0.0-19.0","82364786","wem/bandit_party_1","A4IH4CO046EV3","either","8","6264","","","32","","","","","","","","","","","","","","","","","","","","","","","","","","","","","","","","","","","","",""
"","bandit","39","133820","0.0-20.0-0.0","82364786","wem/bandit_party_1","A4IH4CO046EV3","either","8","1145","","","","","","","0","1","0","0","1","","","","","0","1","","","1","0","","","","","","","","","","","","75","K","1","","true","0","",""
"","text-replacement","40","134110","0.0-21.0","82364786","wem/bandit_party_1","A4IH4CO046EV3","either","8","289","","","32","","","","","","","","","","","","","","","","","","","","","","","","","","","","","","","","","","","","",""
"","text-replacement","41","135625","0.0-22.0","82364786","wem/bandit_party_1","A4IH4CO046EV3","either","8","1514","","","32","","","","","","","","","","","","","","","","","","","","","","","","","","","","","","","","","","","","",""
"","text-replacement","42","136674","0.0-23.0","82364786","wem/bandit_party_1","A4IH4CO046EV3","either","8","1047","","","32","","","","","","","","","","","","","","","","","","","","","","","","","","","","","","","","","","","","",""
"","text-replacement","43","138495","0.0-24.0","82364786","wem/bandit_party_1","A4IH4CO046EV3","either","8","1820","","","32","","","","","","","","","","","","","","","","","","","","","","","","","","","","","","","","","","","","",""
"","text-replacement","44","140112","0.0-25.0","82364786","wem/bandit_party_1","A4IH4CO046EV3","either","8","1616","","","32","","","","","","","","","","","","","","","","","","","","","","","","","","","","","","","","","","","","",""
"","text-replacement","45","140866","0.0-26.0","82364786","wem/bandit_party_1","A4IH4CO046EV3","either","8","752","","","32","","","","","","","","","","","","","","","","","","","","","","","","","","","","","","","","","","","","",""
"","text-replacement","46","143223","0.0-27.0","82364786","wem/bandit_party_1","A4IH4CO046EV3","either","8","2357","","","32","","","","","","","","","","","","","","","","","","","","","","","","","","","","","","","","","","","","",""
"","text-replacement","47","145269","0.0-28.0","82364786","wem/bandit_party_1","A4IH4CO046EV3","either","8","2044","","","32","","","","","","","","","","","","","","","","","","","","","","","","","","","","","","","","","","","","",""
"","text-replacement","48","146489","0.0-29.0","82364786","wem/bandit_party_1","A4IH4CO046EV3","either","8","1218","","","32","","","","","","","","","","","","","","","","","","","","","","","","","","","","","","","","","","","","",""
"","text-replacement","49","147677","0.0-30.0","82364786","wem/bandit_party_1","A4IH4CO046EV3","either","8","1186","","","32","","","","","","","","","","","","","","","","","","","","","","","","","","","","","","","","","","","","",""
"","text-replacement","50","149862","0.0-31.0","82364786","wem/bandit_party_1","A4IH4CO046EV3","either","8","2184","","","32","","","","","","","","","","","","","","","","","","","","","","","","","","","","","","","","","","","","",""
"","bandit","51","151832","0.0-32.0-0.0","82364786","wem/bandit_party_1","A4IH4CO046EV3","either","8","466","","","","","","","0","1","0","","0.8","0.5","0.5","0.5","0.5","0.8","0.2","0.6","0.2","","","","","","","","","","","","","","72","H","0","img/none_selected.jpg","true","0","full_practice",""
"","bandit","52","153512","0.0-32.0-1.0","82364786","wem/bandit_party_1","A4IH4CO046EV3","either","8","176","","","","","","","0","1","0","","0.8","0.5","0.5","0.5","0.5","0.8","0.2","0.6","0.2","","","","","","","","","","","","","","72","H","0","img/none_selected.jpg","true","0","full_practice",""
"","bandit","53","155287","0.0-32.0-2.0","82364786","wem/bandit_party_1","A4IH4CO046EV3","either","8","270","","","","","","","0","0","1","","0.8","0.5","0.5","0.5","0.5","0.8","0.2","0.6","0.2","","","","","","","","","","","","","","72","H","0","img/none_selected.jpg","true","0","full_practice",""
"","bandit","54","157041","0.0-32.0-3.0","82364786","wem/bandit_party_1","A4IH4CO046EV3","either","8","249","","","","","","","1","0","0","0.8","","0.5","0.5","0.5","0.5","","","","","0.8","0.2","0.6","0.2","","","","","","","","","","72","H","0","img/none_selected.jpg","true","0","full_practice",""
"","bandit","55","158820","0.0-32.0-4.0","82364786","wem/bandit_party_1","A4IH4CO046EV3","either","8","275","","","","","","","0","0","1","","0.8","0.5","0.5","0.5","0.5","0.8","0.2","0.6","0.2","","","","","","","","","","","","","","72","H","0","img/none_selected.jpg","true","0","full_practice",""
"","bandit","56","160498","0.0-32.0-5.0","82364786","wem/bandit_party_1","A4IH4CO046EV3","either","8","174","","","","","","","0","1","0","","0.8","0.5","0.5","0.5","0.5","0.8","0.2","0.6","0.2","","","","","","","","","","","","","","72","H","0","img/none_selected.jpg","true","0","full_practice",""
"","bandit","57","162207","0.0-32.0-6.0","82364786","wem/bandit_party_1","A4IH4CO046EV3","either","8","205","","","","","","","0","1","0","","0.8","0.5","0.5","0.5","0.5","0.8","0.2","0.6","0.2","","","","","","","","","","","","","","72","H","0","img/none_selected.jpg","true","0","full_practice",""
"","bandit","58","163914","0.0-32.0-7.0","82364786","wem/bandit_party_1","A4IH4CO046EV3","either","8","204","","","","","","","0","1","0","","0.8","0.5","0.5","0.5","0.5","0.8","0.2","0.6","0.2","","","","","","","","","","","","","","72","H","0","img/none_selected.jpg","true","0","full_practice",""
"","bandit","59","165641","0.0-32.0-8.0","82364786","wem/bandit_party_1","A4IH4CO046EV3","either","8","222","","","","","","","1","0","0","0.8","","0.5","0.5","0.5","0.5","","","","","0.8","0.2","0.6","0.2","","","","","","","","","","72","H","0","img/none_selected.jpg","true","0","full_practice",""
"","bandit","60","167220","0.0-32.0-9.0","82364786","wem/bandit_party_1","A4IH4CO046EV3","either","8","75","","","","","","","1","0","0","0.8","","0.5","0.5","0.5","0.5","","","","","0.8","0.2","0.6","0.2","","","","","","","","","","72","H","0","img/none_selected.jpg","true","0","full_practice",""
"","bandit","61","168969","0.0-32.0-10.0","82364786","wem/bandit_party_1","A4IH4CO046EV3","either","8","244","","","","","","","1","0","0","0.8","","0.5","0.5","0.5","0.5","","","","","0.8","0.2","0.6","0.2","","","","","","","","","","72","H","0","img/none_selected.jpg","true","0","full_practice",""
"","bandit","62","170574","0.0-32.0-11.0","82364786","wem/bandit_party_1","A4IH4CO046EV3","either","8","99","","","","","","","0","1","0","","0.8","0.5","0.5","0.5","0.5","0.8","0.2","0.6","0.2","","","","","","","","","","","","","","72","H","0","img/none_selected.jpg","true","0","full_practice",""
"","bandit","63","172231","0.0-32.0-12.0","82364786","wem/bandit_party_1","A4IH4CO046EV3","either","8","152","","","","","","","1","0","0","0.8","","0.5","0.5","0.5","0.5","","","","","0.8","0.2","0.6","0.2","","","","","","","","","","72","H","0","img/none_selected.jpg","true","0","full_practice",""
"","bandit","64","173909","0.0-32.0-13.0","82364786","wem/bandit_party_1","A4IH4CO046EV3","either","8","174","","","","","","","0","1","0","","0.8","0.5","0.5","0.5","0.5","0.8","0.2","0.6","0.2","","","","","","","","","","","","","","72","H","0","img/none_selected.jpg","true","0","full_practice",""
"","bandit","65","175525","0.0-32.0-14.0","82364786","wem/bandit_party_1","A4IH4CO046EV3","either","8","111","","","","","","","0","1","0","","0.8","0.5","0.5","0.5","0.5","0.8","0.2","0.6","0.2","","","","","","","","","","","","","","72","H","0","img/none_selected.jpg","true","0","full_practice",""
"","bandit","66","177202","0.0-32.0-15.0","82364786","wem/bandit_party_1","A4IH4CO046EV3","either","8","171","","","","","","","0","1","0","","0.8","0.5","0.5","0.5","0.5","0.8","0.2","0.6","0.2","","","","","","","","","","","","","","72","H","0","img/none_selected.jpg","true","0","full_practice",""
"","bandit","67","178749","0.0-32.0-16.0","82364786","wem/bandit_party_1","A4IH4CO046EV3","either","8","43","","","","","","","0","1","0","","0.8","0.5","0.5","0.5","0.5","0.8","0.2","0.6","0.2","","","","","","","","","","","","","","72","H","0","img/none_selected.jpg","true","0","full_practice",""
"","bandit","68","180286","0.0-32.0-17.0","82364786","wem/bandit_party_1","A4IH4CO046EV3","either","8","32","","","","","","","1","0","0","0.8","","0.5","0.5","0.5","0.5","","","","","0.8","0.2","0.6","0.2","","","","","","","","","","72","H","0","img/none_selected.jpg","true","0","full_practice",""
"","bandit","69","182188","0.0-32.0-18.0","82364786","wem/bandit_party_1","A4IH4CO046EV3","either","8","396","","","","","","","0","0","1","0.8","","0.5","0.5","0.5","0.5","","","","","0.8","0.2","0.6","0.2","","","","","","","","","","72","H","0","img/none_selected.jpg","true","0","full_practice",""
"","bandit","70","183743","0.0-32.0-19.0","82364786","wem/bandit_party_1","A4IH4CO046EV3","either","8","49","","","","","","","1","0","0","0.8","","0.5","0.5","0.5","0.5","","","","","0.8","0.2","0.6","0.2","","","","","","","","","","72","H","0","img/none_selected.jpg","true","0","full_practice",""
"","text","71","186325","0.0-33.0","82364786","wem/bandit_party_1","A4IH4CO046EV3","either","8","2577","","","32","","","","","","","","","","","","","","","","","","","","","","","","","","","","","","","","","","","","",""
"","text-replacement","72","193963","0.0-34.0","82364786","wem/bandit_party_1","A4IH4CO046EV3","either","8","6635","","","32","","","","","","","","","","","","","","","","","","","","","","","","","","","","","","","","","","","","",""
"","text-replacement","73","199199","0.0-35.0","82364786","wem/bandit_party_1","A4IH4CO046EV3","either","8","5234","","","32","","","","","","","","","","","","","","","","","","","","","","","","","","","","","","","","","","","","",""
"","text-replacement","74","200827","0.0-36.0","82364786","wem/bandit_party_1","A4IH4CO046EV3","either","8","1626","","","32","","","","","","","","","","","","","","","","","","","","","","","","","","","","","","","","","","","","",""
"","text-replacement","75","202130","0.0-37.0","82364786","wem/bandit_party_1","A4IH4CO046EV3","either","8","1301","","","32","","","","","","","","","","","","","","","","","","","","","","","","","","","","","","","","","","","","",""
"","text-replacement","76","203167","0.0-38.0","82364786","wem/bandit_party_1","A4IH4CO046EV3","either","8","1036","","","32","","","","","","","","","","","","","","","","","","","","","","","","","","","","","","","","","","","","",""
"","survey-multi-choice-replacement","77","207484","0.0-39.0-0.0","82364786","wem/bandit_party_1","A4IH4CO046EV3","either","8","4313","","","","","","","","","","","","","","","","","","","","","","","","Money will be added to the pool for <span style='color:blue;'>DEMOCRATS</span>","","","","","","","attn_check","","","","","","","","","0"
"","survey-multi-choice-replacement","78","212141","0.0-40.0-0.0","82364786","wem/bandit_party_1","A4IH4CO046EV3","either","8","3650","","","","","","","","","","","","","","","","","","","","","","","","Equal amounts of money will be added to the pool for <span style='color:blue;'>DEMOCRATS</span> and subtracted from the pool for <span style='color:red;'>REPUBLICANS</span>","","","","","","","attn_check","","","","","","","","","2"
"","survey-multi-choice-replacement","79","216045","0.0-41.0-0.0","82364786","wem/bandit_party_1","A4IH4CO046EV3","either","8","2898","","","","","","","","","","","","","","","","","","","","","","","","No money will be added to either pool","","","","","","","attn_check","","","","","","","","","3"
"","bandit","80","222574","0.0-42.0-0.0","82364786","wem/bandit_party_1","A4IH4CO046EV3","either","8","4022","","","","","","","0","0","1","","0.2637293772","0.6","0.2","0.8","0.4","0.2637293772","0.2928194041","0.3540548627","0.1351790469","","","","","","","","","","","","","","72","H","0","img/none_selected.jpg","","1","main_expt",""
"","bandit","81","224327","0.0-43.0-0.0","82364786","wem/bandit_party_1","A4IH4CO046EV3","either","8","249","","","","","","","0","0","1","","0.3040419902","0.6","0.2","0.8","0.4","0.2760013096","0.3040419902","0.3812516843","0.125602744","","","","","","","","","","","","","","74","J","1","","","2","main_expt",""
"","bandit","82","226056","0.0-44.0-0.0","82364786","wem/bandit_party_1","A4IH4CO046EV3","either","8","224","","","","","","","0","0","1","0.3901316494","","0.6","0.2","0.8","0.4","","","","","0.3240499928","0.2875251023","0.3901316494","0.09574082279","","","","","","","","","","75","K","2","","","3","main_expt",""
"","bandit","83","228070","0.0-45.0-0.0","82364786","wem/bandit_party_1","A4IH4CO046EV3","either","8","509","","","","","","","0","1","0","","0.0913382225","0.6","0.2","0.8","0.4","0.3510822359","0.2965567903","0.3945399471","0.0913382225","","","","","","","","","","","","","","76","L","3","","","4","main_expt",""
"","bandit","84","229860","0.0-46.0-0.0","82364786","wem/bandit_party_1","A4IH4CO046EV3","either","8","285","","","","","","","0","0","1","0.106177601","","0.6","0.2","0.8","0.4","","","","","0.3522827721","0.2681113314","0.3997977613","0.106177601","","","","","","","","","","76","L","3","","","5","main_expt",""
"","bandit","85","231436","0.0-47.0-0.0","82364786","wem/bandit_party_1","A4IH4CO046EV3","either","8","70","","","","","","","0","0","1","","0.08998955495","0.6","0.2","0.8","0.4","0.382674005","0.2330443498","0.390783501","0.08998955495","","","","","","","","","","","","","","76","L","3","","","6","main_expt",""
"","bandit","86","233057","0.0-48.0-0.0","82364786","wem/bandit_party_1","A4IH4CO046EV3","either","8","118","","","","","","","0","0","1","","0.1077526668","0.6","0.2","0.8","0.4","0.3998463606","0.1630509172","0.3305693427","0.1077526668","","","","","","","","","","","","","","76","L","3","","","7","main_expt",""
"","bandit","87","234809","0.0-49.0-0.0","82364786","wem/bandit_party_1","A4IH4CO046EV3","either","8","248","","","","","","","1","0","0","0.3832029687","","0.6","0.2","0.8","0.4","","","","","0.3832029687","0.2002468685","0.3056545716","0.1243697388","","","","","","","","","","72","H","0","img/none_selected.jpg","","8","main_expt",""
"","bandit","88","236529","0.0-50.0-0.0","82364786","wem/bandit_party_1","A4IH4CO046EV3","either","8","214","","","","","","","1","0","0","0.3796681134","","0.6","0.2","0.8","0.4","","","","","0.3796681134","0.1835034381","0.3278889804","0.1698108096","","","","","","","","","","72","H","0","img/none_selected.jpg","","9","main_expt",""
"","bandit","89","238277","0.0-51.0-0.0","82364786","wem/bandit_party_1","A4IH4CO046EV3","either","8","241","","","","","","","0","0","1","0.3614311416","","0.6","0.2","0.8","0.4","","","","","0.3614311416","0.1939723001","0.3137855556","0.221757114","","","","","","","","","","72","H","0","img/none_selected.jpg","","10","main_expt",""
"","bandit","90","239985","0.0-52.0-0.0","82364786","wem/bandit_party_1","A4IH4CO046EV3","either","8","204","","","","","","","0","0","1","0.1949806013","","0.6","0.2","0.8","0.4","","","","","0.3938737051","0.1949806013","0.3253079181","0.1961062924","","","","","","","","","","74","J","1","","","11","main_expt",""
"","bandit","91","241685","0.0-53.0-0.0","82364786","wem/bandit_party_1","A4IH4CO046EV3","either","8","196","","","","","","","0","0","1","0.3298150516","","0.6","0.2","0.8","0.4","","","","","0.3810544723","0.2587943474","0.3298150516","0.1907056259","","","","","","","","","","75","K","2","","","12","main_expt",""
"","bandit","92","243268","0.0-54.0-0.0","82364786","wem/bandit_party_1","A4IH4CO046EV3","either","8","78","","","","","","","0","0","1","0.2162865666","","0.6","0.2","0.8","0.4","","","","","0.3707046684","0.3085985727","0.3673307406","0.2162865666","","","","","","","","","","76","L","3","","","13","main_expt",""
"","bandit","93","244961","0.0-55.0-0.0","82364786","wem/bandit_party_1","A4IH4CO046EV3","either","8","189","","","","","","","0","0","1","0.3486531997","","0.6","0.2","0.8","0.4","","","","","0.3486531997","0.2464992766","0.3679224674","0.2399362825","","","","","","","","","","72","H","0","img/none_selected.jpg","","14","main_expt",""
"","bandit","94","246723","0.0-56.0-0.0","82364786","wem/bandit_party_1","A4IH4CO046EV3","either","8","256","","","","","","","0","1","0","","0.2474611475","0.6","0.2","0.8","0.4","0.3263578384","0.2474611475","0.3062507314","0.1986859052","","","","","","","","","","","","","","74","J","1","","","15","main_expt",""
"","bandit","95","248370","0.0-57.0-0.0","82364786","wem/bandit_party_1","A4IH4CO046EV3","either","8","141","","","","","","","1","0","0","0.2835538477","","0.6","0.2","0.8","0.4","","","","","0.3514189979","0.2835538477","0.2892976033","0.1865641621","","","","","","","","","","74","J","1","","","16","main_expt",""
"","bandit","96","250068","0.0-58.0-0.0","82364786","wem/bandit_party_1","A4IH4CO046EV3","either","8","194","","","","","","","1","0","0","0.3256112075","","0.6","0.2","0.8","0.4","","","","","0.3532592314","0.3256112075","0.2861796528","0.2035525071","","","","","","","","","","74","J","1","","","17","main_expt",""
"","bandit","97","251769","0.0-59.0-0.0","82364786","wem/bandit_party_1","A4IH4CO046EV3","either","8","193","","","","","","","0","1","0","","0.3802227677","0.6","0.2","0.8","0.4","0.3858608091","0.3802227677","0.2958570682","0.2039336531","","","","","","","","","","","","","","74","J","1","","","18","main_expt",""
"","bandit","98","253408","0.0-60.0-0.0","82364786","wem/bandit_party_1","A4IH4CO046EV3","either","8","136","","","","","","","0","0","1","0.360566968","","0.6","0.2","0.8","0.4","","","","","0.3837638756","0.360566968","0.3353028819","0.1598579642","","","","","","","","","","74","J","1","","","19","main_expt",""
"","bandit","99","254948","0.0-61.0-0.0","82364786","wem/bandit_party_1","A4IH4CO046EV3","either","8","35","","","","","","","0","0","1","0.3696799013","","0.6","0.2","0.8","0.4","","","","","0.2872100501","0.3696799013","0.3139704528","0.1437622327","","","","","","","","","","74","J","1","","","20","main_expt",""
"","bandit","100","256504","0.0-62.0-0.0","82364786","wem/bandit_party_1","A4IH4CO046EV3","either","8","51","","","","","","","0","0","1","0.2524707143","","0.6","0.2","0.8","0.4","","","","","0.2975414498","0.4006907501","0.2524707143","0.07974703335","","","","","","","","","","75","K","2","","","21","main_expt",""
"","bandit","101","258070","0.0-63.0-0.0","82364786","wem/bandit_party_1","A4IH4CO046EV3","either","8","62","","","","","","","0","0","1","","0.1361132429","0.6","0.2","0.8","0.4","0.2741965999","0.4081217326","0.248326021","0.1361132429","","","","","","","","","","","","","","76","L","3","","","22","main_expt",""
"","bandit","102","259657","0.0-64.0-0.0","82364786","wem/bandit_party_1","A4IH4CO046EV3","either","8","81","","","","","","","0","0","1","","0.2379064449","0.6","0.2","0.8","0.4","0.2379064449","0.3740207531","0.2937153481","0.1705973249","","","","","","","","","","","","","","72","H","0","img/none_selected.jpg","","23","main_expt",""
"","bandit","103","261194","0.0-65.0-0.0","82364786","wem/bandit_party_1","A4IH4CO046EV3","either","8","32","","","","","","","0","0","1","","0.3913756451","0.6","0.2","0.8","0.4","0.2078598572","0.3913756451","0.2625315469","0.1392759225","","","","","","","","","","","","","","74","J","1","","","24","main_expt",""
"","bandit","104","262894","0.0-66.0-0.0","82364786","wem/bandit_party_1","A4IH4CO046EV3","either","8","197","","","","","","","0","0","1","0.2405651368","","0.6","0.2","0.8","0.4","","","","","0.2764850733","0.4100905738","0.2405651368","0.1800538527","","","","","","","","","","75","K","2","","","25","main_expt",""
"","bandit","105","264428","0.0-67.0-0.0","82364786","wem/bandit_party_1","A4IH4CO046EV3","either","8","28","","","","","","","0","0","1","0.2146400533","","0.6","0.2","0.8","0.4","","","","","0.3080191348","0.3600668969","0.2503350336","0.2146400533","","","","","","","","","","76","L","3","","","26","main_expt",""
"","bandit","106","266200","0.0-68.0-0.0","82364786","wem/bandit_party_1","A4IH4CO046EV3","either","8","268","","","","","","","1","0","0","0.3606197488","","0.6","0.2","0.8","0.4","","","","","0.3606197488","0.3703096079","0.354091838","0.1948367851","","","","","","","","","","72","H","0","img/none_selected.jpg","","27","main_expt",""
"","bandit","107","267931","0.0-69.0-0.0","82364786","wem/bandit_party_1","A4IH4CO046EV3","either","8","224","","","","","","","0","0","1","0.3696097963","","0.6","0.2","0.8","0.4","","","","","0.3696097963","0.3527269899","0.3419366675","0.2282666016","","","","","","","","","","72","H","0","img/none_selected.jpg","","28","main_expt",""
"","bandit","108","269588","0.0-70.0-0.0","82364786","wem/bandit_party_1","A4IH4CO046EV3","either","8","151","","","","","","","0","0","1","","0.2854860911","0.6","0.2","0.8","0.4","0.3434444954","0.2854860911","0.361896517","0.1842618798","","","","","","","","","","","","","","74","J","1","","","29","main_expt",""
"","bandit","109","271186","0.0-71.0-0.0","82364786","wem/bandit_party_1","A4IH4CO046EV3","either","8","91","","","","","","","0","0","1","","0.2971434158","0.6","0.2","0.8","0.4","0.3528183973","0.2971434158","0.3701160785","0.1930267653","","","","","","","","","","","","","","74","J","1","","","30","main_expt",""
"","bandit","110","272812","0.0-72.0-0.0","82364786","wem/bandit_party_1","A4IH4CO046EV3","either","8","120","","","","","","","0","0","1","0.3602312343","","0.6","0.2","0.8","0.4","","","","","0.3436926249","0.3192935598","0.3602312343","0.2279264959","","","","","","","","","","75","K","2","","","31","main_expt",""
"","bandit","111","274358","0.0-73.0-0.0","82364786","wem/bandit_party_1","A4IH4CO046EV3","either","8","40","","","","","","","0","0","1","0.3550043818","","0.6","0.2","0.8","0.4","","","","","0.3392376576","0.2910845839","0.3550043818","0.1922668126","","","","","","","","","","75","K","2","","","32","main_expt",""
"","bandit","112","276093","0.0-74.0-0.0","82364786","wem/bandit_party_1","A4IH4CO046EV3","either","8","230","","","","","","","0","1","0","","0.1503247695","0.6","0.2","0.8","0.4","0.2524106513","0.2956883229","0.3927862597","0.1503247695","","","","","","","","","","","","","","76","L","3","","","33","main_expt",""
"","bandit","113","277865","0.0-75.0-0.0","82364786","wem/bandit_party_1","A4IH4CO046EV3","either","8","264","","","","","","","0","0","1","","0.1875072744","0.6","0.2","0.8","0.4","0.2378308988","0.2918182698","0.4185963197","0.1875072744","","","","","","","","","","","","","","76","L","3","","","34","main_expt",""
"","bandit","114","279544","0.0-76.0-0.0","82364786","wem/bandit_party_1","A4IH4CO046EV3","either","8","174","","","","","","","0","0","1","","0.2135507624","0.6","0.2","0.8","0.4","0.2683654211","0.3063909307","0.441983755","0.2135507624","","","","","","","","","","","","","","76","L","3","","","35","main_expt",""
"","bandit","115","281253","0.0-77.0-0.0","82364786","wem/bandit_party_1","A4IH4CO046EV3","either","8","203","","","","","","","0","0","1","","0.2042402853","0.6","0.2","0.8","0.4","0.2645223933","0.2820805085","0.4352827683","0.2042402853","","","","","","","","","","","","","","76","L","3","","","36","main_expt",""
"","bandit","116","282939","0.0-78.0-0.0","82364786","wem/bandit_party_1","A4IH4CO046EV3","either","8","182","","","","","","","0","1","0","","0.2024605481","0.6","0.2","0.8","0.4","0.2360561858","0.2610370824","0.450520142","0.2024605481","","","","","","","","","","","","","","76","L","3","","","37","main_expt",""
"","bandit","117","284680","0.0-79.0-0.0","82364786","wem/bandit_party_1","A4IH4CO046EV3","either","8","236","","","","","","","1","0","0","0.1677713785","","0.6","0.2","0.8","0.4","","","","","0.2001865083","0.1896233007","0.4681224698","0.1677713785","","","","","","","","","","76","L","3","","","38","main_expt",""
"","bandit","118","286304","0.0-80.0-0.0","82364786","wem/bandit_party_1","A4IH4CO046EV3","either","8","119","","","","","","","0","0","1","","0.221779122","0.6","0.2","0.8","0.4","0.1687915361","0.168851025","0.4711022053","0.221779122","","","","","","","","","","","","","","76","L","3","","","39","main_expt",""
"","bandit","119","287834","0.0-81.0-0.0","82364786","wem/bandit_party_1","A4IH4CO046EV3","either","8","25","","","","","","","0","1","0","","0.2722397218","0.6","0.2","0.8","0.4","0.1503151413","0.1615787635","0.4559447699","0.2722397218","","","","","","","","","","","","","","76","L","3","","","40","main_expt",""
"","bandit","120","289524","0.0-82.0-0.0","82364786","wem/bandit_party_1","A4IH4CO046EV3","either","8","182","","","","","","","1","0","0","0.3298230943","","0.6","0.2","0.8","0.4","","","","","0.08168262283","0.1472326003","0.4412687596","0.3298230943","","","","","","","","","","76","L","3","","","41","main_expt",""
"","bandit","121","291118","0.0-83.0-0.0","82364786","wem/bandit_party_1","A4IH4CO046EV3","either","8","88","","","","","","","0","1","0","","0.3104885444","0.6","0.2","0.8","0.4","0.07668629145","0.1533480506","0.4457751761","0.3104885444","","","","","","","","","","","","","","76","L","3","","","42","main_expt",""
"","bandit","122","292655","0.0-84.0-0.0","82364786","wem/bandit_party_1","A4IH4CO046EV3","either","8","31","","","","","","","0","0","1","","0.3005355489","0.6","0.2","0.8","0.4","0.07394587158","0.1414351437","0.4298378352","0.3005355489","","","","","","","","","","","","","","76","L","3","","","43","main_expt",""
"","bandit","123","294241","0.0-85.0-0.0","82364786","wem/bandit_party_1","A4IH4CO046EV3","either","8","80","","","","","","","0","0","1","0.2456242138","","0.6","0.2","0.8","0.4","","","","","0.1192337685","0.1067646429","0.4416915379","0.2456242138","","","","","","","","","","76","L","3","","","44","main_expt",""
"","bandit","124","295798","0.0-86.0-0.0","82364786","wem/bandit_party_1","A4IH4CO046EV3","either","8","51","","","","","","","0","1","0","","0.2839901561","0.6","0.2","0.8","0.4","0.1285724119","0.1250796286","0.3915522423","0.2839901561","","","","","","","","","","","","","","76","L","3","","","45","main_expt",""
"","bandit","125","297549","0.0-87.0-0.0","82364786","wem/bandit_party_1","A4IH4CO046EV3","either","8","245","","","","","","","0","0","1","0.2353621531","","0.6","0.2","0.8","0.4","","","","","0.1112684106","0.1927264636","0.4318427431","0.2353621531","","","","","","","","","","76","L","3","","","46","main_expt",""
"","bandit","126","299093","0.0-88.0-0.0","82364786","wem/bandit_party_1","A4IH4CO046EV3","either","8","39","","","","","","","0","0","1","0.2405257196","","0.6","0.2","0.8","0.4","","","","","0.1207340475","0.1804488412","0.4395998441","0.2405257196","","","","","","","","","","76","L","3","","","47","main_expt",""
"","bandit","127","300721","0.0-89.0-0.0","82364786","wem/bandit_party_1","A4IH4CO046EV3","either","8","122","","","","","","","0","0","1","0.2629408555","","0.6","0.2","0.8","0.4","","","","","0.1182533935","0.168268176","0.4630443269","0.2629408555","","","","","","","","","","76","L","3","","","48","main_expt",""
"","bandit","128","302328","0.0-90.0-0.0","82364786","wem/bandit_party_1","A4IH4CO046EV3","either","8","102","","","","","","","0","0","1","0.1460801474","","0.6","0.2","0.8","0.4","","","","","0.1460801474","0.1466838001","0.4794982466","0.2902453213","","","","","","","","","","72","H","0","img/none_selected.jpg","","49","main_expt",""
"","bandit","129","304067","0.0-91.0-0.0","82364786","wem/bandit_party_1","A4IH4CO046EV3","either","8","234","","","","","","","0","0","1","","0.1336340117","0.6","0.2","0.8","0.4","0.1765155983","0.1336340117","0.4562783041","0.3033715012","","","","","","","","","","","","","","74","J","1","","","50","main_expt",""
"","bandit","130","305706","0.0-92.0-0.0","82364786","wem/bandit_party_1","A4IH4CO046EV3","either","8","133","","","","","","","1","0","0","0.4515646323","","0.6","0.2","0.8","0.4","","","","","0.1614266163","0.1067821754","0.4515646323","0.3536831403","","","","","","","","","","75","K","2","","","51","main_expt",""
"","bandit","131","307447","0.0-93.0-0.0","82364786","wem/bandit_party_1","A4IH4CO046EV3","either","8","234","","","","","","","0","0","1","0.4344137529","","0.6","0.2","0.8","0.4","","","","","0.1938643747","0.07294577227","0.4344137529","0.3058792917","","","","","","","","","","75","K","2","","","52","main_expt",""
"","bandit","132","309113","0.0-94.0-0.0","82364786","wem/bandit_party_1","A4IH4CO046EV3","either","8","159","","","","","","","1","0","0","0.4421766306","","0.6","0.2","0.8","0.4","","","","","0.1721886996","0.07676454597","0.4421766306","0.3466820038","","","","","","","","","","75","K","2","","","53","main_expt",""
"","bandit","133","310854","0.0-95.0-0.0","82364786","wem/bandit_party_1","A4IH4CO046EV3","either","8","237","","","","","","","1","0","0","0.4591875032","","0.6","0.2","0.8","0.4","","","","","0.1542880765","0.07707135067","0.4591875032","0.3159173384","","","","","","","","","","75","K","2","","","54","main_expt",""
"","bandit","134","312553","0.0-96.0-0.0","82364786","wem/bandit_party_1","A4IH4CO046EV3","either","8","195","","","","","","","0","0","1","","0.4455250987","0.6","0.2","0.8","0.4","0.2155598061","0.08227932488","0.4455250987","0.3205246683","","","","","","","","","","","","","","75","K","2","","","55","main_expt",""
"","bandit","135","314445","0.0-97.0-0.0","82364786","wem/bandit_party_1","A4IH4CO046EV3","either","8","385","","","","","","","0","1","0","","0.3067659888","0.6","0.2","0.8","0.4","0.199350645","0.09013031375","0.4200701886","0.3067659888","","","","","","","","","","","","","","76","L","3","","","56","main_expt",""
"","bandit","136","316080","0.0-98.0-0.0","82364786","wem/bandit_party_1","A4IH4CO046EV3","either","8","130","","","","","","","0","1","0","","0.3786279545","0.6","0.2","0.8","0.4","0.1991981904","0.106866739","0.3635567377","0.3786279545","","","","","","","","","","","","","","76","L","3","","","57","main_expt",""
"","bandit","137","317790","0.0-99.0-0.0","82364786","wem/bandit_party_1","A4IH4CO046EV3","either","8","205","","","","","","","0","0","1","0.3796022377","","0.6","0.2","0.8","0.4","","","","","0.1307276253","0.0915584437","0.3647217687","0.3796022377","","","","","","","","","","76","L","3","","","58","main_expt",""
"","bandit","138","319413","0.0-100.0-0.0","82364786","wem/bandit_party_1","A4IH4CO046EV3","either","8","118","","","","","","","1","0","0","0.3570845549","","0.6","0.2","0.8","0.4","","","","","0.1540949786","0.1036540812","0.3975499765","0.3570845549","","","","","","","","","","76","L","3","","","59","main_expt",""
"","bandit","139","321047","0.0-101.0-0.0","82364786","wem/bandit_party_1","A4IH4CO046EV3","either","8","128","","","","","","","0","0","1","0.398525789","","0.6","0.2","0.8","0.4","","","","","0.1187181044","0.07948280662","0.376383165","0.398525789","","","","","","","","","","76","L","3","","","60","main_expt",""
"","bandit","140","322775","0.0-102.0-0.0","82364786","wem/bandit_party_1","A4IH4CO046EV3","either","8","224","","","","","","","0","0","1","","0.380986593","0.6","0.2","0.8","0.4","0.1734870435","0.0685056185","0.3384437455","0.380986593","","","","","","","","","","","","","","76","L","3","","","61","main_expt",""
"","bandit","141","324525","0.0-103.0-0.0","82364786","wem/bandit_party_1","A4IH4CO046EV3","either","8","243","","","","","","","0","0","1","0.3928002855","","0.6","0.2","0.8","0.4","","","","","0.2056999461","0.04196312691","0.3086389155","0.3928002855","","","","","","","","","","76","L","3","","","62","main_expt",""
"","bandit","142","326285","0.0-104.0-0.0","82364786","wem/bandit_party_1","A4IH4CO046EV3","either","8","255","","","","","","","0","0","1","0.2421495796","","0.6","0.2","0.8","0.4","","","","","0.2421495796","0.06524357318","0.3098998428","0.4097838671","","","","","","","","","","72","H","0","img/none_selected.jpg","","63","main_expt",""
"","bandit","143","327984","0.0-105.0-0.0","82364786","wem/bandit_party_1","A4IH4CO046EV3","either","8","193","","","","","","","0","0","1","","0.04599317762","0.6","0.2","0.8","0.4","0.2678986655","0.04599317762","0.2859800092","0.3942475769","","","","","","","","","","","","","","74","J","1","","","64","main_expt",""
"","bandit","144","329721","0.0-106.0-0.0","82364786","wem/bandit_party_1","A4IH4CO046EV3","either","8","232","","","","","","","0","0","1","0.2780623804","","0.6","0.2","0.8","0.4","","","","","0.2780805564","0.04738713632","0.2780623804","0.3756823908","","","","","","","","","","75","K","2","","","65","main_expt",""
"","bandit","145","331413","0.0-107.0-0.0","82364786","wem/bandit_party_1","A4IH4CO046EV3","either","8","187","","","","","","","0","1","0","","0.3780323226","0.6","0.2","0.8","0.4","0.2923516192","0.02873144913","0.2740889186","0.3780323226","","","","","","","","","","","","","","76","L","3","","","66","main_expt",""
"","bandit","146","333172","0.0-108.0-0.0","82364786","wem/bandit_party_1","A4IH4CO046EV3","either","8","254","","","","","","","0","1","0","","0.382091886","0.6","0.2","0.8","0.4","0.3481747094","0.0355516853","0.3122756929","0.382091886","","","","","","","","","","","","","","76","L","3","","","67","main_expt",""
"","bandit","147","334891","0.0-109.0-0.0","82364786","wem/bandit_party_1","A4IH4CO046EV3","either","8","213","","","","","","","0","0","1","","0.4080562953","0.6","0.2","0.8","0.4","0.3540590834","0.04483006882","0.3004294993","0.4080562953","","","","","","","","","","","","","","76","L","3","","","68","main_expt",""
"","bandit","148","336600","0.0-110.0-0.0","82364786","wem/bandit_party_1","A4IH4CO046EV3","either","8","203","","","","","","","0","0","1","","0.04300650393","0.6","0.2","0.8","0.4","0.3348318208","0.04300650393","0.3312842332","0.419826639","","","","","","","","","","","","","","74","J","1","","","69","main_expt",""
"","bandit","149","338361","0.0-111.0-0.0","82364786","wem/bandit_party_1","A4IH4CO046EV3","either","8","254","","","","","","","0","0","1","","0.3889643965","0.6","0.2","0.8","0.4","0.3844983113","0.03960880855","0.2362018798","0.3889643965","","","","","","","","","","","","","","76","L","3","","","70","main_expt",""
"","bandit","150","340046","0.0-112.0-0.0","82364786","wem/bandit_party_1","A4IH4CO046EV3","either","8","179","","","","","","","0","0","1","","0.1838323472","0.6","0.2","0.8","0.4","0.3753843975","0.02401392238","0.1838323472","0.3492343966","","","","","","","","","","","","","","75","K","2","","","71","main_expt",""
"","bandit","151","341809","0.0-113.0-0.0","82364786","wem/bandit_party_1","A4IH4CO046EV3","either","8","257","","","","","","","0","0","1","","0.3502155883","0.6","0.2","0.8","0.4","0.3861429343","0.008756159955","0.1749810972","0.3502155883","","","","","","","","","","","","","","76","L","3","","","72","main_expt",""
"","bandit","152","343479","0.0-114.0-0.0","82364786","wem/bandit_party_1","A4IH4CO046EV3","either","8","165","","","","","","","0","0","1","0.3978436086","","0.6","0.2","0.8","0.4","","","","","0.3978436086","0.006257651783","0.1664097112","0.3568691787","","","","","","","","","","72","H","0","img/none_selected.jpg","","73","main_expt",""
"","bandit","153","345169","0.0-115.0-0.0","82364786","wem/bandit_party_1","A4IH4CO046EV3","either","8","183","","","","","","","1","0","0","0.3303653739","","0.6","0.2","0.8","0.4","","","","","0.3847979518","0.004732084297","0.2001176207","0.3303653739","","","","","","","","","","76","L","3","","","74","main_expt",""
"","bandit","154","346866","0.0-116.0-0.0","82364786","wem/bandit_party_1","A4IH4CO046EV3","either","8","191","","","","","","","1","0","0","0.3353283381","","0.6","0.2","0.8","0.4","","","","","0.3974319157","0.006967558871","0.1848717924","0.3353283381","","","","","","","","","","76","L","3","","","75","main_expt",""
"","bandit","155","348607","0.0-117.0-0.0","82364786","wem/bandit_party_1","A4IH4CO046EV3","either","8","236","","","","","","","0","0","1","","0.3009524994","0.6","0.2","0.8","0.4","0.3987985884","0.004525860487","0.1510178238","0.3009524994","","","","","","","","","","","","","","76","L","3","","","76","main_expt",""
"","bandit","156","350161","0.0-118.0-0.0","82364786","wem/bandit_party_1","A4IH4CO046EV3","either","8","48","","","","","","","0","1","0","","0.3316028908","0.6","0.2","0.8","0.4","0.4127312768","0.007245535115","0.2089633591","0.3316028908","","","","","","","","","","","","","","76","L","3","","","77","main_expt",""
"","bandit","157","351812","0.0-119.0-0.0","82364786","wem/bandit_party_1","A4IH4CO046EV3","either","8","146","","","","","","","0","0","1","","0.3571024926","0.6","0.2","0.8","0.4","0.4257675477","0.00483057751","0.2285147345","0.3571024926","","","","","","","","","","","","","","76","L","3","","","78","main_expt",""
"","bandit","158","353417","0.0-120.0-0.0","82364786","wem/bandit_party_1","A4IH4CO046EV3","either","8","101","","","","","","","0","0","1","0.3542776451","","0.6","0.2","0.8","0.4","","","","","0.4331167668","0.005956317848","0.2246975601","0.3542776451","","","","","","","","","","76","L","3","","","79","main_expt",""
"","bandit","159","354982","0.0-121.0-0.0","82364786","wem/bandit_party_1","A4IH4CO046EV3","either","8","59","","","","","","","0","0","1","0.3201174307","","0.6","0.2","0.8","0.4","","","","","0.4294395537","0.0076590047","0.1878766281","0.3201174307","","","","","","","","","","76","L","3","","","80","main_expt",""
"","bandit","160","356661","0.0-122.0-0.0","82364786","wem/bandit_party_1","A4IH4CO046EV3","either","8","172","","","","","","","0","0","1","0.4234249918","","0.6","0.2","0.8","0.4","","","","","0.4234249918","0.009115568074","0.2436254364","0.3503003334","","","","","","","","","","72","H","0","img/none_selected.jpg","","81","main_expt",""
"","bandit","161","358279","0.0-123.0-0.0","82364786","wem/bandit_party_1","A4IH4CO046EV3","either","8","114","","","","","","","0","0","1","","0.01382977225","0.6","0.2","0.8","0.4","0.3956977209","0.01382977225","0.2627531714","0.3509066846","","","","","","","","","","","","","","74","J","1","","","82","main_expt",""
"","bandit","162","360071","0.0-124.0-0.0","82364786","wem/bandit_party_1","A4IH4CO046EV3","either","8","287","","","","","","","1","0","0","0.2672212524","","0.6","0.2","0.8","0.4","","","","","0.4248650233","0.01500629599","0.2672212524","0.3951868033","","","","","","","","","","75","K","2","","","83","main_expt",""
"","bandit","163","361838","0.0-125.0-0.0","82364786","wem/bandit_party_1","A4IH4CO046EV3","either","8","260","","","","","","","0","0","1","0.2817484998","","0.6","0.2","0.8","0.4","","","","","0.4196907627","0.02310127573","0.2817484998","0.4131477378","","","","","","","","","","75","K","2","","","84","main_expt",""
"","bandit","164","363499","0.0-126.0-0.0","82364786","wem/bandit_party_1","A4IH4CO046EV3","either","8","156","","","","","","","0","0","1","","0.3889697292","0.6","0.2","0.8","0.4","0.435633498","0.02639065846","0.3074775227","0.3889697292","","","","","","","","","","","","","","76","L","3","","","85","main_expt",""
"","bandit","165","365169","0.0-127.0-0.0","82364786","wem/bandit_party_1","A4IH4CO046EV3","either","8","164","","","","","","","1","0","0","0.2717847629","","0.6","0.2","0.8","0.4","","","","","0.4322222521","0.01746441632","0.2717847629","0.3885636443","","","","","","","","","","75","K","2","","","86","main_expt",""
"","bandit","166","366786","0.0-128.0-0.0","82364786","wem/bandit_party_1","A4IH4CO046EV3","either","8","112","","","","","","","0","0","1","0.4028282504","","0.6","0.2","0.8","0.4","","","","","0.4476119451","0.01256144444","0.2183858348","0.4028282504","","","","","","","","","","76","L","3","","","87","main_expt",""
"","bandit","167","368791","0.0-129.0-0.0","82364786","wem/bandit_party_1","A4IH4CO046EV3","either","8","498","","","","","","","0","0","1","0.2054961256","","0.6","0.2","0.8","0.4","","","","","0.4073123198","0.01178158386","0.2054961256","0.4306890759","","","","","","","","","","75","K","2","","","88","main_expt",""
"","bandit","168","370407","0.0-130.0-0.0","82364786","wem/bandit_party_1","A4IH4CO046EV3","either","8","111","","","","","","","1","0","0","0.1452714398","","0.6","0.2","0.8","0.4","","","","","0.3862301724","0.008722555822","0.1452714398","0.4103738654","","","","","","","","","","75","K","2","","","89","main_expt",""
"","bandit","169","372171","0.0-131.0-0.0","82364786","wem/bandit_party_1","A4IH4CO046EV3","either","8","259","","","","","","","0","0","1","0.1077779513","","0.6","0.2","0.8","0.4","","","","","0.3596745144","0.008232471735","0.1077779513","0.3980827974","","","","","","","","","","75","K","2","","","90","main_expt",""
"","bandit","170","373702","0.0-132.0-0.0","82364786","wem/bandit_party_1","A4IH4CO046EV3","either","8","25","","","","","","","0","1","0","","0.4040531024","0.6","0.2","0.8","0.4","0.3082854458","0.01249180717","0.1308407065","0.4040531024","","","","","","","","","","","","","","76","L","3","","","91","main_expt",""
"","bandit","171","375391","0.0-133.0-0.0","82364786","wem/bandit_party_1","A4IH4CO046EV3","either","8","183","","","","","","","0","0","1","0.3462944796","","0.6","0.2","0.8","0.4","","","","","0.312225492","0.01470986316","0.1652322036","0.3462944796","","","","","","","","","","76","L","3","","","92","main_expt",""
"","bandit","172","377039","0.0-134.0-0.0","82364786","wem/bandit_party_1","A4IH4CO046EV3","either","8","140","","","","","","","0","0","1","","0.3411451966","0.6","0.2","0.8","0.4","0.3671658277","0.02655281846","0.1344678182","0.3411451966","","","","","","","","","","","","","","76","L","3","","","93","main_expt",""
"","bandit","173","378627","0.0-135.0-0.0","82364786","wem/bandit_party_1","A4IH4CO046EV3","either","8","82","","","","","","","0","0","1","","0.3384154489","0.6","0.2","0.8","0.4","0.3401731108","0.02575246025","0.1301314301","0.3384154489","","","","","","","","","","","","","","76","L","3","","","94","main_expt",""
"","bandit","174","380213","0.0-136.0-0.0","82364786","wem/bandit_party_1","A4IH4CO046EV3","either","8","80","","","","","","","0","1","0","","0.3126988266","0.6","0.2","0.8","0.4","0.3413923724","0.02262355665","0.1746055711","0.3126988266","","","","","","","","","","","","","","76","L","3","","","95","main_expt",""
"","bandit","175","381905","0.0-137.0-0.0","82364786","wem/bandit_party_1","A4IH4CO046EV3","either","8","186","","","","","","","1","0","0","0.3800019137","","0.6","0.2","0.8","0.4","","","","","0.3570420485","0.02047181149","0.1994244555","0.3800019137","","","","","","","","","","76","L","3","","","96","main_expt",""
"","bandit","176","383559","0.0-138.0-0.0","82364786","wem/bandit_party_1","A4IH4CO046EV3","either","8","148","","","","","","","0","0","1","","0.3328121005","0.6","0.2","0.8","0.4","0.3435474977","0.0207754381","0.1834602947","0.3328121005","","","","","","","","","","","","","","76","L","3","","","97","main_expt",""
"","bandit","177","385323","0.0-139.0-0.0","82364786","wem/bandit_party_1","A4IH4CO046EV3","either","8","257","","","","","","","0","0","1","","0.332228596","0.6","0.2","0.8","0.4","0.3614714926","0.02955834597","0.1719221531","0.332228596","","","","","","","","","","","","","","76","L","3","","","98","main_expt",""
"","bandit","178","386950","0.0-140.0-0.0","82364786","wem/bandit_party_1","A4IH4CO046EV3","either","8","122","","","","","","","1","0","0","0.3176405447","","0.6","0.2","0.8","0.4","","","","","0.3176405447","0.0383131093","0.1183399241","0.2843854285","","","","","","","","","","72","H","0","img/none_selected.jpg","","99","main_expt",""
"","bandit","179","388680","0.0-141.0-0.0","82364786","wem/bandit_party_1","A4IH4CO046EV3","either","8","225","","","","","","","0","0","1","","0.3586553183","0.6","0.2","0.8","0.4","0.3586553183","0.03580757471","0.1558635017","0.309751149","","","","","","","","","","","","","","72","H","0","img/none_selected.jpg","","100","main_expt",""
"","bandit","180","390419","0.0-142.0-0.0","82364786","wem/bandit_party_1","A4IH4CO046EV3","either","8","232","","","","","","","0","0","1","","0.2951503345","0.6","0.2","0.8","0.4","0.2951503345","0.04899620691","0.1389665978","0.2993195944","","","","","","","","","","","","","","72","H","0","img/none_selected.jpg","","101","main_expt",""
"","bandit","181","392018","0.0-143.0-0.0","82364786","wem/bandit_party_1","A4IH4CO046EV3","either","8","93","","","","","","","1","0","0","0.2998391809","","0.6","0.2","0.8","0.4","","","","","0.2998391809","0.08055650644","0.1377203561","0.3551890872","","","","","","","","","","72","H","0","img/none_selected.jpg","","102","main_expt",""
"","bandit","182","393672","0.0-144.0-0.0","82364786","wem/bandit_party_1","A4IH4CO046EV3","either","8","149","","","","","","","0","0","1","0.1040447627","","0.6","0.2","0.8","0.4","","","","","0.2791823827","0.1040447627","0.1285548106","0.3148404956","","","","","","","","","","74","J","1","","","103","main_expt",""
"","bandit","183","395381","0.0-145.0-0.0","82364786","wem/bandit_party_1","A4IH4CO046EV3","either","8","203","","","","","","","0","0","1","","0.1143547335","0.6","0.2","0.8","0.4","0.3382769334","0.1143547335","0.1555523735","0.3286912191","","","","","","","","","","","","","","74","J","1","","","104","main_expt",""
"","bandit","184","397110","0.0-146.0-0.0","82364786","wem/bandit_party_1","A4IH4CO046EV3","either","8","224","","","","","","","0","0","1","","0.1487676438","0.6","0.2","0.8","0.4","0.3339697125","0.1487676438","0.1775592141","0.298340497","","","","","","","","","","","","","","74","J","1","","","105","main_expt",""
"","bandit","185","398788","0.0-147.0-0.0","82364786","wem/bandit_party_1","A4IH4CO046EV3","either","8","172","","","","","","","0","0","1","","0.152088545","0.6","0.2","0.8","0.4","0.3124129253","0.152088545","0.2263451353","0.3504464386","","","","","","","","","","","","","","74","J","1","","","106","main_expt",""
"","bandit","186","400506","0.0-148.0-0.0","82364786","wem/bandit_party_1","A4IH4CO046EV3","either","8","213","","","","","","","0","0","1","0.1679769802","","0.6","0.2","0.8","0.4","","","","","0.3400683723","0.2406734145","0.1679769802","0.3510410077","","","","","","","","","","75","K","2","","","107","main_expt",""
"","bandit","187","402106","0.0-149.0-0.0","82364786","wem/bandit_party_1","A4IH4CO046EV3","either","8","94","","","","","","","0","0","1","0.1999870147","","0.6","0.2","0.8","0.4","","","","","0.3557340834","0.3048040024","0.1999870147","0.3282766846","","","","","","","","","","75","K","2","","","108","main_expt",""
"","bandit","188","403882","0.0-150.0-0.0","82364786","wem/bandit_party_1","A4IH4CO046EV3","either","8","270","","","","","","","1","0","0","0.208992856","","0.6","0.2","0.8","0.4","","","","","0.3846418901","0.3418503096","0.208992856","0.3561186451","","","","","","","","","","75","K","2","","","109","main_expt",""
"","bandit","189","405453","0.0-151.0-0.0","82364786","wem/bandit_party_1","A4IH4CO046EV3","either","8","65","","","","","","","0","0","1","","0.3576445865","0.6","0.2","0.8","0.4","0.4057962062","0.3198501315","0.1716040471","0.3576445865","","","","","","","","","","","","","","76","L","3","","","110","main_expt",""
"","bandit","190","406979","0.0-152.0-0.0","82364786","wem/bandit_party_1","A4IH4CO046EV3","either","8","21","","","","","","","0","0","1","0.3377543854","","0.6","0.2","0.8","0.4","","","","","0.3692451483","0.3681534847","0.08984071331","0.3377543854","","","","","","","","","","76","L","3","","","111","main_expt",""
"","bandit","191","408627","0.0-153.0-0.0","82364786","wem/bandit_party_1","A4IH4CO046EV3","either","8","141","","","","","","","0","1","0","","0.286234052","0.6","0.2","0.8","0.4","0.3577317973","0.3757830796","0.1243463141","0.286234052","","","","","","","","","","","","","","76","L","3","","","112","main_expt",""
"","bandit","192","410197","0.0-154.0-0.0","82364786","wem/bandit_party_1","A4IH4CO046EV3","either","8","65","","","","","","","0","0","1","","0.1932674395","0.6","0.2","0.8","0.4","0.3328808086","0.3838999828","0.1433440675","0.1932674395","","","","","","","","","","","","","","76","L","3","","","113","main_expt",""
"","bandit","193","411997","0.0-155.0-0.0","82364786","wem/bandit_party_1","A4IH4CO046EV3","either","8","293","","","","","","","0","0","1","","0.2403040534","0.6","0.2","0.8","0.4","0.3416979579","0.4157938717","0.1510662198","0.2403040534","","","","","","","","","","","","","","76","L","3","","","114","main_expt",""
"","bandit","194","413594","0.0-156.0-0.0","82364786","wem/bandit_party_1","A4IH4CO046EV3","either","8","91","","","","","","","0","0","1","","0.254937398","0.6","0.2","0.8","0.4","0.3377137281","0.4055870595","0.09845245139","0.254937398","","","","","","","","","","","","","","76","L","3","","","115","main_expt",""
"","bandit","195","415328","0.0-157.0-0.0","82364786","wem/bandit_party_1","A4IH4CO046EV3","either","8","228","","","","","","","0","0","1","0.107393795","","0.6","0.2","0.8","0.4","","","","","0.3039448029","0.4161015278","0.107393795","0.2605063941","","","","","","","","","","75","K","2","","","116","main_expt",""
"","bandit","196","417081","0.0-158.0-0.0","82364786","wem/bandit_party_1","A4IH4CO046EV3","either","8","248","","","","","","","0","0","1","","0.2161328783","0.6","0.2","0.8","0.4","0.2974336912","0.414877819","0.07879800556","0.2161328783","","","","","","","","","","","","","","76","L","3","","","117","main_expt",""
"","bandit","197","418729","0.0-159.0-0.0","82364786","wem/bandit_party_1","A4IH4CO046EV3","either","8","141","","","","","","","0","0","1","0.2651867246","","0.6","0.2","0.8","0.4","","","","","0.2651867246","0.3968259953","0.08383735875","0.1931197841","","","","","","","","","","72","H","0","img/none_selected.jpg","","118","main_expt",""
"","bandit","198","420398","0.0-160.0-0.0","82364786","wem/bandit_party_1","A4IH4CO046EV3","either","8","161","","","","","","","0","0","1","0.4198241006","","0.6","0.2","0.8","0.4","","","","","0.3131666206","0.4198241006","0.1392474383","0.1638183597","","","","","","","","","","74","J","1","","","119","main_expt",""
"","bandit","199","422057","0.0-161.0-0.0","82364786","wem/bandit_party_1","A4IH4CO046EV3","either","8","152","","","","","","","0","0","1","","0.358829095","0.6","0.2","0.8","0.4","0.358829095","0.4286088018","0.1649404926","0.1893282748","","","","","","","","","","","","","","72","H","0","img/none_selected.jpg","","120","main_expt",""
"","bandit","200","423683","0.0-162.0-0.0","82364786","wem/bandit_party_1","A4IH4CO046EV3","either","8","120","","","","","","","0","0","1","0.3189860171","","0.6","0.2","0.8","0.4","","","","","0.3189860171","0.4253829576","0.1764152442","0.2290368179","","","","","","","","","","72","H","0","img/none_selected.jpg","","121","main_expt",""
"","bandit","201","425340","0.0-163.0-0.0","82364786","wem/bandit_party_1","A4IH4CO046EV3","either","8","150","","","","","","","0","1","0","","0.4235175979","0.6","0.2","0.8","0.4","0.3011672979","0.4235175979","0.2092397698","0.2445441383","","","","","","","","","","","","","","74","J","1","","","122","main_expt",""
"","bandit","202","427012","0.0-164.0-0.0","82364786","wem/bandit_party_1","A4IH4CO046EV3","either","8","165","","","","","","","0","1","0","","0.4182090072","0.6","0.2","0.8","0.4","0.3037948063","0.4182090072","0.1884058447","0.2091075756","","","","","","","","","","","","","","74","J","1","","","123","main_expt",""
"","bandit","203","428680","0.0-165.0-0.0","82364786","wem/bandit_party_1","A4IH4CO046EV3","either","8","158","","","","","","","0","0","1","","0.4356016004","0.6","0.2","0.8","0.4","0.2446200253","0.4356016004","0.1876417206","0.2216111921","","","","","","","","","","","","","","74","J","1","","","124","main_expt",""
"","bandit","204","430318","0.0-166.0-0.0","82364786","wem/bandit_party_1","A4IH4CO046EV3","either","8","132","","","","","","","0","0","1","0.403953628","","0.6","0.2","0.8","0.4","","","","","0.2464628806","0.403953628","0.1890564589","0.1622020501","","","","","","","","","","74","J","1","","","125","main_expt",""
"","bandit","205","432008","0.0-167.0-0.0","82364786","wem/bandit_party_1","A4IH4CO046EV3","either","8","184","","","","","","","0","0","1","","0.4020675328","0.6","0.2","0.8","0.4","0.281169445","0.4020675328","0.1659850756","0.173533554","","","","","","","","","","","","","","74","J","1","","","126","main_expt",""
"","bandit","206","433622","0.0-168.0-0.0","82364786","wem/bandit_party_1","A4IH4CO046EV3","either","8","110","","","","","","","0","0","1","","0.338443572","0.6","0.2","0.8","0.4","0.290080064","0.338443572","0.2006343121","0.189829559","","","","","","","","","","","","","","74","J","1","","","127","main_expt",""
"","bandit","207","435309","0.0-169.0-0.0","82364786","wem/bandit_party_1","A4IH4CO046EV3","either","8","182","","","","","","","0","0","1","","0.323123489","0.6","0.2","0.8","0.4","0.3280989756","0.323123489","0.2637444583","0.1764696366","","","","","","","","","","","","","","74","J","1","","","128","main_expt",""
"","bandit","208","437055","0.0-170.0-0.0","82364786","wem/bandit_party_1","A4IH4CO046EV3","either","8","241","","","","","","","0","0","1","0.2783394686","","0.6","0.2","0.8","0.4","","","","","0.3052704822","0.3615310162","0.2783394686","0.172709194","","","","","","","","","","75","K","2","","","129","main_expt",""
"","bandit","209","438605","0.0-171.0-0.0","82364786","wem/bandit_party_1","A4IH4CO046EV3","either","8","44","","","","","","","0","0","1","","0.1407460215","0.6","0.2","0.8","0.4","0.314718742","0.3667448715","0.2674474002","0.1407460215","","","","","","","","","","","","","","76","L","3","","","130","main_expt",""
"","bandit","210","440302","0.0-172.0-0.0","82364786","wem/bandit_party_1","A4IH4CO046EV3","either","8","192","","","","","","","0","0","1","0.2122920843","","0.6","0.2","0.8","0.4","","","","","0.2492347367","0.341745941","0.2122920843","0.143826562","","","","","","","","","","75","K","2","","","131","main_expt",""
"","bandit","211","442061","0.0-173.0-0.0","82364786","wem/bandit_party_1","A4IH4CO046EV3","either","8","252","","","","","","","0","0","1","","0.1862992663","0.6","0.2","0.8","0.4","0.2495736985","0.2615325727","0.1969346152","0.1862992663","","","","","","","","","","","","","","76","L","3","","","132","main_expt",""
"","bandit","212","443630","0.0-174.0-0.0","82364786","wem/bandit_party_1","A4IH4CO046EV3","either","8","65","","","","","","","0","0","1","","0.2487120015","0.6","0.2","0.8","0.4","0.2487120015","0.27905624","0.1390835973","0.185648564","","","","","","","","","","","","","","72","H","0","img/none_selected.jpg","","133","main_expt",""
"","bandit","213","445209","0.0-175.0-0.0","82364786","wem/bandit_party_1","A4IH4CO046EV3","either","8","72","","","","","","","0","0","1","","0.2751163123","0.6","0.2","0.8","0.4","0.3239420422","0.2751163123","0.1437640715","0.2002276213","","","","","","","","","","","","","","74","J","1","","","134","main_expt",""
"","bandit","214","446867","0.0-176.0-0.0","82364786","wem/bandit_party_1","A4IH4CO046EV3","either","8","152","","","","","","","1","0","0","0.3903525049","","0.6","0.2","0.8","0.4","","","","","0.3903525049","0.2586507773","0.1175999949","0.2474552851","","","","","","","","","","72","H","0","img/none_selected.jpg","","135","main_expt",""
"","bandit","215","448551","0.0-177.0-0.0","82364786","wem/bandit_party_1","A4IH4CO046EV3","either","8","178","","","","","","","0","1","0","","0.3703049055","0.6","0.2","0.8","0.4","0.3703049055","0.2385277364","0.1108499649","0.2454982057","","","","","","","","","","","","","","72","H","0","img/none_selected.jpg","","136","main_expt",""
"","bandit","216","450296","0.0-178.0-0.0","82364786","wem/bandit_party_1","A4IH4CO046EV3","either","8","240","","","","","","","0","0","1","","0.3657944308","0.6","0.2","0.8","0.4","0.3657944308","0.1935782534","0.1208727618","0.2708690816","","","","","","","","","","","","","","72","H","0","img/none_selected.jpg","","137","main_expt",""
"","bandit","217","451942","0.0-179.0-0.0","82364786","wem/bandit_party_1","A4IH4CO046EV3","either","8","141","","","","","","","1","0","0","0.3452946514","","0.6","0.2","0.8","0.4","","","","","0.3452946514","0.14087624","0.1098805161","0.2219039101","","","","","","","","","","72","H","0","img/none_selected.jpg","","138","main_expt",""
"","bandit","218","453551","0.0-180.0-0.0","82364786","wem/bandit_party_1","A4IH4CO046EV3","either","8","103","","","","","","","0","1","0","","0.3225052804","0.6","0.2","0.8","0.4","0.3225052804","0.1340930794","0.1359731218","0.2485571535","","","","","","","","","","","","","","72","H","0","img/none_selected.jpg","","139","main_expt",""
"","bandit","219","455185","0.0-181.0-0.0","82364786","wem/bandit_party_1","A4IH4CO046EV3","either","8","127","","","","","","","0","0","1","0.2997250911","","0.6","0.2","0.8","0.4","","","","","0.2997250911","0.1170750994","0.1419248406","0.2605640439","","","","","","","","","","72","H","0","img/none_selected.jpg","","140","main_expt",""
"","bandit","220","456743","0.0-182.0-0.0","82364786","wem/bandit_party_1","A4IH4CO046EV3","either","8","52","","","","","","","0","0","1","0.311933389","","0.6","0.2","0.8","0.4","","","","","0.311933389","0.1316830279","0.1269577117","0.2260680923","","","","","","","","","","72","H","0","img/none_selected.jpg","","141","main_expt",""
"","bandit","221","458329","0.0-183.0-0.0","82364786","wem/bandit_party_1","A4IH4CO046EV3","either","8","81","","","","","","","1","0","0","0.3442568425","","0.6","0.2","0.8","0.4","","","","","0.3442568425","0.09490366034","0.1073819056","0.2354846983","","","","","","","","","","72","H","0","img/none_selected.jpg","","142","main_expt",""
"","bandit","222","460115","0.0-184.0-0.0","82364786","wem/bandit_party_1","A4IH4CO046EV3","either","8","280","","","","","","","0","0","1","","0.3117203045","0.6","0.2","0.8","0.4","0.3117203045","0.1246024154","0.1152767294","0.2089358464","","","","","","","","","","","","","","72","H","0","img/none_selected.jpg","","143","main_expt",""
"","bandit","223","461942","0.0-185.0-0.0","82364786","wem/bandit_party_1","A4IH4CO046EV3","either","8","321","","","","","","","1","0","0","0.3080771123","","0.6","0.2","0.8","0.4","","","","","0.3080771123","0.1179874238","0.1317444946","0.1844607625","","","","","","","","","","72","H","0","img/none_selected.jpg","","144","main_expt",""
"","bandit","224","463702","0.0-186.0-0.0","82364786","wem/bandit_party_1","A4IH4CO046EV3","either","8","253","","","","","","","0","0","1","0.3146876691","","0.6","0.2","0.8","0.4","","","","","0.3146876691","0.1211842963","0.1058600218","0.1940384654","","","","","","","","","","72","H","0","img/none_selected.jpg","","145","main_expt",""
"","bandit","225","465298","0.0-187.0-0.0","82364786","wem/bandit_party_1","A4IH4CO046EV3","either","8","90","","","","","","","0","0","1","0.3526806189","","0.6","0.2","0.8","0.4","","","","","0.3526806189","0.06212451067","0.1862633901","0.2532022814","","","","","","","","","","72","H","0","img/none_selected.jpg","","146","main_expt",""
"","bandit","226","466958","0.0-188.0-0.0","82364786","wem/bandit_party_1","A4IH4CO046EV3","either","8","154","","","","","","","0","0","1","","0.05826033827","0.6","0.2","0.8","0.4","0.3859334927","0.05826033827","0.1944793183","0.272856749","","","","","","","","","","","","","","74","J","1","","","147","main_expt",""
"","bandit","227","468566","0.0-189.0-0.0","82364786","wem/bandit_party_1","A4IH4CO046EV3","either","8","101","","","","","","","0","1","0","","0.4089873985","0.6","0.2","0.8","0.4","0.4089873985","0.04847575149","0.1572605535","0.2441255329","","","","","","","","","","","","","","72","H","0","img/none_selected.jpg","","148","main_expt",""
"","bandit","228","470342","0.0-190.0-0.0","82364786","wem/bandit_party_1","A4IH4CO046EV3","either","8","270","","","","","","","0","1","0","","0.3317076441","0.6","0.2","0.8","0.4","0.3317076441","0.07397138717","0.1632070519","0.2304797635","","","","","","","","","","","","","","72","H","0","img/none_selected.jpg","","149","main_expt",""
"","bandit","229","472147","0.0-191.0-0.0","82364786","wem/bandit_party_1","A4IH4CO046EV3","either","8","299","","","","","","","0","0","1","0.2514439341","","0.6","0.2","0.8","0.4","","","","","0.2514439341","0.1178437277","0.2162169298","0.2645424191","","","","","","","","","","72","H","0","img/none_selected.jpg","","150","main_expt",""
"","bandit","230","473919","0.0-192.0-0.0","82364786","wem/bandit_party_1","A4IH4CO046EV3","either","8","265","","","","","","","0","0","1","","0.2209696772","0.6","0.2","0.8","0.4","0.2209696772","0.1116740648","0.2806681102","0.2919476008","","","","","","","","","","","","","","72","H","0","img/none_selected.jpg","","151","main_expt",""
"","bandit","231","475553","0.0-193.0-0.0","82364786","wem/bandit_party_1","A4IH4CO046EV3","either","8","127","","","","","","","0","0","1","","0.09681320826","0.6","0.2","0.8","0.4","0.2004300668","0.09681320826","0.25223767","0.3004198658","","","","","","","","","","","","","","74","J","1","","","152","main_expt",""
"","bandit","232","477332","0.0-194.0-0.0","82364786","wem/bandit_party_1","A4IH4CO046EV3","either","8","274","","","","","","","1","0","0","0.1803159607","","0.6","0.2","0.8","0.4","","","","","0.1803159607","0.1162344283","0.2259503681","0.2910243242","","","","","","","","","","72","H","0","img/none_selected.jpg","","153","main_expt",""
"","bandit","233","479165","0.0-195.0-0.0","82364786","wem/bandit_party_1","A4IH4CO046EV3","either","8","327","","","","","","","1","0","0","0.1793353988","","0.6","0.2","0.8","0.4","","","","","0.1793353988","0.1441765144","0.2520515582","0.2858680692","","","","","","","","","","72","H","0","img/none_selected.jpg","","154","main_expt",""
"","bandit","234","480971","0.0-196.0-0.0","82364786","wem/bandit_party_1","A4IH4CO046EV3","either","8","300","","","","","","","0","0","1","","0.175125938","0.6","0.2","0.8","0.4","0.175125938","0.1506434262","0.246895917","0.276906037","","","","","","","","","","","","","","72","H","0","img/none_selected.jpg","","155","main_expt",""
"","bandit","235","482734","0.0-197.0-0.0","82364786","wem/bandit_party_1","A4IH4CO046EV3","either","8","256","","","","","","","0","0","1","0.19004546","","0.6","0.2","0.8","0.4","","","","","0.19004546","0.1691825384","0.2067462234","0.3087514371","","","","","","","","","","72","H","0","img/none_selected.jpg","","156","main_expt",""
"","bandit","236","484432","0.0-198.0-0.0","82364786","wem/bandit_party_1","A4IH4CO046EV3","either","8","191","","","","","","","0","0","1","0.1736677602","","0.6","0.2","0.8","0.4","","","","","0.1538528063","0.1465267651","0.1736677602","0.3400763937","","","","","","","","","","75","K","2","","","157","main_expt",""
"","bandit","237","486051","0.0-199.0-0.0","82364786","wem/bandit_party_1","A4IH4CO046EV3","either","8","112","","","","","","","0","0","1","0.3388441277","","0.6","0.2","0.8","0.4","","","","","0.1624419901","0.1517260174","0.2437422656","0.3388441277","","","","","","","","","","76","L","3","","","158","main_expt",""
"","bandit","238","487678","0.0-200.0-0.0","82364786","wem/bandit_party_1","A4IH4CO046EV3","either","8","121","","","","","","","0","0","1","0.2627628197","","0.6","0.2","0.8","0.4","","","","","0.1749682205","0.143579764","0.2627628197","0.3496437485","","","","","","","","","","75","K","2","","","159","main_expt",""
"","bandit","239","489204","0.0-201.0-0.0","82364786","wem/bandit_party_1","A4IH4CO046EV3","either","8","20","","","","","","","0","1","0","","0.3347491532","0.6","0.2","0.8","0.4","0.2227833177","0.1701049762","0.2532756584","0.3347491532","","","","","","","","","","","","","","76","L","3","","","160","main_expt",""
"","bandit","240","490774","0.0-202.0-0.0","82364786","wem/bandit_party_1","A4IH4CO046EV3","either","8","62","","","","","","","0","0","1","0.3036625801","","0.6","0.2","0.8","0.4","","","","","0.1616195486","0.1596038406","0.2846030245","0.3036625801","","","","","","","","","","76","L","3","","","161","main_expt",""
"","bandit","241","492330","0.0-203.0-0.0","82364786","wem/bandit_party_1","A4IH4CO046EV3","either","8","49","","","","","","","1","0","0","0.2735804545","","0.6","0.2","0.8","0.4","","","","","0.1440802068","0.1186271452","0.2480450928","0.2735804545","","","","","","","","","","76","L","3","","","162","main_expt",""
"","bandit","242","493949","0.0-204.0-0.0","82364786","wem/bandit_party_1","A4IH4CO046EV3","either","8","114","","","","","","","0","0","1","","0.2219233964","0.6","0.2","0.8","0.4","0.1349250059","0.1460830151","0.3217860246","0.2219233964","","","","","","","","","","","","","","76","L","3","","","163","main_expt",""
"","bandit","243","495636","0.0-205.0-0.0","82364786","wem/bandit_party_1","A4IH4CO046EV3","either","8","178","","","","","","","0","0","1","","0.2489701673","0.6","0.2","0.8","0.4","0.1482528248","0.1924179555","0.3528623486","0.2489701673","","","","","","","","","","","","","","76","L","3","","","164","main_expt",""
"","bandit","244","497316","0.0-206.0-0.0","82364786","wem/bandit_party_1","A4IH4CO046EV3","either","8","173","","","","","","","0","0","1","","0.2424219606","0.6","0.2","0.8","0.4","0.1444116863","0.1909643941","0.3113737792","0.2424219606","","","","","","","","","","","","","","76","L","3","","","165","main_expt",""
"","bandit","245","498903","0.0-207.0-0.0","82364786","wem/bandit_party_1","A4IH4CO046EV3","either","8","81","","","","","","","0","0","1","","0.1899742571","0.6","0.2","0.8","0.4","0.1621449425","0.1917506842","0.2820045276","0.1899742571","","","","","","","","","","","","","","76","L","3","","","166","main_expt",""
"","bandit","246","500520","0.0-208.0-0.0","82364786","wem/bandit_party_1","A4IH4CO046EV3","either","8","111","","","","","","","0","0","1","0.1695256229","","0.6","0.2","0.8","0.4","","","","","0.1695256229","0.2238056512","0.2539690707","0.2298880826","","","","","","","","","","72","H","0","img/none_selected.jpg","","167","main_expt",""
"","bandit","247","502043","0.0-209.0-0.0","82364786","wem/bandit_party_1","A4IH4CO046EV3","either","8","16","","","","","","","0","0","1","0.2132240521","","0.6","0.2","0.8","0.4","","","","","0.1712445676","0.2132240521","0.2177565821","0.241220494","","","","","","","","","","74","J","1","","","168","main_expt",""
"","bandit","248","503673","0.0-210.0-0.0","82364786","wem/bandit_party_1","A4IH4CO046EV3","either","8","123","","","","","","","0","0","1","0.183214586","","0.6","0.2","0.8","0.4","","","","","0.191079104","0.1363713625","0.183214586","0.2113351254","","","","","","","","","","75","K","2","","","169","main_expt",""
"","bandit","249","505300","0.0-211.0-0.0","82364786","wem/bandit_party_1","A4IH4CO046EV3","either","8","121","","","","","","","0","0","1","","0.2224744884","0.6","0.2","0.8","0.4","0.2227666825","0.2007690262","0.1757282231","0.2224744884","","","","","","","","","","","","","","76","L","3","","","170","main_expt",""
"","bandit","250","506809","0.0-212.0-0.0","82364786","wem/bandit_party_1","A4IH4CO046EV3","either","8","1","","","","","","","0","0","1","","0.2719914804","0.6","0.2","0.8","0.4","0.2719914804","0.1238998316","0.1679331046","0.262177911","","","","","","","","","","","","","","72","H","0","img/none_selected.jpg","","171","main_expt",""
"","bandit","251","508445","0.0-213.0-0.0","82364786","wem/bandit_party_1","A4IH4CO046EV3","either","8","129","","","","","","","0","0","1","0.09746419185","","0.6","0.2","0.8","0.4","","","","","0.2330128459","0.09746419185","0.14560319","0.2822992514","","","","","","","","","","74","J","1","","","172","main_expt",""
"","bandit","252","510318","0.0-214.0-0.0","82364786","wem/bandit_party_1","A4IH4CO046EV3","either","8","365","","","","","","","0","0","1","0.1341549344","","0.6","0.2","0.8","0.4","","","","","0.2840251313","0.1018164217","0.1341549344","0.2545762091","","","","","","","","","","75","K","2","","","173","main_expt",""
"","bandit","253","511895","0.0-215.0-0.0","82364786","wem/bandit_party_1","A4IH4CO046EV3","either","8","69","","","","","","","0","0","1","","0.2838184637","0.6","0.2","0.8","0.4","0.2739042306","0.1401689619","0.1471305278","0.2838184637","","","","","","","","","","","","","","76","L","3","","","174","main_expt",""
"","bandit","254","513441","0.0-216.0-0.0","82364786","wem/bandit_party_1","A4IH4CO046EV3","either","8","40","","","","","","","0","1","0","","0.3002790513","0.6","0.2","0.8","0.4","0.3444735506","0.1697524679","0.173963405","0.3002790513","","","","","","","","","","","","","","76","L","3","","","175","main_expt",""
"","bandit","255","515130","0.0-217.0-0.0","82364786","wem/bandit_party_1","A4IH4CO046EV3","either","8","182","","","","","","","0","1","0","","0.3771690292","0.6","0.2","0.8","0.4","0.3223017316","0.1896898672","0.1821857965","0.3771690292","","","","","","","","","","","","","","76","L","3","","","176","main_expt",""
"","bandit","256","516717","0.0-218.0-0.0","82364786","wem/bandit_party_1","A4IH4CO046EV3","either","8","80","","","","","","","0","0","1","","0.4047809956","0.6","0.2","0.8","0.4","0.2964924158","0.2441254625","0.1444884472","0.4047809956","","","","","","","","","","","","","","76","L","3","","","177","main_expt",""
"","bandit","257","518285","0.0-219.0-0.0","82364786","wem/bandit_party_1","A4IH4CO046EV3","either","8","60","","","","","","","0","0","1","0.4344960837","","0.6","0.2","0.8","0.4","","","","","0.2780576925","0.2427722412","0.1207783293","0.4344960837","","","","","","","","","","76","L","3","","","178","main_expt",""
"","bandit","258","520043","0.0-220.0-0.0","82364786","wem/bandit_party_1","A4IH4CO046EV3","either","8","251","","","","","","","0","0","1","0.4287912686","","0.6","0.2","0.8","0.4","","","","","0.2859751729","0.2284650367","0.111585665","0.4287912686","","","","","","","","","","76","L","3","","","179","main_expt",""
"","bandit","259","521589","0.0-221.0-0.0","82364786","wem/bandit_party_1","A4IH4CO046EV3","either","8","40","","","","","","","0","0","1","","0.4294180747","0.6","0.2","0.8","0.4","0.283533164","0.2694081366","0.06891525065","0.4294180747","","","","","","","","","","","","","","76","L","3","","","180","main_expt",""
"","bandit","260","523358","0.0-222.0-0.0","82364786","wem/bandit_party_1","A4IH4CO046EV3","either","8","262","","","","","","","0","0","1","","0.3887332701","0.6","0.2","0.8","0.4","0.2430023428","0.2471628034","0.07407739619","0.3887332701","","","","","","","","","","","","","","76","L","3","","","181","main_expt",""
"","bandit","261","524897","0.0-223.0-0.0","82364786","wem/bandit_party_1","A4IH4CO046EV3","either","8","31","","","","","","","1","0","0","0.223254837","","0.6","0.2","0.8","0.4","","","","","0.223254837","0.275372354","0.07501704201","0.3910635387","","","","","","","","","","72","H","0","img/none_selected.jpg","","182","main_expt",""
"","bandit","262","526505","0.0-224.0-0.0","82364786","wem/bandit_party_1","A4IH4CO046EV3","either","8","100","","","","","","","0","0","1","0.2274286797","","0.6","0.2","0.8","0.4","","","","","0.2274286797","0.2378950907","0.09354103142","0.3957792538","","","","","","","","","","72","H","0","img/none_selected.jpg","","183","main_expt",""
"","bandit","263","528193","0.0-225.0-0.0","82364786","wem/bandit_party_1","A4IH4CO046EV3","either","8","182","","","","","","","0","0","1","0.2485964068","","0.6","0.2","0.8","0.4","","","","","0.2485964068","0.2611999536","0.06673830493","0.3777829694","","","","","","","","","","72","H","0","img/none_selected.jpg","","184","main_expt",""
"","bandit","264","529772","0.0-226.0-0.0","82364786","wem/bandit_party_1","A4IH4CO046EV3","either","8","72","","","","","","","0","0","1","0.2080173303","","0.6","0.2","0.8","0.4","","","","","0.2080173303","0.2799245071","0.08617836821","0.4130939835","","","","","","","","","","72","H","0","img/none_selected.jpg","","185","main_expt",""
"","bandit","265","531369","0.0-227.0-0.0","82364786","wem/bandit_party_1","A4IH4CO046EV3","either","8","90","","","","","","","0","0","1","","0.2275386122","0.6","0.2","0.8","0.4","0.2538883687","0.2275386122","0.05054014018","0.376930599","","","","","","","","","","","","","","74","J","1","","","186","main_expt",""
"","bandit","266","532996","0.0-228.0-0.0","82364786","wem/bandit_party_1","A4IH4CO046EV3","either","8","120","","","","","","","0","0","1","0.2267652077","","0.6","0.2","0.8","0.4","","","","","0.2267652077","0.2558518805","0.1101456656","0.3934592684","","","","","","","","","","72","H","0","img/none_selected.jpg","","187","main_expt",""
"","bandit","267","534539","0.0-229.0-0.0","82364786","wem/bandit_party_1","A4IH4CO046EV3","either","8","37","","","","","","","0","0","1","0.1076418148","","0.6","0.2","0.8","0.4","","","","","0.2583789709","0.2757393749","0.1076418148","0.4086060551","","","","","","","","","","75","K","2","","","188","main_expt",""
"","bandit","268","536128","0.0-230.0-0.0","82364786","wem/bandit_party_1","A4IH4CO046EV3","either","8","81","","","","","","","1","0","0","0.447145564","","0.6","0.2","0.8","0.4","","","","","0.2329768584","0.3326758055","0.1230456027","0.447145564","","","","","","","","","","76","L","3","","","189","main_expt",""
"","bandit","269","537767","0.0-231.0-0.0","82364786","wem/bandit_party_1","A4IH4CO046EV3","either","8","132","","","","","","","0","0","1","","0.386091063","0.6","0.2","0.8","0.4","0.2002510669","0.332927569","0.1872873117","0.386091063","","","","","","","","","","","","","","76","L","3","","","190","main_expt",""
"","bandit","270","539313","0.0-232.0-0.0","82364786","wem/bandit_party_1","A4IH4CO046EV3","either","8","39","","","","","","","0","0","1","0.1413073252","","0.6","0.2","0.8","0.4","","","","","0.2182600554","0.3859199101","0.1413073252","0.4221145333","","","","","","","","","","75","K","2","","","191","main_expt",""
"","bandit","271","540923","0.0-233.0-0.0","82364786","wem/bandit_party_1","A4IH4CO046EV3","either","8","103","","","","","","","1","0","0","0.3913199708","","0.6","0.2","0.8","0.4","","","","","0.2681613901","0.392668484","0.1868627967","0.3913199708","","","","","","","","","","76","L","3","","","192","main_expt",""
"","bandit","272","542541","0.0-234.0-0.0","82364786","wem/bandit_party_1","A4IH4CO046EV3","either","8","110","","","","","","","1","0","0","0.4013624592","","0.6","0.2","0.8","0.4","","","","","0.3035027483","0.3789843676","0.2312719224","0.4013624592","","","","","","","","","","76","L","3","","","193","main_expt",""
"","bandit","273","544167","0.0-235.0-0.0","82364786","wem/bandit_party_1","A4IH4CO046EV3","either","8","120","","","","","","","0","0","1","","0.3668237699","0.6","0.2","0.8","0.4","0.275531754","0.3689216281","0.2585201677","0.3668237699","","","","","","","","","","","","","","76","L","3","","","194","main_expt",""
"","bandit","274","545761","0.0-236.0-0.0","82364786","wem/bandit_party_1","A4IH4CO046EV3","either","8","87","","","","","","","0","0","1","0.3856266791","","0.6","0.2","0.8","0.4","","","","","0.2716401532","0.4136905162","0.2786104129","0.3856266791","","","","","","","","","","76","L","3","","","195","main_expt",""
"","bandit","275","547412","0.0-237.0-0.0","82364786","wem/bandit_party_1","A4IH4CO046EV3","either","8","144","","","","","","","0","0","1","","0.3702439493","0.6","0.2","0.8","0.4","0.2814611543","0.4258575101","0.2407834285","0.3702439493","","","","","","","","","","","","","","76","L","3","","","196","main_expt",""
"","bandit","276","549101","0.0-238.0-0.0","82364786","wem/bandit_party_1","A4IH4CO046EV3","either","8","183","","","","","","","1","0","0","0.3665926528","","0.6","0.2","0.8","0.4","","","","","0.2588010394","0.3976178043","0.2550568011","0.3665926528","","","","","","","","","","76","L","3","","","197","main_expt",""
"","bandit","277","550739","0.0-239.0-0.0","82364786","wem/bandit_party_1","A4IH4CO046EV3","either","8","131","","","","","","","0","1","0","","0.3432124584","0.6","0.2","0.8","0.4","0.3094610495","0.3802378075","0.3094863904","0.3432124584","","","","","","","","","","","","","","76","L","3","","","198","main_expt",""
"","bandit","278","552366","0.0-240.0-0.0","82364786","wem/bandit_party_1","A4IH4CO046EV3","either","8","119","","","","","","","0","0","1","","0.4096574544","0.6","0.2","0.8","0.4","0.3139278769","0.3926800246","0.3012985694","0.4096574544","","","","","","","","","","","","","","76","L","3","","","199","main_expt",""
"","bandit","279","553974","0.0-241.0-0.0","82364786","wem/bandit_party_1","A4IH4CO046EV3","either","8","97","","","","","","","0","0","1","0.3799023259","","0.6","0.2","0.8","0.4","","","","","0.3459706187","0.3814844917","0.3149132519","0.3799023259","","","","","","","","","","76","L","3","","","200","main_expt",""
"","bandit","280","555670","0.0-242.0-0.0","82364786","wem/bandit_party_1","A4IH4CO046EV3","either","8","190","","","","","","","0","0","1","","0.3513783521","0.6","0.2","0.8","0.4","0.3038365479","0.3831630738","0.3236307962","0.3513783521","","","","","","","","","","","","","","76","L","3","","","201","main_expt",""
"","bandit","281","557307","0.0-243.0-0.0","82364786","wem/bandit_party_1","A4IH4CO046EV3","either","8","130","","","","","","","0","0","1","0.3439351057","","0.6","0.2","0.8","0.4","","","","","0.2964599608","0.3957430938","0.3163717903","0.3439351057","","","","","","","","","","76","L","3","","","202","main_expt",""
"","bandit","282","559056","0.0-244.0-0.0","82364786","wem/bandit_party_1","A4IH4CO046EV3","either","8","243","","","","","","","0","0","1","","0.2615327891","0.6","0.2","0.8","0.4","0.280336616","0.4175506619","0.3165936227","0.2615327891","","","","","","","","","","","","","","76","L","3","","","203","main_expt",""
"","bandit","283","560676","0.0-245.0-0.0","82364786","wem/bandit_party_1","A4IH4CO046EV3","either","8","113","","","","","","","0","0","1","0.262900641","","0.6","0.2","0.8","0.4","","","","","0.262900641","0.4356800279","0.3166231072","0.2211517471","","","","","","","","","","72","H","0","img/none_selected.jpg","","204","main_expt",""
"","bandit","284","562334","0.0-246.0-0.0","82364786","wem/bandit_party_1","A4IH4CO046EV3","either","8","151","","","","","","","0","1","0","","0.4342993254","0.6","0.2","0.8","0.4","0.3403150927","0.4342993254","0.2983153058","0.1955747294","","","","","","","","","","","","","","74","J","1","","","205","main_expt",""
"","bandit","285","563922","0.0-247.0-0.0","82364786","wem/bandit_party_1","A4IH4CO046EV3","either","8","80","","","","","","","1","0","0","0.4515967499","","0.6","0.2","0.8","0.4","","","","","0.3407188883","0.4515967499","0.255573156","0.3137251184","","","","","","","","","","74","J","1","","","206","main_expt",""
"","bandit","286","565489","0.0-248.0-0.0","82364786","wem/bandit_party_1","A4IH4CO046EV3","either","8","59","","","","","","","0","0","1","","0.4559700358","0.6","0.2","0.8","0.4","0.2955601217","0.4559700358","0.2816724171","0.2982459604","","","","","","","","","","","","","","74","J","1","","","207","main_expt",""
"","bandit","287","567317","0.0-249.0-0.0","82364786","wem/bandit_party_1","A4IH4CO046EV3","either","8","320","","","","","","","0","1","0","","0.4711787588","0.6","0.2","0.8","0.4","0.2832193826","0.4711787588","0.2462622089","0.2359404152","","","","","","","","","","","","","","74","J","1","","","208","main_expt",""
"","bandit","288","568992","0.0-250.0-0.0","82364786","wem/bandit_party_1","A4IH4CO046EV3","either","8","166","","","","","","","0","1","0","","0.4859779177","0.6","0.2","0.8","0.4","0.25637755","0.4859779177","0.2608633631","0.2396635106","","","","","","","","","","","","","","74","J","1","","","209","main_expt",""
"","bandit","289","570567","0.0-251.0-0.0","82364786","wem/bandit_party_1","A4IH4CO046EV3","either","8","68","","","","","","","0","1","0","","0.4798195452","0.6","0.2","0.8","0.4","0.2500912527","0.4798195452","0.2649708152","0.2320506775","","","","","","","","","","","","","","74","J","1","","","210","main_expt",""
"","bandit","290","572377","0.0-252.0-0.0","82364786","wem/bandit_party_1","A4IH4CO046EV3","either","8","299","","","","","","","0","1","0","","0.4754072522","0.6","0.2","0.8","0.4","0.2481129288","0.4754072522","0.2658594566","0.1894847828","","","","","","","","","","","","","","74","J","1","","","211","main_expt",""
"","bandit","291","573954","0.0-253.0-0.0","82364786","wem/bandit_party_1","A4IH4CO046EV3","either","8","70","","","","","","","1","0","0","0.4780703898","","0.6","0.2","0.8","0.4","","","","","0.3192168596","0.4780703898","0.2648449814","0.2330804604","","","","","","","","","","74","J","1","","","212","main_expt",""
"","bandit","292","575550","0.0-254.0-0.0","82364786","wem/bandit_party_1","A4IH4CO046EV3","either","8","88","","","","","","","0","1","0","","0.4883488692","0.6","0.2","0.8","0.4","0.2361953268","0.4883488692","0.286492297","0.2484053244","","","","","","","","","","","","","","74","J","1","","","213","main_expt",""
"","bandit","293","577268","0.0-255.0-0.0","82364786","wem/bandit_party_1","A4IH4CO046EV3","either","8","210","","","","","","","0","0","1","","0.4872562331","0.6","0.2","0.8","0.4","0.2308921763","0.4872562331","0.2540339129","0.2182548364","","","","","","","","","","","","","","74","J","1","","","214","main_expt",""
"","bandit","294","578785","0.0-256.0-0.0","82364786","wem/bandit_party_1","A4IH4CO046EV3","either","8","10","","","","","","","0","0","1","0.4749609167","","0.6","0.2","0.8","0.4","","","","","0.2161033537","0.4749609167","0.254651127","0.1824073789","","","","","","","","","","74","J","1","","","215","main_expt",""
"","bandit","295","580476","0.0-257.0-0.0","82364786","wem/bandit_party_1","A4IH4CO046EV3","either","8","184","","","","","","","0","1","0","","0.4798413464","0.6","0.2","0.8","0.4","0.1896756427","0.4798413464","0.3140517816","0.1923730387","","","","","","","","","","","","","","74","J","1","","","216","main_expt",""
"","bandit","296","582134","0.0-258.0-0.0","82364786","wem/bandit_party_1","A4IH4CO046EV3","either","8","150","","","","","","","0","0","1","","0.4865144435","0.6","0.2","0.8","0.4","0.1724286307","0.4865144435","0.3338676317","0.2266612446","","","","","","","","","","","","","","74","J","1","","","217","main_expt",""
"","bandit","297","583770","0.0-259.0-0.0","82364786","wem/bandit_party_1","A4IH4CO046EV3","either","8","130","","","","","","","0","1","0","","0.4789145001","0.6","0.2","0.8","0.4","0.161168334","0.4789145001","0.3397001125","0.1702705737","","","","","","","","","","","","","","74","J","1","","","218","main_expt",""
"","bandit","298","585544","0.0-260.0-0.0","82364786","wem/bandit_party_1","A4IH4CO046EV3","either","8","265","","","","","","","0","0","1","","0.4834748692","0.6","0.2","0.8","0.4","0.2021763003","0.4834748692","0.2982528089","0.1159766116","","","","","","","","","","","","","","74","J","1","","","219","main_expt",""
"","bandit","299","587241","0.0-261.0-0.0","82364786","wem/bandit_party_1","A4IH4CO046EV3","either","8","191","","","","","","","0","0","1","","0.4722371777","0.6","0.2","0.8","0.4","0.2142164272","0.4722371777","0.2770934022","0.09529473055","","","","","","","","","","","","","","74","J","1","","","220","main_expt",""
"","bandit","300","588784","0.0-262.0-0.0","82364786","wem/bandit_party_1","A4IH4CO046EV3","either","8","35","","","","","","","0","0","1","","0.4654689219","0.6","0.2","0.8","0.4","0.189068297","0.4654689219","0.2696770889","0.09060922323","","","","","","","","","","","","","","74","J","1","","","221","main_expt",""
"","bandit","301","590538","0.0-263.0-0.0","82364786","wem/bandit_party_1","A4IH4CO046EV3","either","8","247","","","","","","","0","0","1","","0.4533789701","0.6","0.2","0.8","0.4","0.2120997892","0.4533789701","0.3103502417","0.1250772464","","","","","","","","","","","","","","74","J","1","","","222","main_expt",""
"","bandit","302","592165","0.0-264.0-0.0","82364786","wem/bandit_party_1","A4IH4CO046EV3","either","8","121","","","","","","","1","0","0","0.3477728299","","0.6","0.2","0.8","0.4","","","","","0.1937664477","0.4473019993","0.3477728299","0.1177235221","","","","","","","","","","75","K","2","","","223","main_expt",""
"","bandit","303","593923","0.0-265.0-0.0","82364786","wem/bandit_party_1","A4IH4CO046EV3","either","8","252","","","","","","","0","0","1","0.3230244909","","0.6","0.2","0.8","0.4","","","","","0.2195846313","0.4651086175","0.3230244909","0.1589673504","","","","","","","","","","75","K","2","","","224","main_expt",""
"","bandit","304","595693","0.0-266.0-0.0","82364786","wem/bandit_party_1","A4IH4CO046EV3","either","8","261","","","","","","","1","0","0","0.3641913847","","0.6","0.2","0.8","0.4","","","","","0.1973587738","0.4704934375","0.3641913847","0.1582937281","","","","","","","","","","75","K","2","","","225","main_expt",""
"","bandit","305","597410","0.0-267.0-0.0","82364786","wem/bandit_party_1","A4IH4CO046EV3","either","8","210","","","","","","","0","0","1","0.3211822138","","0.6","0.2","0.8","0.4","","","","","0.2029059012","0.4545632724","0.3211822138","0.1585786296","","","","","","","","","","75","K","2","","","226","main_expt",""
"","bandit","306","599054","0.0-268.0-0.0","82364786","wem/bandit_party_1","A4IH4CO046EV3","either","8","137","","","","","","","0","0","1","","0.1614007709","0.6","0.2","0.8","0.4","0.1677618241","0.4313330006","0.3318596792","0.1614007709","","","","","","","","","","","","","","76","L","3","","","227","main_expt",""
"","bandit","307","600678","0.0-269.0-0.0","82364786","wem/bandit_party_1","A4IH4CO046EV3","either","8","115","","","","","","","0","0","1","","0.1160982884","0.6","0.2","0.8","0.4","0.2079318551","0.4253897179","0.3715738924","0.1160982884","","","","","","","","","","","","","","76","L","3","","","228","main_expt",""
"","bandit","308","602214","0.0-270.0-0.0","82364786","wem/bandit_party_1","A4IH4CO046EV3","either","8","28","","","","","","","0","0","1","0.3571583743","","0.6","0.2","0.8","0.4","","","","","0.1860779256","0.4416009531","0.3571583743","0.1327168588","","","","","","","","","","75","K","2","","","229","main_expt",""
"","bandit","309","603902","0.0-271.0-0.0","82364786","wem/bandit_party_1","A4IH4CO046EV3","either","8","181","","","","","","","0","0","1","0.1294985144","","0.6","0.2","0.8","0.4","","","","","0.1294985144","0.4612445757","0.3455313741","0.1751239199","","","","","","","","","","72","H","0","img/none_selected.jpg","","230","main_expt",""
"","bandit","310","605582","0.0-272.0-0.0","82364786","wem/bandit_party_1","A4IH4CO046EV3","either","8","173","","","","","","","0","0","1","","0.4455927364","0.6","0.2","0.8","0.4","0.1424139305","0.4455927364","0.3114256563","0.2080149414","","","","","","","","","","","","","","74","J","1","","","231","main_expt",""
"","bandit","311","607219","0.0-273.0-0.0","82364786","wem/bandit_party_1","A4IH4CO046EV3","either","8","129","","","","","","","0","0","1","","0.1777617008","0.6","0.2","0.8","0.4","0.1777617008","0.4449483857","0.3127001645","0.2305008548","","","","","","","","","","","","","","72","H","0","img/none_selected.jpg","","232","main_expt",""
"","bandit","312","608847","0.0-274.0-0.0","82364786","wem/bandit_party_1","A4IH4CO046EV3","either","8","121","","","","","","","0","0","1","","0.1408291819","0.6","0.2","0.8","0.4","0.1408291819","0.4570404202","0.2953609795","0.2331895239","","","","","","","","","","","","","","72","H","0","img/none_selected.jpg","","233","main_expt",""
"","bandit","313","610375","0.0-275.0-0.0","82364786","wem/bandit_party_1","A4IH4CO046EV3","either","8","19","","","","","","","0","1","0","","0.4785018613","0.6","0.2","0.8","0.4","0.09563300426","0.4785018613","0.2743769666","0.2007149185","","","","","","","","","","","","","","74","J","1","","","234","main_expt",""
"","bandit","314","612052","0.0-276.0-0.0","82364786","wem/bandit_party_1","A4IH4CO046EV3","either","8","169","","","","","","","0","0","1","0.06508254785","","0.6","0.2","0.8","0.4","","","","","0.06508254785","0.4708517218","0.2842570603","0.1428876463","","","","","","","","","","72","H","0","img/none_selected.jpg","","235","main_expt",""
"","bandit","315","613561","0.0-277.0-0.0","82364786","wem/bandit_party_1","A4IH4CO046EV3","either","8","0","","","","","","","0","0","1","0.4721911582","","0.6","0.2","0.8","0.4","","","","","0.05272484418","0.4721911582","0.3536106974","0.1327756685","","","","","","","","","","74","J","1","","","236","main_expt",""
"","bandit","316","615069","0.0-278.0-0.0","82364786","wem/bandit_party_1","A4IH4CO046EV3","either","8","0","","","","","","","0","0","1","","0.3777879982","0.6","0.2","0.8","0.4","0.05000735717","0.4567984566","0.3777879982","0.1969646424","","","","","","","","","","","","","","75","K","2","","","237","main_expt",""
"","bandit","317","616649","0.0-279.0-0.0","82364786","wem/bandit_party_1","A4IH4CO046EV3","either","8","72","","","","","","","0","0","1","","0.2040955009","0.6","0.2","0.8","0.4","0.03409798278","0.4601910044","0.3819628943","0.2040955009","","","","","","","","","","","","","","76","L","3","","","238","main_expt",""
