"consent","trial_type","trial_index","time_elapsed","internal_node_id","subjID","study","MID","cond","drift","rt","responses","button_pressed","key_press","like","value","connected","gems","bombs","no_reward","GemPrChosen","BombPrChosen","GainOverPainPr_0","GainOverPainPr_1","GainOverPainPr_2","GainOverPainPr_3","LosePr_0","LosePr_1","LosePr_2","LosePr_3","WinPr_0","WinPr_1","WinPr_2","WinPr_3","Q0","Q1","Q2","gender","age","ethnicity","label","expt_phase","target","respCharCode","respKey","respChoiceNum","respChoice","practice","trial_counter","trial_label","Q0_index"
"GDM/GDM_behavioral_consent_30min_online.html","consent","0","42805","0.0-0.0","82906598","wem/bandit_party_1","A3OXRDSUN9F10I","either","4","","","","","","","","","","","","","","","","","","","","","","","","","","","","","","","","","","","","","","","","",""
"","survey-text","1","51266","0.0-1.0","82906598","wem/bandit_party_1","A3OXRDSUN9F10I","either","4","7453","{""Q0"":""A3OXRDSUN9F10I""}","","","","","","","","","","","","","","","","","","","","","","","","","","","","","","","","","","","","","","",""
"","button-response","2","54384","0.0-2.0","82906598","wem/bandit_party_1","A3OXRDSUN9F10I","either","4","2109","","0","","","","","","","","","","","","","","","","","","","","","","","","","","","","","","","","","","","","","",""
"","text-replacement","3","66172","0.0-3.0","82906598","wem/bandit_party_1","A3OXRDSUN9F10I","either","4","10786","","","32","","","","","","","","","","","","","","","","","","","","","","","","","","","","","","","","","","","","",""
"","text-replacement","4","81885","0.0-4.0","82906598","wem/bandit_party_1","A3OXRDSUN9F10I","either","4","15710","","","32","","","","","","","","","","","","","","","","","","","","","","","","","","","","","","","","","","","","",""
"","identification","5","91846","0.0-6.0-0.0","82906598","wem/bandit_party_1","A3OXRDSUN9F10I","either","4","9944","","","","4","4","3","","","","","","","","","","","","","","","","","","","","","","","","pre","identification_pre","the Republican party","","","","","","","",""
"","identification","6","102989","0.0-6.0-1.0","82906598","wem/bandit_party_1","A3OXRDSUN9F10I","either","4","10124","","","","2","4","2","","","","","","","","","","","","","","","","","","","","","","","","pre","identification_pre","the Democratic Party","","","","","","","",""
"","text-replacement","7","113334","0.0-7.0","82906598","wem/bandit_party_1","A3OXRDSUN9F10I","either","4","9343","","","32","","","","","","","","","","","","","","","","","","","","","","","","","","","","","","","","","","","","",""
"","text-replacement","8","122813","0.0-8.0","82906598","wem/bandit_party_1","A3OXRDSUN9F10I","either","4","9475","","","32","","","","","","","","","","","","","","","","","","","","","","","","","","","","","","","","","","","","",""
"","text-replacement","9","135271","0.0-9.0","82906598","wem/bandit_party_1","A3OXRDSUN9F10I","either","4","12454","","","32","","","","","","","","","","","","","","","","","","","","","","","","","","","","","","","","","","","","",""
"","text-replacement","10","141180","0.0-10.0","82906598","wem/bandit_party_1","A3OXRDSUN9F10I","either","4","5907","","","32","","","","","","","","","","","","","","","","","","","","","","","","","","","","","","","","","","","","",""
"","text-replacement","11","147526","0.0-11.0","82906598","wem/bandit_party_1","A3OXRDSUN9F10I","either","4","6341","","","32","","","","","","","","","","","","","","","","","","","","","","","","","","","","","","","","","","","","",""
"","bandit","12","151036","0.0-12.0-0.0","82906598","wem/bandit_party_1","A3OXRDSUN9F10I","either","4","1998","","","","","","","0","0","1","0","0","","","","","0","","","","0","","","","","","","","","","","","","74","J","0","img/none_selected_demo.jpg","true","0","",""
"","bandit","13","153545","0.0-13.0-0.0","82906598","wem/bandit_party_1","A3OXRDSUN9F10I","either","4","1003","","","","","","","0","0","1","0","0","","","","","0","","","","0","","","","","","","","","","","","","75","K","0","img/none_selected_demo.jpg","true","0","",""
"","text-replacement","14","226383","0.0-14.0","82906598","wem/bandit_party_1","A3OXRDSUN9F10I","either","4","72836","","","32","","","","","","","","","","","","","","","","","","","","","","","","","","","","","","","","","","","","",""
"","text-replacement","15","235790","0.0-15.0","82906598","wem/bandit_party_1","A3OXRDSUN9F10I","either","4","9403","","","32","","","","","","","","","","","","","","","","","","","","","","","","","","","","","","","","","","","","",""
"","text-replacement","16","243870","0.0-16.0","82906598","wem/bandit_party_1","A3OXRDSUN9F10I","either","4","8078","","","32","","","","","","","","","","","","","","","","","","","","","","","","","","","","","","","","","","","","",""
"","text-replacement","17","247141","0.0-17.0","82906598","wem/bandit_party_1","A3OXRDSUN9F10I","either","4","3270","","","32","","","","","","","","","","","","","","","","","","","","","","","","","","","","","","","","","","","","",""
"","bandit","18","250131","0.0-18.0-0.0","82906598","wem/bandit_party_1","A3OXRDSUN9F10I","either","4","1484","","","","","","","1","0","0","0.8","","0.5","0.5","","","","","","","0.8","0.2","","","","","","","","","","","","74","J","0","img/none_selected_demo.jpg","true","0","80_20_practice",""
"","bandit","19","252053","0.0-18.0-1.0","82906598","wem/bandit_party_1","A3OXRDSUN9F10I","either","4","411","","","","","","","0","1","0","","0.8","0.5","0.5","","","0.8","0.2","","","","","","","","","","","","","","","","74","J","0","img/none_selected_demo.jpg","true","0","80_20_practice",""
"","bandit","20","256982","0.0-18.0-2.0","82906598","wem/bandit_party_1","A3OXRDSUN9F10I","either","4","3424","","","","","","","1","0","0","0.8","","0.5","0.5","","","","","","","0.8","0.2","","","","","","","","","","","","74","J","0","img/none_selected_demo.jpg","true","0","80_20_practice",""
"","bandit","21","259019","0.0-18.0-3.0","82906598","wem/bandit_party_1","A3OXRDSUN9F10I","either","4","531","","","","","","","1","0","0","0.8","","0.5","0.5","","","","","","","0.8","0.2","","","","","","","","","","","","74","J","0","img/none_selected_demo.jpg","true","0","80_20_practice",""
"","bandit","22","260883","0.0-18.0-4.0","82906598","wem/bandit_party_1","A3OXRDSUN9F10I","either","4","355","","","","","","","0","1","0","","0.8","0.5","0.5","","","0.8","0.2","","","","","","","","","","","","","","","","74","J","0","img/none_selected_demo.jpg","true","0","80_20_practice",""
"","bandit","23","262723","0.0-18.0-5.0","82906598","wem/bandit_party_1","A3OXRDSUN9F10I","either","4","335","","","","","","","1","0","0","0.8","","0.5","0.5","","","","","","","0.8","0.2","","","","","","","","","","","","74","J","0","img/none_selected_demo.jpg","true","0","80_20_practice",""
"","bandit","24","264913","0.0-18.0-6.0","82906598","wem/bandit_party_1","A3OXRDSUN9F10I","either","4","688","","","","","","","0","0","1","0.8","","0.5","0.5","","","","","","","0.8","0.2","","","","","","","","","","","","74","J","0","img/none_selected_demo.jpg","true","0","80_20_practice",""
"","bandit","25","267822","0.0-18.0-7.0","82906598","wem/bandit_party_1","A3OXRDSUN9F10I","either","4","1404","","","","","","","1","0","0","0.8","","0.5","0.5","","","","","","","0.8","0.2","","","","","","","","","","","","74","J","0","img/none_selected_demo.jpg","true","0","80_20_practice",""
"","bandit","26","272258","0.0-18.0-8.0","82906598","wem/bandit_party_1","A3OXRDSUN9F10I","either","4","2928","","","","","","","1","0","0","0.8","","0.5","0.5","","","","","","","0.8","0.2","","","","","","","","","","","","74","J","0","img/none_selected_demo.jpg","true","0","80_20_practice",""
"","bandit","27","274883","0.0-18.0-9.0","82906598","wem/bandit_party_1","A3OXRDSUN9F10I","either","4","1118","","","","","","","0","0","1","","0.2","0.5","0.5","","","0.8","0.2","","","","","","","","","","","","","","","","75","K","1","","true","0","80_20_practice",""
"","bandit","28","276813","0.0-18.0-10.0","82906598","wem/bandit_party_1","A3OXRDSUN9F10I","either","4","421","","","","","","","1","0","0","0.2","","0.5","0.5","","","","","","","0.8","0.2","","","","","","","","","","","","75","K","1","","true","0","80_20_practice",""
"","bandit","29","278734","0.0-18.0-11.0","82906598","wem/bandit_party_1","A3OXRDSUN9F10I","either","4","412","","","","","","","0","1","0","","0.2","0.5","0.5","","","0.8","0.2","","","","","","","","","","","","","","","","75","K","1","","true","0","80_20_practice",""
"","bandit","30","280639","0.0-18.0-12.0","82906598","wem/bandit_party_1","A3OXRDSUN9F10I","either","4","393","","","","","","","1","0","0","0.2","","0.5","0.5","","","","","","","0.8","0.2","","","","","","","","","","","","75","K","1","","true","0","80_20_practice",""
"","bandit","31","283925","0.0-18.0-13.0","82906598","wem/bandit_party_1","A3OXRDSUN9F10I","either","4","1780","","","","","","","0","0","1","0.2","","0.5","0.5","","","","","","","0.8","0.2","","","","","","","","","","","","75","K","1","","true","0","80_20_practice",""
"","bandit","32","286140","0.0-18.0-14.0","82906598","wem/bandit_party_1","A3OXRDSUN9F10I","either","4","707","","","","","","","0","0","1","0.2","","0.5","0.5","","","","","","","0.8","0.2","","","","","","","","","","","","75","K","1","","true","0","80_20_practice",""
"","bandit","33","288136","0.0-18.0-15.0","82906598","wem/bandit_party_1","A3OXRDSUN9F10I","either","4","493","","","","","","","0","0","1","","0.2","0.5","0.5","","","0.8","0.2","","","","","","","","","","","","","","","","75","K","1","","true","0","80_20_practice",""
"","bandit","34","290057","0.0-18.0-16.0","82906598","wem/bandit_party_1","A3OXRDSUN9F10I","either","4","417","","","","","","","0","1","0","","0.2","0.5","0.5","","","0.8","0.2","","","","","","","","","","","","","","","","75","K","1","","true","0","80_20_practice",""
"","bandit","35","292009","0.0-18.0-17.0","82906598","wem/bandit_party_1","A3OXRDSUN9F10I","either","4","448","","","","","","","0","0","1","","0.2","0.5","0.5","","","0.8","0.2","","","","","","","","","","","","","","","","75","K","1","","true","0","80_20_practice",""
"","bandit","36","293859","0.0-18.0-18.0","82906598","wem/bandit_party_1","A3OXRDSUN9F10I","either","4","338","","","","","","","0","0","1","0.2","","0.5","0.5","","","","","","","0.8","0.2","","","","","","","","","","","","75","K","1","","true","0","80_20_practice",""
"","bandit","37","295555","0.0-18.0-19.0","82906598","wem/bandit_party_1","A3OXRDSUN9F10I","either","4","187","","","","","","","0","0","1","0.2","","0.5","0.5","","","","","","","0.8","0.2","","","","","","","","","","","","75","K","1","","true","0","80_20_practice",""
"","text-replacement","38","299271","0.0-19.0","82906598","wem/bandit_party_1","A3OXRDSUN9F10I","either","4","3713","","","32","","","","","","","","","","","","","","","","","","","","","","","","","","","","","","","","","","","","",""
"","bandit","39","302650","0.0-20.0-0.0","82906598","wem/bandit_party_1","A3OXRDSUN9F10I","either","4","1872","","","","","","","1","0","0","1","0","","","","","0","1","","","1","0","","","","","","","","","","","","74","J","0","img/none_selected_demo.jpg","true","0","",""
"","text-replacement","40","311463","0.0-21.0","82906598","wem/bandit_party_1","A3OXRDSUN9F10I","either","4","8810","","","32","","","","","","","","","","","","","","","","","","","","","","","","","","","","","","","","","","","","",""
"","text-replacement","41","317388","0.0-22.0","82906598","wem/bandit_party_1","A3OXRDSUN9F10I","either","4","5922","","","32","","","","","","","","","","","","","","","","","","","","","","","","","","","","","","","","","","","","",""
"","text-replacement","42","319916","0.0-23.0","82906598","wem/bandit_party_1","A3OXRDSUN9F10I","either","4","2523","","","32","","","","","","","","","","","","","","","","","","","","","","","","","","","","","","","","","","","","",""
"","text-replacement","43","322599","0.0-24.0","82906598","wem/bandit_party_1","A3OXRDSUN9F10I","either","4","2680","","","32","","","","","","","","","","","","","","","","","","","","","","","","","","","","","","","","","","","","",""
"","text-replacement","44","332565","0.0-25.0","82906598","wem/bandit_party_1","A3OXRDSUN9F10I","either","4","9962","","","32","","","","","","","","","","","","","","","","","","","","","","","","","","","","","","","","","","","","",""
"","text-replacement","45","336903","0.0-26.0","82906598","wem/bandit_party_1","A3OXRDSUN9F10I","either","4","4335","","","32","","","","","","","","","","","","","","","","","","","","","","","","","","","","","","","","","","","","",""
"","text-replacement","46","342373","0.0-27.0","82906598","wem/bandit_party_1","A3OXRDSUN9F10I","either","4","5467","","","32","","","","","","","","","","","","","","","","","","","","","","","","","","","","","","","","","","","","",""
"","text-replacement","47","346060","0.0-28.0","82906598","wem/bandit_party_1","A3OXRDSUN9F10I","either","4","3684","","","32","","","","","","","","","","","","","","","","","","","","","","","","","","","","","","","","","","","","",""
"","text-replacement","48","349992","0.0-29.0","82906598","wem/bandit_party_1","A3OXRDSUN9F10I","either","4","3928","","","32","","","","","","","","","","","","","","","","","","","","","","","","","","","","","","","","","","","","",""
"","text-replacement","49","352181","0.0-30.0","82906598","wem/bandit_party_1","A3OXRDSUN9F10I","either","4","2185","","","32","","","","","","","","","","","","","","","","","","","","","","","","","","","","","","","","","","","","",""
"","text-replacement","50","354205","0.0-31.0","82906598","wem/bandit_party_1","A3OXRDSUN9F10I","either","4","2022","","","32","","","","","","","","","","","","","","","","","","","","","","","","","","","","","","","","","","","","",""
"","bandit","51","357508","0.0-32.0-0.0","82906598","wem/bandit_party_1","A3OXRDSUN9F10I","either","4","1798","","","","","","","0","1","0","","0.8","0.5","0.5","0.5","0.5","0.8","0.2","0.6","0.2","","","","","","","","","","","","","","72","H","0","img/none_selected.jpg","true","0","full_practice",""
"","bandit","52","359292","0.0-32.0-1.0","82906598","wem/bandit_party_1","A3OXRDSUN9F10I","either","4","278","","","","","","","1","0","0","0.8","","0.5","0.5","0.5","0.5","","","","","0.8","0.2","0.6","0.2","","","","","","","","","","72","H","0","img/none_selected.jpg","true","0","full_practice",""
"","bandit","53","361036","0.0-32.0-2.0","82906598","wem/bandit_party_1","A3OXRDSUN9F10I","either","4","233","","","","","","","0","0","1","","0.8","0.5","0.5","0.5","0.5","0.8","0.2","0.6","0.2","","","","","","","","","","","","","","72","H","0","img/none_selected.jpg","true","0","full_practice",""
"","bandit","54","362927","0.0-32.0-3.0","82906598","wem/bandit_party_1","A3OXRDSUN9F10I","either","4","384","","","","","","","1","0","0","0.8","","0.5","0.5","0.5","0.5","","","","","0.8","0.2","0.6","0.2","","","","","","","","","","72","H","0","img/none_selected.jpg","true","0","full_practice",""
"","bandit","55","364805","0.0-32.0-4.0","82906598","wem/bandit_party_1","A3OXRDSUN9F10I","either","4","370","","","","","","","0","0","1","","0.8","0.5","0.5","0.5","0.5","0.8","0.2","0.6","0.2","","","","","","","","","","","","","","72","H","0","img/none_selected.jpg","true","0","full_practice",""
"","bandit","56","366700","0.0-32.0-5.0","82906598","wem/bandit_party_1","A3OXRDSUN9F10I","either","4","384","","","","","","","0","0","1","","0.2","0.5","0.5","0.5","0.5","0.8","0.2","0.6","0.2","","","","","","","","","","","","","","74","J","1","","true","0","full_practice",""
"","bandit","57","368531","0.0-32.0-6.0","82906598","wem/bandit_party_1","A3OXRDSUN9F10I","either","4","323","","","","","","","0","0","1","0.2","","0.5","0.5","0.5","0.5","","","","","0.8","0.2","0.6","0.2","","","","","","","","","","74","J","1","","true","0","full_practice",""
"","bandit","58","370341","0.0-32.0-7.0","82906598","wem/bandit_party_1","A3OXRDSUN9F10I","either","4","299","","","","","","","0","0","1","0.2","","0.5","0.5","0.5","0.5","","","","","0.8","0.2","0.6","0.2","","","","","","","","","","74","J","1","","true","0","full_practice",""
"","bandit","59","372229","0.0-32.0-8.0","82906598","wem/bandit_party_1","A3OXRDSUN9F10I","either","4","376","","","","","","","0","0","1","","0.6","0.5","0.5","0.5","0.5","0.8","0.2","0.6","0.2","","","","","","","","","","","","","","75","K","2","","true","0","full_practice",""
"","bandit","60","374390","0.0-32.0-9.0","82906598","wem/bandit_party_1","A3OXRDSUN9F10I","either","4","653","","","","","","","0","1","0","","0.6","0.5","0.5","0.5","0.5","0.8","0.2","0.6","0.2","","","","","","","","","","","","","","75","K","2","","true","0","full_practice",""
"","bandit","61","376235","0.0-32.0-10.0","82906598","wem/bandit_party_1","A3OXRDSUN9F10I","either","4","339","","","","","","","1","0","0","0.6","","0.5","0.5","0.5","0.5","","","","","0.8","0.2","0.6","0.2","","","","","","","","","","75","K","2","","true","0","full_practice",""
"","bandit","62","378096","0.0-32.0-11.0","82906598","wem/bandit_party_1","A3OXRDSUN9F10I","either","4","350","","","","","","","1","0","0","0.6","","0.5","0.5","0.5","0.5","","","","","0.8","0.2","0.6","0.2","","","","","","","","","","75","K","2","","true","0","full_practice",""
"","bandit","63","379982","0.0-32.0-12.0","82906598","wem/bandit_party_1","A3OXRDSUN9F10I","either","4","378","","","","","","","1","0","0","0.6","","0.5","0.5","0.5","0.5","","","","","0.8","0.2","0.6","0.2","","","","","","","","","","75","K","2","","true","0","full_practice",""
"","bandit","64","382037","0.0-32.0-13.0","82906598","wem/bandit_party_1","A3OXRDSUN9F10I","either","4","546","","","","","","","0","0","1","0.2","","0.5","0.5","0.5","0.5","","","","","0.8","0.2","0.6","0.2","","","","","","","","","","76","L","3","","true","0","full_practice",""
"","bandit","65","383925","0.0-32.0-14.0","82906598","wem/bandit_party_1","A3OXRDSUN9F10I","either","4","379","","","","","","","0","0","1","","0.2","0.5","0.5","0.5","0.5","0.8","0.2","0.6","0.2","","","","","","","","","","","","","","76","L","3","","true","0","full_practice",""
"","bandit","66","385759","0.0-32.0-15.0","82906598","wem/bandit_party_1","A3OXRDSUN9F10I","either","4","325","","","","","","","0","1","0","","0.6","0.5","0.5","0.5","0.5","0.8","0.2","0.6","0.2","","","","","","","","","","","","","","75","K","2","","true","0","full_practice",""
"","bandit","67","387562","0.0-32.0-16.0","82906598","wem/bandit_party_1","A3OXRDSUN9F10I","either","4","292","","","","","","","0","0","1","","0.6","0.5","0.5","0.5","0.5","0.8","0.2","0.6","0.2","","","","","","","","","","","","","","75","K","2","","true","0","full_practice",""
"","bandit","68","390565","0.0-32.0-17.0","82906598","wem/bandit_party_1","A3OXRDSUN9F10I","either","4","1492","","","","","","","1","0","0","0.6","","0.5","0.5","0.5","0.5","","","","","0.8","0.2","0.6","0.2","","","","","","","","","","75","K","2","","true","0","full_practice",""
"","bandit","69","394406","0.0-32.0-18.0","82906598","wem/bandit_party_1","A3OXRDSUN9F10I","either","4","2329","","","","","","","0","1","0","","0.6","0.5","0.5","0.5","0.5","0.8","0.2","0.6","0.2","","","","","","","","","","","","","","75","K","2","","true","0","full_practice",""
"","bandit","70","396004","0.0-32.0-19.0","82906598","wem/bandit_party_1","A3OXRDSUN9F10I","either","4","88","","","","","","","0","1","0","","0.6","0.5","0.5","0.5","0.5","0.8","0.2","0.6","0.2","","","","","","","","","","","","","","75","K","2","","true","0","full_practice",""
"","text","71","401150","0.0-33.0","82906598","wem/bandit_party_1","A3OXRDSUN9F10I","either","4","5126","","","32","","","","","","","","","","","","","","","","","","","","","","","","","","","","","","","","","","","","",""
"","text-replacement","72","416416","0.0-34.0","82906598","wem/bandit_party_1","A3OXRDSUN9F10I","either","4","14262","","","32","","","","","","","","","","","","","","","","","","","","","","","","","","","","","","","","","","","","",""
"","text-replacement","73","429894","0.0-35.0","82906598","wem/bandit_party_1","A3OXRDSUN9F10I","either","4","13472","","","32","","","","","","","","","","","","","","","","","","","","","","","","","","","","","","","","","","","","",""
"","text-replacement","74","438365","0.0-36.0","82906598","wem/bandit_party_1","A3OXRDSUN9F10I","either","4","8470","","","32","","","","","","","","","","","","","","","","","","","","","","","","","","","","","","","","","","","","",""
"","text-replacement","75","444902","0.0-37.0","82906598","wem/bandit_party_1","A3OXRDSUN9F10I","either","4","6533","","","32","","","","","","","","","","","","","","","","","","","","","","","","","","","","","","","","","","","","",""
"","text-replacement","76","451253","0.0-38.0","82906598","wem/bandit_party_1","A3OXRDSUN9F10I","either","4","6349","","","32","","","","","","","","","","","","","","","","","","","","","","","","","","","","","","","","","","","","",""
"","survey-multi-choice-replacement","77","456327","0.0-39.0-0.0","82906598","wem/bandit_party_1","A3OXRDSUN9F10I","either","4","5064","","","","","","","","","","","","","","","","","","","","","","","","Money will be added to the pool for <span style='color:red;'>REPUBLICANS</span>","","","","","","","attn_check","","","","","","","","","0"
"","survey-multi-choice-replacement","78","461655","0.0-40.0-0.0","82906598","wem/bandit_party_1","A3OXRDSUN9F10I","either","4","4313","","","","","","","","","","","","","","","","","","","","","","","","Equal amounts of money will be added to the pool for <span style='color:red;'>REPUBLICANS</span> and subtracted from the pool for <span style='color:blue;'>DEMOCRATS</span>","","","","","","","attn_check","","","","","","","","","2"
"","survey-multi-choice-replacement","79","465247","0.0-41.0-0.0","82906598","wem/bandit_party_1","A3OXRDSUN9F10I","either","4","2584","","","","","","","","","","","","","","","","","","","","","","","","No money will be added to either pool","","","","","","","attn_check","","","","","","","","","3"
"","bandit","80","469437","0.0-42.0-0.0","82906598","wem/bandit_party_1","A3OXRDSUN9F10I","either","4","1681","","","","","","","1","0","0","0.2771551185","","0.6","0.2","0.4","0.8","","","","","0.2771551185","0.3242650943","0.3894728165","0.3525715257","","","","","","","","","","72","H","0","img/none_selected.jpg","","1","main_expt",""
"","bandit","81","471323","0.0-43.0-0.0","82906598","wem/bandit_party_1","A3OXRDSUN9F10I","either","4","376","","","","","","","0","1","0","","0.3030893157","0.6","0.2","0.4","0.8","0.3030893157","0.3296228245","0.363660736","0.390153736","","","","","","","","","","","","","","72","H","0","img/none_selected.jpg","","2","main_expt",""
"","bandit","82","473212","0.0-44.0-0.0","82906598","wem/bandit_party_1","A3OXRDSUN9F10I","either","4","365","","","","","","","0","0","1","","0.3211059343","0.6","0.2","0.4","0.8","0.3211059343","0.3102780753","0.3842171554","0.3725447061","","","","","","","","","","","","","","72","H","0","img/none_selected.jpg","","3","main_expt",""
"","bandit","83","475429","0.0-45.0-0.0","82906598","wem/bandit_party_1","A3OXRDSUN9F10I","either","4","709","","","","","","","0","0","1","0.2804386453","","0.6","0.2","0.4","0.8","","","","","0.2804386453","0.2749892112","0.3831963053","0.3431524481","","","","","","","","","","72","H","0","img/none_selected.jpg","","4","main_expt",""
"","bandit","84","477446","0.0-46.0-0.0","82906598","wem/bandit_party_1","A3OXRDSUN9F10I","either","4","506","","","","","","","0","0","1","0.2609559086","","0.6","0.2","0.4","0.8","","","","","0.2609559086","0.3037824898","0.4056596471","0.3448007793","","","","","","","","","","72","H","0","img/none_selected.jpg","","5","main_expt",""
"","bandit","85","479501","0.0-47.0-0.0","82906598","wem/bandit_party_1","A3OXRDSUN9F10I","either","4","543","","","","","","","1","0","0","0.3217417103","","0.6","0.2","0.4","0.8","","","","","0.2259287768","0.3217417103","0.4409946319","0.3980888019","","","","","","","","","","74","J","1","","","6","main_expt",""
"","bandit","86","481362","0.0-48.0-0.0","82906598","wem/bandit_party_1","A3OXRDSUN9F10I","either","4","350","","","","","","","0","0","1","0.3018715163","","0.6","0.2","0.4","0.8","","","","","0.2433618728","0.3018715163","0.3821747998","0.3693121862","","","","","","","","","","74","J","1","","","7","main_expt",""
"","bandit","87","483196","0.0-49.0-0.0","82906598","wem/bandit_party_1","A3OXRDSUN9F10I","either","4","324","","","","","","","0","0","1","0.3643645816","","0.6","0.2","0.4","0.8","","","","","0.2025356769","0.3643645816","0.3841844813","0.2933697555","","","","","","","","","","74","J","1","","","8","main_expt",""
"","bandit","88","484988","0.0-50.0-0.0","82906598","wem/bandit_party_1","A3OXRDSUN9F10I","either","4","284","","","","","","","1","0","0","0.3412237964","","0.6","0.2","0.4","0.8","","","","","0.1441028094","0.3418610374","0.3412237964","0.3036212831","","","","","","","","","","75","K","2","","","9","main_expt",""
"","bandit","89","486865","0.0-51.0-0.0","82906598","wem/bandit_party_1","A3OXRDSUN9F10I","either","4","364","","","","","","","0","0","1","0.3256420777","","0.6","0.2","0.4","0.8","","","","","0.1736005971","0.3190157878","0.3256420777","0.308020301","","","","","","","","","","75","K","2","","","10","main_expt",""
"","bandit","90","488726","0.0-52.0-0.0","82906598","wem/bandit_party_1","A3OXRDSUN9F10I","either","4","354","","","","","","","0","0","1","0.3514007431","","0.6","0.2","0.4","0.8","","","","","0.1836365694","0.2998731478","0.3514007431","0.3065973113","","","","","","","","","","75","K","2","","","11","main_expt",""
"","bandit","91","490482","0.0-53.0-0.0","82906598","wem/bandit_party_1","A3OXRDSUN9F10I","either","4","244","","","","","","","0","0","1","0.3271859636","","0.6","0.2","0.4","0.8","","","","","0.2143869662","0.2942822571","0.3722032088","0.3271859636","","","","","","","","","","76","L","3","","","12","main_expt",""
"","bandit","92","492315","0.0-54.0-0.0","82906598","wem/bandit_party_1","A3OXRDSUN9F10I","either","4","324","","","","","","","0","0","1","0.2761076709","","0.6","0.2","0.4","0.8","","","","","0.1637139448","0.3009212619","0.3681707299","0.2761076709","","","","","","","","","","76","L","3","","","13","main_expt",""
"","bandit","93","494210","0.0-55.0-0.0","82906598","wem/bandit_party_1","A3OXRDSUN9F10I","either","4","387","","","","","","","0","0","1","0.1488535162","","0.6","0.2","0.4","0.8","","","","","0.1488535162","0.3227424667","0.3528222564","0.2311164494","","","","","","","","","","72","H","0","img/none_selected.jpg","","14","main_expt",""
"","bandit","94","495988","0.0-56.0-0.0","82906598","wem/bandit_party_1","A3OXRDSUN9F10I","either","4","270","","","","","","","0","0","1","0.1332411271","","0.6","0.2","0.4","0.8","","","","","0.1332411271","0.3547546862","0.3738838661","0.2905977425","","","","","","","","","","72","H","0","img/none_selected.jpg","","15","main_expt",""
"","bandit","95","497881","0.0-57.0-0.0","82906598","wem/bandit_party_1","A3OXRDSUN9F10I","either","4","385","","","","","","","0","0","1","","0.3241157583","0.6","0.2","0.4","0.8","0.09882415698","0.3241157583","0.3385239332","0.2924554969","","","","","","","","","","","","","","74","J","1","","","16","main_expt",""
"","bandit","96","499704","0.0-58.0-0.0","82906598","wem/bandit_party_1","A3OXRDSUN9F10I","either","4","303","","","","","","","0","1","0","","0.3363410386","0.6","0.2","0.4","0.8","0.1069157009","0.3363410386","0.3111355138","0.3114836302","","","","","","","","","","","","","","74","J","1","","","17","main_expt",""
"","bandit","97","501564","0.0-59.0-0.0","82906598","wem/bandit_party_1","A3OXRDSUN9F10I","either","4","347","","","","","","","0","0","1","0.3880947854","","0.6","0.2","0.4","0.8","","","","","0.134958137","0.3880947854","0.3487767647","0.3215333475","","","","","","","","","","74","J","1","","","18","main_expt",""
"","bandit","98","503364","0.0-60.0-0.0","82906598","wem/bandit_party_1","A3OXRDSUN9F10I","either","4","290","","","","","","","0","0","1","","0.3010303499","0.6","0.2","0.4","0.8","0.1230418706","0.4116912081","0.3010303499","0.2733398822","","","","","","","","","","","","","","75","K","2","","","19","main_expt",""
"","bandit","99","505445","0.0-61.0-0.0","82906598","wem/bandit_party_1","A3OXRDSUN9F10I","either","4","572","","","","","","","0","0","1","0.2907203997","","0.6","0.2","0.4","0.8","","","","","0.09866604889","0.3973894305","0.2907203997","0.2351410235","","","","","","","","","","75","K","2","","","20","main_expt",""
"","bandit","100","507261","0.0-62.0-0.0","82906598","wem/bandit_party_1","A3OXRDSUN9F10I","either","4","302","","","","","","","1","0","0","0.2257810982","","0.6","0.2","0.4","0.8","","","","","0.1021222834","0.369037109","0.3088108907","0.2257810982","","","","","","","","","","76","L","3","","","21","main_expt",""
"","bandit","101","509125","0.0-63.0-0.0","82906598","wem/bandit_party_1","A3OXRDSUN9F10I","either","4","351","","","","","","","0","0","1","0.2221856846","","0.6","0.2","0.4","0.8","","","","","0.1234138809","0.4179468344","0.349202701","0.2221856846","","","","","","","","","","76","L","3","","","22","main_expt",""
"","bandit","102","510966","0.0-64.0-0.0","82906598","wem/bandit_party_1","A3OXRDSUN9F10I","either","4","306","","","","","","","0","0","1","","0.2127124712","0.6","0.2","0.4","0.8","0.1030640584","0.4276062926","0.3785068464","0.2127124712","","","","","","","","","","","","","","76","L","3","","","23","main_expt",""
"","bandit","103","512853","0.0-65.0-0.0","82906598","wem/bandit_party_1","A3OXRDSUN9F10I","either","4","375","","","","","","","1","0","0","0.1882566648","","0.6","0.2","0.4","0.8","","","","","0.1261035851","0.4078122208","0.4012919653","0.1882566648","","","","","","","","","","76","L","3","","","24","main_expt",""
"","bandit","104","514849","0.0-66.0-0.0","82906598","wem/bandit_party_1","A3OXRDSUN9F10I","either","4","482","","","","","","","0","0","1","0.1273223766","","0.6","0.2","0.4","0.8","","","","","0.1796705612","0.3950411191","0.400899794","0.1273223766","","","","","","","","","","76","L","3","","","25","main_expt",""
"","bandit","105","516709","0.0-67.0-0.0","82906598","wem/bandit_party_1","A3OXRDSUN9F10I","either","4","348","","","","","","","0","0","1","0.2414651519","","0.6","0.2","0.4","0.8","","","","","0.2414651519","0.4322303329","0.4126274585","0.15747458","","","","","","","","","","72","H","0","img/none_selected.jpg","","26","main_expt",""
"","bandit","106","518460","0.0-68.0-0.0","82906598","wem/bandit_party_1","A3OXRDSUN9F10I","either","4","242","","","","","","","1","0","0","0.2005374927","","0.6","0.2","0.4","0.8","","","","","0.2005374927","0.4353643722","0.3992263875","0.1442684908","","","","","","","","","","72","H","0","img/none_selected.jpg","","27","main_expt",""
"","bandit","107","520346","0.0-69.0-0.0","82906598","wem/bandit_party_1","A3OXRDSUN9F10I","either","4","381","","","","","","","0","0","1","","0.3197257227","0.6","0.2","0.4","0.8","0.3197257227","0.4464017809","0.3846584236","0.2255404594","","","","","","","","","","","","","","72","H","0","img/none_selected.jpg","","28","main_expt",""
"","bandit","108","522405","0.0-70.0-0.0","82906598","wem/bandit_party_1","A3OXRDSUN9F10I","either","4","552","","","","","","","1","0","0","0.3141869899","","0.6","0.2","0.4","0.8","","","","","0.3141869899","0.4417109462","0.3561298134","0.2730951691","","","","","","","","","","72","H","0","img/none_selected.jpg","","29","main_expt",""
"","bandit","109","524325","0.0-71.0-0.0","82906598","wem/bandit_party_1","A3OXRDSUN9F10I","either","4","409","","","","","","","0","0","1","0.3445991012","","0.6","0.2","0.4","0.8","","","","","0.3445991012","0.4065908859","0.3101363315","0.2890412698","","","","","","","","","","72","H","0","img/none_selected.jpg","","30","main_expt",""
"","bandit","110","526131","0.0-72.0-0.0","82906598","wem/bandit_party_1","A3OXRDSUN9F10I","either","4","299","","","","","","","0","1","0","","0.3954582793","0.6","0.2","0.4","0.8","0.3456655029","0.3954582793","0.3322219809","0.3309226042","","","","","","","","","","","","","","74","J","1","","","31","main_expt",""
"","bandit","111","527987","0.0-73.0-0.0","82906598","wem/bandit_party_1","A3OXRDSUN9F10I","either","4","348","","","","","","","0","1","0","","0.3716723047","0.6","0.2","0.4","0.8","0.3826172224","0.3716723047","0.3516269472","0.3519301717","","","","","","","","","","","","","","74","J","1","","","32","main_expt",""
"","bandit","112","529963","0.0-74.0-0.0","82906598","wem/bandit_party_1","A3OXRDSUN9F10I","either","4","463","","","","","","","0","1","0","","0.3799724366","0.6","0.2","0.4","0.8","0.3804083149","0.3799724366","0.3852085553","0.3414953842","","","","","","","","","","","","","","74","J","1","","","33","main_expt",""
"","bandit","113","531772","0.0-75.0-0.0","82906598","wem/bandit_party_1","A3OXRDSUN9F10I","either","4","297","","","","","","","0","1","0","","0.409480615","0.6","0.2","0.4","0.8","0.3808178469","0.409480615","0.4196644934","0.2938412915","","","","","","","","","","","","","","74","J","1","","","34","main_expt",""
"","bandit","114","533672","0.0-76.0-0.0","82906598","wem/bandit_party_1","A3OXRDSUN9F10I","either","4","379","","","","","","","0","0","1","","0.3869649509","0.6","0.2","0.4","0.8","0.376129724","0.3869649509","0.420891004","0.2256616696","","","","","","","","","","","","","","74","J","1","","","35","main_expt",""
"","bandit","115","535573","0.0-77.0-0.0","82906598","wem/bandit_party_1","A3OXRDSUN9F10I","either","4","389","","","","","","","0","0","1","","0.3045389962","0.6","0.2","0.4","0.8","0.4027809904","0.3045389962","0.3808881167","0.2525957923","","","","","","","","","","","","","","74","J","1","","","36","main_expt",""
"","bandit","116","537331","0.0-78.0-0.0","82906598","wem/bandit_party_1","A3OXRDSUN9F10I","either","4","246","","","","","","","1","0","0","0.2954217214","","0.6","0.2","0.4","0.8","","","","","0.3715556026","0.2954217214","0.3634360393","0.2333373749","","","","","","","","","","74","J","1","","","37","main_expt",""
"","bandit","117","539148","0.0-79.0-0.0","82906598","wem/bandit_party_1","A3OXRDSUN9F10I","either","4","310","","","","","","","0","0","1","0.2749906923","","0.6","0.2","0.4","0.8","","","","","0.354842885","0.2749906923","0.3432691328","0.2126884676","","","","","","","","","","74","J","1","","","38","main_expt",""
"","bandit","118","540938","0.0-80.0-0.0","82906598","wem/bandit_party_1","A3OXRDSUN9F10I","either","4","278","","","","","","","1","0","0","0.3113322025","","0.6","0.2","0.4","0.8","","","","","0.3066825603","0.2911873598","0.3113322025","0.212498526","","","","","","","","","","75","K","2","","","39","main_expt",""
"","bandit","119","542797","0.0-81.0-0.0","82906598","wem/bandit_party_1","A3OXRDSUN9F10I","either","4","351","","","","","","","0","1","0","","0.3298138996","0.6","0.2","0.4","0.8","0.3208648015","0.3066149412","0.3298138996","0.2031275136","","","","","","","","","","","","","","75","K","2","","","40","main_expt",""
"","bandit","120","544664","0.0-82.0-0.0","82906598","wem/bandit_party_1","A3OXRDSUN9F10I","either","4","353","","","","","","","0","0","1","0.3590557929","","0.6","0.2","0.4","0.8","","","","","0.2774570704","0.2612722093","0.3590557929","0.2409224204","","","","","","","","","","75","K","2","","","41","main_expt",""
"","bandit","121","546468","0.0-83.0-0.0","82906598","wem/bandit_party_1","A3OXRDSUN9F10I","either","4","289","","","","","","","0","1","0","","0.3455434044","0.6","0.2","0.4","0.8","0.3092882543","0.2579482203","0.3455434044","0.2166695961","","","","","","","","","","","","","","75","K","2","","","42","main_expt",""
"","bandit","122","548259","0.0-84.0-0.0","82906598","wem/bandit_party_1","A3OXRDSUN9F10I","either","4","279","","","","","","","0","0","1","","0.4020043176","0.6","0.2","0.4","0.8","0.3161251671","0.2232302517","0.4020043176","0.2314197793","","","","","","","","","","","","","","75","K","2","","","43","main_expt",""
"","bandit","123","550173","0.0-85.0-0.0","82906598","wem/bandit_party_1","A3OXRDSUN9F10I","either","4","399","","","","","","","0","1","0","","0.3032549762","0.6","0.2","0.4","0.8","0.3032549762","0.2435669349","0.4088695108","0.1889371852","","","","","","","","","","","","","","72","H","0","img/none_selected.jpg","","44","main_expt",""
"","bandit","124","551980","0.0-86.0-0.0","82906598","wem/bandit_party_1","A3OXRDSUN9F10I","either","4","294","","","","","","","0","0","1","0.3012359134","","0.6","0.2","0.4","0.8","","","","","0.3012359134","0.1885724617","0.3914045207","0.2152104473","","","","","","","","","","72","H","0","img/none_selected.jpg","","45","main_expt",""
"","bandit","125","553813","0.0-87.0-0.0","82906598","wem/bandit_party_1","A3OXRDSUN9F10I","either","4","316","","","","","","","0","0","1","0.2994346937","","0.6","0.2","0.4","0.8","","","","","0.2994346937","0.104230756","0.3682142312","0.2260726972","","","","","","","","","","72","H","0","img/none_selected.jpg","","46","main_expt",""
"","bandit","126","555636","0.0-88.0-0.0","82906598","wem/bandit_party_1","A3OXRDSUN9F10I","either","4","310","","","","","","","0","0","1","","0.09013225529","0.6","0.2","0.4","0.8","0.3169549043","0.09013225529","0.3462276735","0.2330399618","","","","","","","","","","","","","","74","J","1","","","47","main_expt",""
"","bandit","127","557892","0.0-89.0-0.0","82906598","wem/bandit_party_1","A3OXRDSUN9F10I","either","4","749","","","","","","","0","0","1","0.2769685944","","0.6","0.2","0.4","0.8","","","","","0.3137179834","0.1066227192","0.3501405617","0.2769685944","","","","","","","","","","76","L","3","","","48","main_expt",""
"","bandit","128","559684","0.0-90.0-0.0","82906598","wem/bandit_party_1","A3OXRDSUN9F10I","either","4","281","","","","","","","0","0","1","0.3607669766","","0.6","0.2","0.4","0.8","","","","","0.3026837323","0.1273062614","0.3607669766","0.2954986192","","","","","","","","","","75","K","2","","","49","main_expt",""
"","bandit","129","561358","0.0-91.0-0.0","82906598","wem/bandit_party_1","A3OXRDSUN9F10I","either","4","164","","","","","","","0","0","1","0.2690248343","","0.6","0.2","0.4","0.8","","","","","0.2690248343","0.08158159543","0.3776327681","0.2730110453","","","","","","","","","","72","H","0","img/none_selected.jpg","","50","main_expt",""
"","bandit","130","563137","0.0-92.0-0.0","82906598","wem/bandit_party_1","A3OXRDSUN9F10I","either","4","267","","","","","","","0","0","1","","0.08035098666","0.6","0.2","0.4","0.8","0.2407215714","0.08035098666","0.3922012959","0.2672659715","","","","","","","","","","","","","","74","J","1","","","51","main_expt",""
"","bandit","131","564973","0.0-93.0-0.0","82906598","wem/bandit_party_1","A3OXRDSUN9F10I","either","4","327","","","","","","","0","0","1","","0.3532085343","0.6","0.2","0.4","0.8","0.2758158767","0.1007468434","0.3532085343","0.2552972095","","","","","","","","","","","","","","75","K","2","","","52","main_expt",""
"","bandit","132","566782","0.0-94.0-0.0","82906598","wem/bandit_party_1","A3OXRDSUN9F10I","either","4","295","","","","","","","0","1","0","","0.1954439593","0.6","0.2","0.4","0.8","0.2661511239","0.1479770317","0.3597378762","0.1954439593","","","","","","","","","","","","","","76","L","3","","","53","main_expt",""
"","bandit","133","568628","0.0-95.0-0.0","82906598","wem/bandit_party_1","A3OXRDSUN9F10I","either","4","333","","","","","","","0","1","0","","0.1250298759","0.6","0.2","0.4","0.8","0.250303373","0.1450389045","0.3553644404","0.1250298759","","","","","","","","","","","","","","76","L","3","","","54","main_expt",""
"","bandit","134","570773","0.0-96.0-0.0","82906598","wem/bandit_party_1","A3OXRDSUN9F10I","either","4","630","","","","","","","0","0","1","0.1224949652","","0.6","0.2","0.4","0.8","","","","","0.1850572083","0.1678096349","0.3427354451","0.1224949652","","","","","","","","","","76","L","3","","","55","main_expt",""
"","bandit","135","572660","0.0-97.0-0.0","82906598","wem/bandit_party_1","A3OXRDSUN9F10I","either","4","372","","","","","","","0","0","1","","0.1312048923","0.6","0.2","0.4","0.8","0.2410157884","0.1748395718","0.3158877586","0.1312048923","","","","","","","","","","","","","","76","L","3","","","56","main_expt",""
"","bandit","136","574438","0.0-98.0-0.0","82906598","wem/bandit_party_1","A3OXRDSUN9F10I","either","4","262","","","","","","","0","0","1","","0.2657224069","0.6","0.2","0.4","0.8","0.2657224069","0.146986137","0.3224611445","0.14452077","","","","","","","","","","","","","","72","H","0","img/none_selected.jpg","","57","main_expt",""
"","bandit","137","576252","0.0-99.0-0.0","82906598","wem/bandit_party_1","A3OXRDSUN9F10I","either","4","300","","","","","","","0","0","1","","0.1316135006","0.6","0.2","0.4","0.8","0.2361308133","0.1316135006","0.3378672788","0.1198415177","","","","","","","","","","","","","","74","J","1","","","58","main_expt",""
"","bandit","138","578096","0.0-100.0-0.0","82906598","wem/bandit_party_1","A3OXRDSUN9F10I","either","4","330","","","","","","","1","0","0","0.3438075972","","0.6","0.2","0.4","0.8","","","","","0.2078360154","0.1776120447","0.3438075972","0.1674914914","","","","","","","","","","75","K","2","","","59","main_expt",""
"","bandit","139","579948","0.0-101.0-0.0","82906598","wem/bandit_party_1","A3OXRDSUN9F10I","either","4","344","","","","","","","0","1","0","","0.2950987239","0.6","0.2","0.4","0.8","0.2256957235","0.2034864675","0.2950987239","0.147959707","","","","","","","","","","","","","","75","K","2","","","60","main_expt",""
"","bandit","140","582098","0.0-102.0-0.0","82906598","wem/bandit_party_1","A3OXRDSUN9F10I","either","4","634","","","","","","","0","1","0","","0.2939622289","0.6","0.2","0.4","0.8","0.2713547376","0.1325668513","0.2939622289","0.1217284172","","","","","","","","","","","","","","75","K","2","","","61","main_expt",""
"","bandit","141","584182","0.0-103.0-0.0","82906598","wem/bandit_party_1","A3OXRDSUN9F10I","either","4","574","","","","","","","1","0","0","0.2907096119","","0.6","0.2","0.4","0.8","","","","","0.2800078023","0.125492747","0.2907096119","0.1392905859","","","","","","","","","","75","K","2","","","62","main_expt",""
"","bandit","142","586427","0.0-104.0-0.0","82906598","wem/bandit_party_1","A3OXRDSUN9F10I","either","4","728","","","","","","","1","0","0","0.2696382907","","0.6","0.2","0.4","0.8","","","","","0.362183352","0.1081989139","0.2696382907","0.1953314019","","","","","","","","","","75","K","2","","","63","main_expt",""
"","bandit","143","588907","0.0-105.0-0.0","82906598","wem/bandit_party_1","A3OXRDSUN9F10I","either","4","967","","","","","","","0","0","1","","0.2496415039","0.6","0.2","0.4","0.8","0.3354395381","0.09104284411","0.2496415039","0.2618523415","","","","","","","","","","","","","","75","K","2","","","64","main_expt",""
"","bandit","144","590814","0.0-106.0-0.0","82906598","wem/bandit_party_1","A3OXRDSUN9F10I","either","4","389","","","","","","","0","0","1","","0.2364994079","0.6","0.2","0.4","0.8","0.2893845237","0.1264903162","0.2364994079","0.2686672798","","","","","","","","","","","","","","75","K","2","","","65","main_expt",""
"","bandit","145","592658","0.0-107.0-0.0","82906598","wem/bandit_party_1","A3OXRDSUN9F10I","either","4","332","","","","","","","0","0","1","0.2451656397","","0.6","0.2","0.4","0.8","","","","","0.2355717356","0.1665937301","0.2541683514","0.2451656397","","","","","","","","","","76","L","3","","","66","main_expt",""
"","bandit","146","594501","0.0-108.0-0.0","82906598","wem/bandit_party_1","A3OXRDSUN9F10I","either","4","334","","","","","","","1","0","0","0.2848755716","","0.6","0.2","0.4","0.8","","","","","0.2848755716","0.1740025863","0.2985471382","0.2445320338","","","","","","","","","","72","H","0","img/none_selected.jpg","","67","main_expt",""
"","bandit","147","596609","0.0-109.0-0.0","82906598","wem/bandit_party_1","A3OXRDSUN9F10I","either","4","597","","","","","","","0","0","1","","0.3341158043","0.6","0.2","0.4","0.8","0.3341158043","0.2300011382","0.3391290389","0.2261158315","","","","","","","","","","","","","","72","H","0","img/none_selected.jpg","","68","main_expt",""
"","bandit","148","598458","0.0-110.0-0.0","82906598","wem/bandit_party_1","A3OXRDSUN9F10I","either","4","342","","","","","","","0","0","1","0.3253412689","","0.6","0.2","0.4","0.8","","","","","0.3253412689","0.1768594062","0.3114764975","0.1627286519","","","","","","","","","","72","H","0","img/none_selected.jpg","","69","main_expt",""
"","bandit","149","600267","0.0-111.0-0.0","82906598","wem/bandit_party_1","A3OXRDSUN9F10I","either","4","297","","","","","","","0","0","1","0.1906145184","","0.6","0.2","0.4","0.8","","","","","0.3280915152","0.1906145184","0.3056328376","0.1301009224","","","","","","","","","","74","J","1","","","70","main_expt",""
"","bandit","150","602114","0.0-112.0-0.0","82906598","wem/bandit_party_1","A3OXRDSUN9F10I","either","4","336","","","","","","","0","0","1","0.1356707761","","0.6","0.2","0.4","0.8","","","","","0.3772643828","0.1451664327","0.3445325487","0.1356707761","","","","","","","","","","76","L","3","","","71","main_expt",""
"","bandit","151","603853","0.0-113.0-0.0","82906598","wem/bandit_party_1","A3OXRDSUN9F10I","either","4","223","","","","","","","0","1","0","","0.364612409","0.6","0.2","0.4","0.8","0.4074174212","0.1091447996","0.364612409","0.1045412551","","","","","","","","","","","","","","75","K","2","","","72","main_expt",""
"","bandit","152","605707","0.0-114.0-0.0","82906598","wem/bandit_party_1","A3OXRDSUN9F10I","either","4","345","","","","","","","0","0","1","","0.4454774056","0.6","0.2","0.4","0.8","0.3736299767","0.1248737042","0.4454774056","0.0867882282","","","","","","","","","","","","","","75","K","2","","","73","main_expt",""
"","bandit","153","607557","0.0-115.0-0.0","82906598","wem/bandit_party_1","A3OXRDSUN9F10I","either","4","340","","","","","","","0","0","1","0.383211712","","0.6","0.2","0.4","0.8","","","","","0.383211712","0.1073746888","0.4492830973","0.1018359722","","","","","","","","","","72","H","0","img/none_selected.jpg","","74","main_expt",""
"","bandit","154","609389","0.0-116.0-0.0","82906598","wem/bandit_party_1","A3OXRDSUN9F10I","either","4","317","","","","","","","0","0","1","0.449321966","","0.6","0.2","0.4","0.8","","","","","0.3681962321","0.1051395745","0.449321966","0.09443707336","","","","","","","","","","75","K","2","","","75","main_expt",""
"","bandit","155","611183","0.0-117.0-0.0","82906598","wem/bandit_party_1","A3OXRDSUN9F10I","either","4","279","","","","","","","0","0","1","0.08768691443","","0.6","0.2","0.4","0.8","","","","","0.3574328021","0.09171451076","0.4299726132","0.08768691443","","","","","","","","","","76","L","3","","","76","main_expt",""
"","bandit","156","612962","0.0-118.0-0.0","82906598","wem/bandit_party_1","A3OXRDSUN9F10I","either","4","268","","","","","","","0","0","1","","0.1256070833","0.6","0.2","0.4","0.8","0.4041720962","0.1256070833","0.4349340462","0.07744448812","","","","","","","","","","","","","","74","J","1","","","77","main_expt",""
"","bandit","157","614748","0.0-119.0-0.0","82906598","wem/bandit_party_1","A3OXRDSUN9F10I","either","4","268","","","","","","","0","0","1","","0.1398604905","0.6","0.2","0.4","0.8","0.4000946746","0.1398604905","0.4112950215","0.05712631425","","","","","","","","","","","","","","74","J","1","","","78","main_expt",""
"","bandit","158","616660","0.0-120.0-0.0","82906598","wem/bandit_party_1","A3OXRDSUN9F10I","either","4","398","","","","","","","1","0","0","0.4123046053","","0.6","0.2","0.4","0.8","","","","","0.425248604","0.1303191282","0.4123046053","0.03981704588","","","","","","","","","","75","K","2","","","79","main_expt",""
"","bandit","159","618478","0.0-121.0-0.0","82906598","wem/bandit_party_1","A3OXRDSUN9F10I","either","4","300","","","","","","","0","0","1","0.4345430878","","0.6","0.2","0.4","0.8","","","","","0.4263383456","0.1491340647","0.4345430878","0.02961196177","","","","","","","","","","75","K","2","","","80","main_expt",""
"","bandit","160","620276","0.0-122.0-0.0","82906598","wem/bandit_party_1","A3OXRDSUN9F10I","either","4","282","","","","","","","0","1","0","","0.4377411966","0.6","0.2","0.4","0.8","0.4377411966","0.1484119081","0.4255274095","0.0408206899","","","","","","","","","","","","","","72","H","0","img/none_selected.jpg","","81","main_expt",""
"","bandit","161","622070","0.0-123.0-0.0","82906598","wem/bandit_party_1","A3OXRDSUN9F10I","either","4","272","","","","","","","1","0","0","0.4263216968","","0.6","0.2","0.4","0.8","","","","","0.4263216968","0.135460029","0.4266934287","0.03491361241","","","","","","","","","","72","H","0","img/none_selected.jpg","","82","main_expt",""
"","bandit","162","624048","0.0-124.0-0.0","82906598","wem/bandit_party_1","A3OXRDSUN9F10I","either","4","463","","","","","","","0","0","1","0.4536492548","","0.6","0.2","0.4","0.8","","","","","0.4536492548","0.09497461961","0.4321646522","0.01881925386","","","","","","","","","","72","H","0","img/none_selected.jpg","","83","main_expt",""
"","bandit","163","625812","0.0-125.0-0.0","82906598","wem/bandit_party_1","A3OXRDSUN9F10I","either","4","250","","","","","","","0","0","1","0.4344769981","","0.6","0.2","0.4","0.8","","","","","0.4344769981","0.0956585677","0.43129245","0.03441768066","","","","","","","","","","72","H","0","img/none_selected.jpg","","84","main_expt",""
"","bandit","164","627596","0.0-126.0-0.0","82906598","wem/bandit_party_1","A3OXRDSUN9F10I","either","4","272","","","","","","","0","0","1","0.04015732792","","0.6","0.2","0.4","0.8","","","","","0.4167097255","0.08427930603","0.4307495417","0.04015732792","","","","","","","","","","76","L","3","","","85","main_expt",""
"","bandit","165","629396","0.0-127.0-0.0","82906598","wem/bandit_party_1","A3OXRDSUN9F10I","either","4","285","","","","","","","0","0","1","","0.09540141202","0.6","0.2","0.4","0.8","0.4215971904","0.09540141202","0.4327415212","0.0462821445","","","","","","","","","","","","","","74","J","1","","","86","main_expt",""
"","bandit","166","631204","0.0-128.0-0.0","82906598","wem/bandit_party_1","A3OXRDSUN9F10I","either","4","292","","","","","","","0","0","1","","0.4507305815","0.6","0.2","0.4","0.8","0.3962725568","0.06504543429","0.4507305815","0.07236867375","","","","","","","","","","","","","","75","K","2","","","87","main_expt",""
"","bandit","167","632974","0.0-129.0-0.0","82906598","wem/bandit_party_1","A3OXRDSUN9F10I","either","4","255","","","","","","","0","0","1","","0.4038430626","0.6","0.2","0.4","0.8","0.4038430626","0.05894337134","0.4571393315","0.1132918069","","","","","","","","","","","","","","72","H","0","img/none_selected.jpg","","88","main_expt",""
"","bandit","168","634778","0.0-130.0-0.0","82906598","wem/bandit_party_1","A3OXRDSUN9F10I","either","4","284","","","","","","","0","0","1","","0.1466354559","0.6","0.2","0.4","0.8","0.4247877058","0.06803635399","0.4639779763","0.1466354559","","","","","","","","","","","","","","76","L","3","","","89","main_expt",""
"","bandit","169","636330","0.0-131.0-0.0","82906598","wem/bandit_party_1","A3OXRDSUN9F10I","either","4","28","","","","","","","0","0","1","0.09657856289","","0.6","0.2","0.4","0.8","","","","","0.4196700557","0.09657856289","0.4620017245","0.1746819083","","","","","","","","","","74","J","1","","","90","main_expt",""
"","bandit","170","638122","0.0-132.0-0.0","82906598","wem/bandit_party_1","A3OXRDSUN9F10I","either","4","285","","","","","","","1","0","0","0.4492963398","","0.6","0.2","0.4","0.8","","","","","0.401758082","0.08522031428","0.4492963398","0.1864657318","","","","","","","","","","75","K","2","","","91","main_expt",""
"","bandit","171","639906","0.0-133.0-0.0","82906598","wem/bandit_party_1","A3OXRDSUN9F10I","either","4","276","","","","","","","0","0","1","","0.462009279","0.6","0.2","0.4","0.8","0.3422099147","0.07078380504","0.462009279","0.2124622091","","","","","","","","","","","","","","75","K","2","","","92","main_expt",""
"","bandit","172","641702","0.0-134.0-0.0","82906598","wem/bandit_party_1","A3OXRDSUN9F10I","either","4","283","","","","","","","0","1","0","","0.4363090379","0.6","0.2","0.4","0.8","0.3279059742","0.0564278809","0.4363090379","0.245786276","","","","","","","","","","","","","","75","K","2","","","93","main_expt",""
"","bandit","173","643607","0.0-135.0-0.0","82906598","wem/bandit_party_1","A3OXRDSUN9F10I","either","4","384","","","","","","","0","1","0","","0.4457519602","0.6","0.2","0.4","0.8","0.3155724737","0.06067733924","0.4457519602","0.2316759231","","","","","","","","","","","","","","75","K","2","","","94","main_expt",""
"","bandit","174","645454","0.0-136.0-0.0","82906598","wem/bandit_party_1","A3OXRDSUN9F10I","either","4","333","","","","","","","0","0","1","","0.4231248902","0.6","0.2","0.4","0.8","0.3519625041","0.08632751489","0.4231248902","0.2231756969","","","","","","","","","","","","","","75","K","2","","","95","main_expt",""
"","bandit","175","647268","0.0-137.0-0.0","82906598","wem/bandit_party_1","A3OXRDSUN9F10I","either","4","301","","","","","","","0","0","1","","0.4210676831","0.6","0.2","0.4","0.8","0.3661455107","0.08481729553","0.4210676831","0.1957128212","","","","","","","","","","","","","","75","K","2","","","96","main_expt",""
"","bandit","176","649095","0.0-138.0-0.0","82906598","wem/bandit_party_1","A3OXRDSUN9F10I","either","4","309","","","","","","","1","0","0","0.3558031673","","0.6","0.2","0.4","0.8","","","","","0.3558031673","0.08386440452","0.4022895305","0.1638116915","","","","","","","","","","72","H","0","img/none_selected.jpg","","97","main_expt",""
"","bandit","177","650907","0.0-139.0-0.0","82906598","wem/bandit_party_1","A3OXRDSUN9F10I","either","4","277","","","","","","","1","0","0","0.3558230887","","0.6","0.2","0.4","0.8","","","","","0.3558230887","0.0940701929","0.4187351015","0.1405816365","","","","","","","","","","72","H","0","img/none_selected.jpg","","98","main_expt",""
"","bandit","178","652717","0.0-140.0-0.0","82906598","wem/bandit_party_1","A3OXRDSUN9F10I","either","4","297","","","","","","","0","1","0","","0.3064708089","0.6","0.2","0.4","0.8","0.3064708089","0.1285058524","0.3981340028","0.1435678602","","","","","","","","","","","","","","72","H","0","img/none_selected.jpg","","99","main_expt",""
"","bandit","179","654694","0.0-141.0-0.0","82906598","wem/bandit_party_1","A3OXRDSUN9F10I","either","4","462","","","","","","","1","0","0","0.352498313","","0.6","0.2","0.4","0.8","","","","","0.352498313","0.065882019","0.3520446815","0.1478754355","","","","","","","","","","72","H","0","img/none_selected.jpg","","100","main_expt",""
"","bandit","180","656508","0.0-142.0-0.0","82906598","wem/bandit_party_1","A3OXRDSUN9F10I","either","4","298","","","","","","","1","0","0","0.3511810171","","0.6","0.2","0.4","0.8","","","","","0.3511810171","0.05692140794","0.3715523215","0.1532559328","","","","","","","","","","72","H","0","img/none_selected.jpg","","101","main_expt",""
"","bandit","181","658366","0.0-143.0-0.0","82906598","wem/bandit_party_1","A3OXRDSUN9F10I","either","4","329","","","","","","","0","0","1","0.3246867477","","0.6","0.2","0.4","0.8","","","","","0.3246867477","0.04322280369","0.3966955113","0.15857411","","","","","","","","","","72","H","0","img/none_selected.jpg","","102","main_expt",""
"","bandit","182","660162","0.0-144.0-0.0","82906598","wem/bandit_party_1","A3OXRDSUN9F10I","either","4","279","","","","","","","0","0","1","0.2827689756","","0.6","0.2","0.4","0.8","","","","","0.2827689756","0.05121437093","0.3865714765","0.1552377357","","","","","","","","","","72","H","0","img/none_selected.jpg","","103","main_expt",""
"","bandit","183","662004","0.0-145.0-0.0","82906598","wem/bandit_party_1","A3OXRDSUN9F10I","either","4","323","","","","","","","0","0","1","","0.3440646931","0.6","0.2","0.4","0.8","0.3307995119","0.06548077564","0.3440646931","0.1584193753","","","","","","","","","","","","","","75","K","2","","","104","main_expt",""
"","bandit","184","663803","0.0-146.0-0.0","82906598","wem/bandit_party_1","A3OXRDSUN9F10I","either","4","290","","","","","","","0","0","1","0.07577357845","","0.6","0.2","0.4","0.8","","","","","0.3078297571","0.07577357845","0.330981063","0.192058402","","","","","","","","","","74","J","1","","","105","main_expt",""
"","bandit","185","665621","0.0-147.0-0.0","82906598","wem/bandit_party_1","A3OXRDSUN9F10I","either","4","300","","","","","","","0","0","1","","0.3202685942","0.6","0.2","0.4","0.8","0.3202685942","0.09041352565","0.3317280627","0.1562344916","","","","","","","","","","","","","","72","H","0","img/none_selected.jpg","","106","main_expt",""
"","bandit","186","667379","0.0-148.0-0.0","82906598","wem/bandit_party_1","A3OXRDSUN9F10I","either","4","247","","","","","","","0","0","1","","0.1493116313","0.6","0.2","0.4","0.8","0.3163418234","0.1184921167","0.2760665195","0.1493116313","","","","","","","","","","","","","","76","L","3","","","107","main_expt",""
"","bandit","187","669238","0.0-149.0-0.0","82906598","wem/bandit_party_1","A3OXRDSUN9F10I","either","4","340","","","","","","","0","0","1","0.1357435498","","0.6","0.2","0.4","0.8","","","","","0.3425943818","0.1057615429","0.2826301941","0.1357435498","","","","","","","","","","76","L","3","","","108","main_expt",""
"","bandit","188","671049","0.0-150.0-0.0","82906598","wem/bandit_party_1","A3OXRDSUN9F10I","either","4","299","","","","","","","0","0","1","0.318117281","","0.6","0.2","0.4","0.8","","","","","0.2852030557","0.1464484126","0.318117281","0.1164074326","","","","","","","","","","75","K","2","","","109","main_expt",""
"","bandit","189","672885","0.0-151.0-0.0","82906598","wem/bandit_party_1","A3OXRDSUN9F10I","either","4","325","","","","","","","0","0","1","0.3358587519","","0.6","0.2","0.4","0.8","","","","","0.3392406975","0.1641354829","0.3358587519","0.1444451916","","","","","","","","","","75","K","2","","","110","main_expt",""
"","bandit","190","674605","0.0-152.0-0.0","82906598","wem/bandit_party_1","A3OXRDSUN9F10I","either","4","210","","","","","","","0","0","1","0.3023411017","","0.6","0.2","0.4","0.8","","","","","0.3023411017","0.1386891192","0.3031660534","0.09905323685","","","","","","","","","","72","H","0","img/none_selected.jpg","","111","main_expt",""
"","bandit","191","676380","0.0-153.0-0.0","82906598","wem/bandit_party_1","A3OXRDSUN9F10I","either","4","267","","","","","","","0","0","1","","0.1847512065","0.6","0.2","0.4","0.8","0.296849772","0.1847512065","0.2773548355","0.09652445584","","","","","","","","","","","","","","74","J","1","","","112","main_expt",""
"","bandit","192","678180","0.0-154.0-0.0","82906598","wem/bandit_party_1","A3OXRDSUN9F10I","either","4","286","","","","","","","1","0","0","0.2370758425","","0.6","0.2","0.4","0.8","","","","","0.2673419259","0.1304555333","0.2370758425","0.09961189632","","","","","","","","","","75","K","2","","","113","main_expt",""
"","bandit","193","679995","0.0-155.0-0.0","82906598","wem/bandit_party_1","A3OXRDSUN9F10I","either","4","291","","","","","","","0","0","1","","0.1821928837","0.6","0.2","0.4","0.8","0.2670531803","0.1770102637","0.1821928837","0.1036139638","","","","","","","","","","","","","","75","K","2","","","114","main_expt",""
"","bandit","194","681749","0.0-156.0-0.0","82906598","wem/bandit_party_1","A3OXRDSUN9F10I","either","4","244","","","","","","","0","0","1","","0.1315453283","0.6","0.2","0.4","0.8","0.2825009356","0.1564651975","0.1315453283","0.0968506792","","","","","","","","","","","","","","75","K","2","","","115","main_expt",""
"","bandit","195","683550","0.0-157.0-0.0","82906598","wem/bandit_party_1","A3OXRDSUN9F10I","either","4","286","","","","","","","0","0","1","0.08782875681","","0.6","0.2","0.4","0.8","","","","","0.3237719372","0.1665702367","0.1102777544","0.08782875681","","","","","","","","","","76","L","3","","","116","main_expt",""
"","bandit","196","685316","0.0-158.0-0.0","82906598","wem/bandit_party_1","A3OXRDSUN9F10I","either","4","249","","","","","","","0","0","1","","0.06031800864","0.6","0.2","0.4","0.8","0.3154846423","0.1530687496","0.1101610351","0.06031800864","","","","","","","","","","","","","","76","L","3","","","117","main_expt",""
"","bandit","197","687021","0.0-159.0-0.0","82906598","wem/bandit_party_1","A3OXRDSUN9F10I","either","4","187","","","","","","","0","0","1","0.2584508078","","0.6","0.2","0.4","0.8","","","","","0.2584508078","0.1674206906","0.122460482","0.05633053331","","","","","","","","","","72","H","0","img/none_selected.jpg","","118","main_expt",""
"","bandit","198","688836","0.0-160.0-0.0","82906598","wem/bandit_party_1","A3OXRDSUN9F10I","either","4","297","","","","","","","0","0","1","","0.1990215448","0.6","0.2","0.4","0.8","0.2141905193","0.1990215448","0.1451868924","0.07530514027","","","","","","","","","","","","","","74","J","1","","","119","main_expt",""
"","bandit","199","690540","0.0-161.0-0.0","82906598","wem/bandit_party_1","A3OXRDSUN9F10I","either","4","185","","","","","","","1","0","0","0.09092593383","","0.6","0.2","0.4","0.8","","","","","0.2341954374","0.2208640619","0.09092593383","0.09639595661","","","","","","","","","","75","K","2","","","120","main_expt",""
"","bandit","200","692332","0.0-162.0-0.0","82906598","wem/bandit_party_1","A3OXRDSUN9F10I","either","4","282","","","","","","","0","0","1","","0.1080456108","0.6","0.2","0.4","0.8","0.1886372651","0.2602917539","0.1080456108","0.1421799471","","","","","","","","","","","","","","75","K","2","","","121","main_expt",""
"","bandit","201","694043","0.0-163.0-0.0","82906598","wem/bandit_party_1","A3OXRDSUN9F10I","either","4","198","","","","","","","0","0","1","0.1624760489","","0.6","0.2","0.4","0.8","","","","","0.1597592322","0.2512498235","0.1169053248","0.1624760489","","","","","","","","","","76","L","3","","","122","main_expt",""
"","bandit","202","696014","0.0-164.0-0.0","82906598","wem/bandit_party_1","A3OXRDSUN9F10I","either","4","458","","","","","","","0","0","1","","0.1571594809","0.6","0.2","0.4","0.8","0.1895266442","0.2266242761","0.1571594809","0.1640214383","","","","","","","","","","","","","","75","K","2","","","123","main_expt",""
"","bandit","203","697800","0.0-165.0-0.0","82906598","wem/bandit_party_1","A3OXRDSUN9F10I","either","4","267","","","","","","","0","0","1","","0.2373824638","0.6","0.2","0.4","0.8","0.2042850732","0.2373824638","0.2231804049","0.2014340991","","","","","","","","","","","","","","74","J","1","","","124","main_expt",""
"","bandit","204","699539","0.0-166.0-0.0","82906598","wem/bandit_party_1","A3OXRDSUN9F10I","either","4","224","","","","","","","0","1","0","","0.1812515389","0.6","0.2","0.4","0.8","0.1812515389","0.2538727107","0.2232794356","0.2229229076","","","","","","","","","","","","","","72","H","0","img/none_selected.jpg","","125","main_expt",""
"","bandit","205","701445","0.0-167.0-0.0","82906598","wem/bandit_party_1","A3OXRDSUN9F10I","either","4","394","","","","","","","0","0","1","","0.1694736183","0.6","0.2","0.4","0.8","0.1694736183","0.290219491","0.2316903634","0.2324712723","","","","","","","","","","","","","","72","H","0","img/none_selected.jpg","","126","main_expt",""
"","bandit","206","703325","0.0-168.0-0.0","82906598","wem/bandit_party_1","A3OXRDSUN9F10I","either","4","360","","","","","","","0","0","1","","0.2542505169","0.6","0.2","0.4","0.8","0.1624528765","0.2542505169","0.2337524142","0.2628391623","","","","","","","","","","","","","","74","J","1","","","127","main_expt",""
"","bandit","207","705123","0.0-169.0-0.0","82906598","wem/bandit_party_1","A3OXRDSUN9F10I","either","4","285","","","","","","","0","0","1","","0.2198210178","0.6","0.2","0.4","0.8","0.1632982916","0.2582316027","0.2198210178","0.2654356302","","","","","","","","","","","","","","75","K","2","","","128","main_expt",""
"","bandit","208","706932","0.0-170.0-0.0","82906598","wem/bandit_party_1","A3OXRDSUN9F10I","either","4","299","","","","","","","0","0","1","0.2070569149","","0.6","0.2","0.4","0.8","","","","","0.2264598068","0.3267566011","0.2280168395","0.2070569149","","","","","","","","","","76","L","3","","","129","main_expt",""
"","bandit","209","708758","0.0-171.0-0.0","82906598","wem/bandit_party_1","A3OXRDSUN9F10I","either","4","311","","","","","","","0","0","1","0.202760285","","0.6","0.2","0.4","0.8","","","","","0.202760285","0.3323271388","0.243895296","0.2579182239","","","","","","","","","","72","H","0","img/none_selected.jpg","","130","main_expt",""
"","bandit","210","710692","0.0-172.0-0.0","82906598","wem/bandit_party_1","A3OXRDSUN9F10I","either","4","418","","","","","","","0","0","1","0.2666668646","","0.6","0.2","0.4","0.8","","","","","0.1585094705","0.2666668646","0.2164454501","0.2329110821","","","","","","","","","","74","J","1","","","131","main_expt",""
"","bandit","211","712518","0.0-173.0-0.0","82906598","wem/bandit_party_1","A3OXRDSUN9F10I","either","4","309","","","","","","","0","0","1","0.200468731","","0.6","0.2","0.4","0.8","","","","","0.1304261544","0.2359119393","0.200468731","0.2400232435","","","","","","","","","","75","K","2","","","132","main_expt",""
"","bandit","212","714338","0.0-174.0-0.0","82906598","wem/bandit_party_1","A3OXRDSUN9F10I","either","4","305","","","","","","","0","0","1","0.2084798617","","0.6","0.2","0.4","0.8","","","","","0.09339990826","0.2540740643","0.2038597077","0.2084798617","","","","","","","","","","76","L","3","","","133","main_expt",""
"","bandit","213","716100","0.0-175.0-0.0","82906598","wem/bandit_party_1","A3OXRDSUN9F10I","either","4","253","","","","","","","0","0","1","0.08524612959","","0.6","0.2","0.4","0.8","","","","","0.08524612959","0.2414927735","0.2263269307","0.2034544","","","","","","","","","","72","H","0","img/none_selected.jpg","","134","main_expt",""
"","bandit","214","717891","0.0-176.0-0.0","82906598","wem/bandit_party_1","A3OXRDSUN9F10I","either","4","276","","","","","","","0","0","1","","0.2632369982","0.6","0.2","0.4","0.8","0.0622033461","0.2632369982","0.2686469146","0.2088958693","","","","","","","","","","","","","","74","J","1","","","135","main_expt",""
"","bandit","215","719702","0.0-177.0-0.0","82906598","wem/bandit_party_1","A3OXRDSUN9F10I","either","4","303","","","","","","","0","0","1","0.3170393738","","0.6","0.2","0.4","0.8","","","","","0.05632890875","0.3032623762","0.3170393738","0.2573758916","","","","","","","","","","75","K","2","","","136","main_expt",""
"","bandit","216","721515","0.0-178.0-0.0","82906598","wem/bandit_party_1","A3OXRDSUN9F10I","either","4","304","","","","","","","1","0","0","0.2467438462","","0.6","0.2","0.4","0.8","","","","","0.06052980877","0.2984046037","0.338962466","0.2467438462","","","","","","","","","","76","L","3","","","137","main_expt",""
"","bandit","217","723359","0.0-179.0-0.0","82906598","wem/bandit_party_1","A3OXRDSUN9F10I","either","4","328","","","","","","","0","0","1","0.2221944767","","0.6","0.2","0.4","0.8","","","","","0.1038497792","0.3110629865","0.3586643031","0.2221944767","","","","","","","","","","76","L","3","","","138","main_expt",""
"","bandit","218","725108","0.0-180.0-0.0","82906598","wem/bandit_party_1","A3OXRDSUN9F10I","either","4","235","","","","","","","0","1","0","","0.08561062373","0.6","0.2","0.4","0.8","0.08561062373","0.3048373826","0.3430902759","0.2750517365","","","","","","","","","","","","","","72","H","0","img/none_selected.jpg","","139","main_expt",""
"","bandit","219","727024","0.0-181.0-0.0","82906598","wem/bandit_party_1","A3OXRDSUN9F10I","either","4","405","","","","","","","0","0","1","0.08025295029","","0.6","0.2","0.4","0.8","","","","","0.08025295029","0.3163642845","0.3777112835","0.277474309","","","","","","","","","","72","H","0","img/none_selected.jpg","","140","main_expt",""
"","bandit","220","728926","0.0-182.0-0.0","82906598","wem/bandit_party_1","A3OXRDSUN9F10I","either","4","381","","","","","","","0","0","1","","0.2213861514","0.6","0.2","0.4","0.8","0.09309891757","0.2213861514","0.4276051364","0.2932007391","","","","","","","","","","","","","","74","J","1","","","141","main_expt",""
"","bandit","221","730742","0.0-183.0-0.0","82906598","wem/bandit_party_1","A3OXRDSUN9F10I","either","4","299","","","","","","","0","1","0","","0.2492613222","0.6","0.2","0.4","0.8","0.1107976638","0.2492613222","0.4312347149","0.3001807938","","","","","","","","","","","","","","74","J","1","","","142","main_expt",""
"","bandit","222","732653","0.0-184.0-0.0","82906598","wem/bandit_party_1","A3OXRDSUN9F10I","either","4","389","","","","","","","0","0","1","","0.2645663874","0.6","0.2","0.4","0.8","0.09575525052","0.2645663874","0.386657586","0.3640878437","","","","","","","","","","","","","","74","J","1","","","143","main_expt",""
"","bandit","223","734475","0.0-185.0-0.0","82906598","wem/bandit_party_1","A3OXRDSUN9F10I","either","4","299","","","","","","","0","1","0","","0.3409851627","0.6","0.2","0.4","0.8","0.07222794989","0.2928215939","0.3409851627","0.2706796495","","","","","","","","","","","","","","75","K","2","","","144","main_expt",""
"","bandit","224","736318","0.0-186.0-0.0","82906598","wem/bandit_party_1","A3OXRDSUN9F10I","either","4","331","","","","","","","0","0","1","","0.3538709708","0.6","0.2","0.4","0.8","0.03203798906","0.3178979655","0.3538709708","0.2359726437","","","","","","","","","","","","","","75","K","2","","","145","main_expt",""
"","bandit","225","738144","0.0-187.0-0.0","82906598","wem/bandit_party_1","A3OXRDSUN9F10I","either","4","302","","","","","","","0","0","1","","0.2200332621","0.6","0.2","0.4","0.8","0.03073079809","0.2850957273","0.2745956728","0.2200332621","","","","","","","","","","","","","","76","L","3","","","146","main_expt",""
"","bandit","226","739943","0.0-188.0-0.0","82906598","wem/bandit_party_1","A3OXRDSUN9F10I","either","4","289","","","","","","","0","0","1","0.05105424151","","0.6","0.2","0.4","0.8","","","","","0.05105424151","0.2483519338","0.2375793476","0.1957794229","","","","","","","","","","72","H","0","img/none_selected.jpg","","147","main_expt",""
"","bandit","227","741750","0.0-189.0-0.0","82906598","wem/bandit_party_1","A3OXRDSUN9F10I","either","4","300","","","","","","","0","0","1","","0.2309770791","0.6","0.2","0.4","0.8","0.04045355104","0.2309770791","0.2954602587","0.1790722045","","","","","","","","","","","","","","74","J","1","","","148","main_expt",""
"","bandit","228","743430","0.0-190.0-0.0","82906598","wem/bandit_party_1","A3OXRDSUN9F10I","either","4","158","","","","","","","0","0","1","","0.3435099865","0.6","0.2","0.4","0.8","0.06416506337","0.1759049641","0.3435099865","0.2189150546","","","","","","","","","","","","","","75","K","2","","","149","main_expt",""
"","bandit","229","745230","0.0-191.0-0.0","82906598","wem/bandit_party_1","A3OXRDSUN9F10I","either","4","283","","","","","","","0","0","1","0.2119229637","","0.6","0.2","0.4","0.8","","","","","0.07819388902","0.1910702346","0.268900415","0.2119229637","","","","","","","","","","76","L","3","","","150","main_expt",""
"","bandit","230","747005","0.0-192.0-0.0","82906598","wem/bandit_party_1","A3OXRDSUN9F10I","either","4","264","","","","","","","1","0","0","0.1186979887","","0.6","0.2","0.4","0.8","","","","","0.1186979887","0.1799178466","0.2326488896","0.2472398003","","","","","","","","","","72","H","0","img/none_selected.jpg","","151","main_expt",""
"","bandit","231","749038","0.0-193.0-0.0","82906598","wem/bandit_party_1","A3OXRDSUN9F10I","either","4","517","","","","","","","0","0","1","","0.1084773402","0.6","0.2","0.4","0.8","0.1084773402","0.1826140084","0.2768057641","0.2148428051","","","","","","","","","","","","","","72","H","0","img/none_selected.jpg","","152","main_expt",""
"","bandit","232","750844","0.0-194.0-0.0","82906598","wem/bandit_party_1","A3OXRDSUN9F10I","either","4","290","","","","","","","0","0","1","0.1314289417","","0.6","0.2","0.4","0.8","","","","","0.1314289417","0.147924298","0.2997660112","0.1598057249","","","","","","","","","","72","H","0","img/none_selected.jpg","","153","main_expt",""
"","bandit","233","752622","0.0-195.0-0.0","82906598","wem/bandit_party_1","A3OXRDSUN9F10I","either","4","259","","","","","","","0","0","1","","0.1388357139","0.6","0.2","0.4","0.8","0.1354051011","0.1388357139","0.3196464983","0.1489099923","","","","","","","","","","","","","","74","J","1","","","154","main_expt",""
"","bandit","234","754448","0.0-196.0-0.0","82906598","wem/bandit_party_1","A3OXRDSUN9F10I","either","4","312","","","","","","","0","1","0","","0.3141654429","0.6","0.2","0.4","0.8","0.1085215933","0.1658398244","0.3141654429","0.1502541116","","","","","","","","","","","","","","75","K","2","","","155","main_expt",""
"","bandit","235","756263","0.0-197.0-0.0","82906598","wem/bandit_party_1","A3OXRDSUN9F10I","either","4","298","","","","","","","0","0","1","","0.2667217688","0.6","0.2","0.4","0.8","0.1383379057","0.1104921729","0.2667217688","0.1605084188","","","","","","","","","","","","","","75","K","2","","","156","main_expt",""
"","bandit","236","758102","0.0-198.0-0.0","82906598","wem/bandit_party_1","A3OXRDSUN9F10I","either","4","319","","","","","","","0","0","1","0.1684101418","","0.6","0.2","0.4","0.8","","","","","0.1428990181","0.09530810267","0.2867075714","0.1684101418","","","","","","","","","","76","L","3","","","157","main_expt",""
"","bandit","237","759868","0.0-199.0-0.0","82906598","wem/bandit_party_1","A3OXRDSUN9F10I","either","4","259","","","","","","","0","0","1","0.07455979893","","0.6","0.2","0.4","0.8","","","","","0.07455979893","0.1211627972","0.2788639118","0.1807688322","","","","","","","","","","72","H","0","img/none_selected.jpg","","158","main_expt",""
"","bandit","238","761734","0.0-200.0-0.0","82906598","wem/bandit_party_1","A3OXRDSUN9F10I","either","4","347","","","","","","","0","0","1","0.1012897464","","0.6","0.2","0.4","0.8","","","","","0.1009372764","0.1012897464","0.3020710819","0.1516426412","","","","","","","","","","74","J","1","","","159","main_expt",""
"","bandit","239","763536","0.0-201.0-0.0","82906598","wem/bandit_party_1","A3OXRDSUN9F10I","either","4","277","","","","","","","0","0","1","0.3404227007","","0.6","0.2","0.4","0.8","","","","","0.05118862797","0.1188035868","0.3404227007","0.1638698877","","","","","","","","","","75","K","2","","","160","main_expt",""
"","bandit","240","765340","0.0-202.0-0.0","82906598","wem/bandit_party_1","A3OXRDSUN9F10I","either","4","285","","","","","","","1","0","0","0.1645359983","","0.6","0.2","0.4","0.8","","","","","0.05265847637","0.1606836622","0.2876249865","0.1645359983","","","","","","","","","","76","L","3","","","161","main_expt",""
"","bandit","241","767149","0.0-203.0-0.0","82906598","wem/bandit_party_1","A3OXRDSUN9F10I","either","4","300","","","","","","","1","0","0","0.2509918509","","0.6","0.2","0.4","0.8","","","","","0.07938684611","0.1859884171","0.2401308511","0.2509918509","","","","","","","","","","76","L","3","","","162","main_expt",""
"","bandit","242","768991","0.0-204.0-0.0","82906598","wem/bandit_party_1","A3OXRDSUN9F10I","either","4","322","","","","","","","0","0","1","0.1883685458","","0.6","0.2","0.4","0.8","","","","","0.0970900163","0.2528258464","0.2486605046","0.1883685458","","","","","","","","","","76","L","3","","","163","main_expt",""
"","bandit","243","770610","0.0-205.0-0.0","82906598","wem/bandit_party_1","A3OXRDSUN9F10I","either","4","95","","","","","","","0","0","1","0.07401968201","","0.6","0.2","0.4","0.8","","","","","0.07401968201","0.2515292425","0.22675384","0.2179532334","","","","","","","","","","72","H","0","img/none_selected.jpg","","164","main_expt",""
"","bandit","244","772187","0.0-206.0-0.0","82906598","wem/bandit_party_1","A3OXRDSUN9F10I","either","4","58","","","","","","","0","1","0","","0.2841151948","0.6","0.2","0.4","0.8","0.06633104104","0.2068970429","0.2841151948","0.2143704678","","","","","","","","","","","","","","75","K","2","","","165","main_expt",""
"","bandit","245","774031","0.0-207.0-0.0","82906598","wem/bandit_party_1","A3OXRDSUN9F10I","either","4","336","","","","","","","0","1","0","","0.2842980464","0.6","0.2","0.4","0.8","0.05309652092","0.1413778631","0.2842980464","0.2175899085","","","","","","","","","","","","","","75","K","2","","","166","main_expt",""
"","bandit","246","775845","0.0-208.0-0.0","82906598","wem/bandit_party_1","A3OXRDSUN9F10I","either","4","297","","","","","","","0","0","1","0.3007590714","","0.6","0.2","0.4","0.8","","","","","0.07357446968","0.1999497975","0.3007590714","0.2137120923","","","","","","","","","","75","K","2","","","167","main_expt",""
"","bandit","247","777652","0.0-209.0-0.0","82906598","wem/bandit_party_1","A3OXRDSUN9F10I","either","4","297","","","","","","","0","1","0","","0.2331560811","0.6","0.2","0.4","0.8","0.1054325378","0.1696145944","0.2884936601","0.2331560811","","","","","","","","","","","","","","76","L","3","","","168","main_expt",""
"","bandit","248","779462","0.0-210.0-0.0","82906598","wem/bandit_party_1","A3OXRDSUN9F10I","either","4","284","","","","","","","0","0","1","0.2367963754","","0.6","0.2","0.4","0.8","","","","","0.08536867429","0.1338518967","0.2803439438","0.2367963754","","","","","","","","","","76","L","3","","","169","main_expt",""
"","bandit","249","781239","0.0-211.0-0.0","82906598","wem/bandit_party_1","A3OXRDSUN9F10I","either","4","258","","","","","","","0","0","1","0.2378050175","","0.6","0.2","0.4","0.8","","","","","0.1083432756","0.1307598277","0.3010437192","0.2378050175","","","","","","","","","","76","L","3","","","170","main_expt",""
"","bandit","250","782988","0.0-212.0-0.0","82906598","wem/bandit_party_1","A3OXRDSUN9F10I","either","4","231","","","","","","","0","0","1","","0.2253696972","0.6","0.2","0.4","0.8","0.09185370626","0.1200375331","0.3243802095","0.2253696972","","","","","","","","","","","","","","76","L","3","","","171","main_expt",""
"","bandit","251","784648","0.0-213.0-0.0","82906598","wem/bandit_party_1","A3OXRDSUN9F10I","either","4","140","","","","","","","0","0","1","0.2903394368","","0.6","0.2","0.4","0.8","","","","","0.09458096772","0.07514546963","0.3140094691","0.2903394368","","","","","","","","","","76","L","3","","","172","main_expt",""
"","bandit","252","786397","0.0-214.0-0.0","82906598","wem/bandit_party_1","A3OXRDSUN9F10I","either","4","230","","","","","","","0","0","1","","0.2384828248","0.6","0.2","0.4","0.8","0.1016296913","0.07704486673","0.2433770114","0.2384828248","","","","","","","","","","","","","","76","L","3","","","173","main_expt",""
"","bandit","253","788163","0.0-215.0-0.0","82906598","wem/bandit_party_1","A3OXRDSUN9F10I","either","4","250","","","","","","","0","0","1","0.117107939","","0.6","0.2","0.4","0.8","","","","","0.117107939","0.04061738922","0.2080779891","0.2823111034","","","","","","","","","","72","H","0","img/none_selected.jpg","","174","main_expt",""
"","bandit","254","789973","0.0-216.0-0.0","82906598","wem/bandit_party_1","A3OXRDSUN9F10I","either","4","300","","","","","","","0","0","1","0.1254773658","","0.6","0.2","0.4","0.8","","","","","0.1254773658","0.02968316822","0.2211365803","0.292147578","","","","","","","","","","72","H","0","img/none_selected.jpg","","175","main_expt",""
"","bandit","255","791853","0.0-217.0-0.0","82906598","wem/bandit_party_1","A3OXRDSUN9F10I","either","4","357","","","","","","","0","0","1","","0.1518856622","0.6","0.2","0.4","0.8","0.1518856622","0.04419366322","0.231280906","0.2928295457","","","","","","","","","","","","","","72","H","0","img/none_selected.jpg","","176","main_expt",""
"","bandit","256","793677","0.0-218.0-0.0","82906598","wem/bandit_party_1","A3OXRDSUN9F10I","either","4","296","","","","","","","0","0","1","","0.04140429262","0.6","0.2","0.4","0.8","0.1502483312","0.04140429262","0.1689881391","0.297241693","","","","","","","","","","","","","","74","J","1","","","177","main_expt",""
"","bandit","257","795439","0.0-219.0-0.0","82906598","wem/bandit_party_1","A3OXRDSUN9F10I","either","4","245","","","","","","","0","0","1","0.06103489621","","0.6","0.2","0.4","0.8","","","","","0.2073149786","0.06103489621","0.1699404395","0.276241128","","","","","","","","","","74","J","1","","","178","main_expt",""
"","bandit","258","797268","0.0-220.0-0.0","82906598","wem/bandit_party_1","A3OXRDSUN9F10I","either","4","314","","","","","","","0","0","1","","0.1571972967","0.6","0.2","0.4","0.8","0.1928578162","0.053608248","0.1571972967","0.2405339857","","","","","","","","","","","","","","75","K","2","","","179","main_expt",""
"","bandit","259","799060","0.0-221.0-0.0","82906598","wem/bandit_party_1","A3OXRDSUN9F10I","either","4","275","","","","","","","0","0","1","","0.1567782565","0.6","0.2","0.4","0.8","0.1412953234","0.06289379635","0.1567782565","0.233428307","","","","","","","","","","","","","","75","K","2","","","180","main_expt",""
"","bandit","260","800972","0.0-222.0-0.0","82906598","wem/bandit_party_1","A3OXRDSUN9F10I","either","4","402","","","","","","","1","0","0","0.1459310114","","0.6","0.2","0.4","0.8","","","","","0.1258774719","0.07748386732","0.1492691696","0.1459310114","","","","","","","","","","76","L","3","","","181","main_expt",""
"","bandit","261","802830","0.0-223.0-0.0","82906598","wem/bandit_party_1","A3OXRDSUN9F10I","either","4","334","","","","","","","0","0","1","0.1796360657","","0.6","0.2","0.4","0.8","","","","","0.1121960069","0.096714051","0.1609613705","0.1796360657","","","","","","","","","","76","L","3","","","182","main_expt",""
"","bandit","262","804628","0.0-224.0-0.0","82906598","wem/bandit_party_1","A3OXRDSUN9F10I","either","4","279","","","","","","","0","0","1","0.1907874973","","0.6","0.2","0.4","0.8","","","","","0.08335286121","0.05351369794","0.1982891881","0.1907874973","","","","","","","","","","76","L","3","","","183","main_expt",""
"","bandit","263","806341","0.0-225.0-0.0","82906598","wem/bandit_party_1","A3OXRDSUN9F10I","either","4","202","","","","","","","0","0","1","0.1451627339","","0.6","0.2","0.4","0.8","","","","","0.1085923678","0.08854511538","0.1703318442","0.1451627339","","","","","","","","","","76","L","3","","","184","main_expt",""
"","bandit","264","808134","0.0-226.0-0.0","82906598","wem/bandit_party_1","A3OXRDSUN9F10I","either","4","273","","","","","","","0","0","1","0.1113654269","","0.6","0.2","0.4","0.8","","","","","0.1113654269","0.136385666","0.09566746086","0.1692531577","","","","","","","","","","72","H","0","img/none_selected.jpg","","185","main_expt",""
"","bandit","265","809973","0.0-227.0-0.0","82906598","wem/bandit_party_1","A3OXRDSUN9F10I","either","4","320","","","","","","","0","0","1","0.1885113298","","0.6","0.2","0.4","0.8","","","","","0.1383531569","0.1848043888","0.1254261761","0.1885113298","","","","","","","","","","76","L","3","","","186","main_expt",""
"","bandit","266","811563","0.0-228.0-0.0","82906598","wem/bandit_party_1","A3OXRDSUN9F10I","either","4","72","","","","","","","0","0","1","","0.1640989128","0.6","0.2","0.4","0.8","0.1739713275","0.1640989128","0.1081798115","0.2088125345","","","","","","","","","","","","","","74","J","1","","","187","main_expt",""
"","bandit","267","813338","0.0-229.0-0.0","82906598","wem/bandit_party_1","A3OXRDSUN9F10I","either","4","267","","","","","","","0","1","0","","0.08529062399","0.6","0.2","0.4","0.8","0.1926366302","0.1301402021","0.08529062399","0.2228369986","","","","","","","","","","","","","","75","K","2","","","188","main_expt",""
"","bandit","268","815138","0.0-230.0-0.0","82906598","wem/bandit_party_1","A3OXRDSUN9F10I","either","4","291","","","","","","","0","0","1","","0.07250281893","0.6","0.2","0.4","0.8","0.2499935398","0.1980942663","0.07250281893","0.2567428292","","","","","","","","","","","","","","75","K","2","","","189","main_expt",""
"","bandit","269","816926","0.0-231.0-0.0","82906598","wem/bandit_party_1","A3OXRDSUN9F10I","either","4","278","","","","","","","0","0","1","0.2367317824","","0.6","0.2","0.4","0.8","","","","","0.2367317824","0.1842725295","0.07895395147","0.3177850294","","","","","","","","","","72","H","0","img/none_selected.jpg","","190","main_expt",""
"","bandit","270","818700","0.0-232.0-0.0","82906598","wem/bandit_party_1","A3OXRDSUN9F10I","either","4","265","","","","","","","0","0","1","0.2876912335","","0.6","0.2","0.4","0.8","","","","","0.2515026666","0.2087081259","0.06204701637","0.2876912335","","","","","","","","","","76","L","3","","","191","main_expt",""
"","bandit","271","820630","0.0-233.0-0.0","82906598","wem/bandit_party_1","A3OXRDSUN9F10I","either","4","406","","","","","","","0","1","0","","0.1800110976","0.6","0.2","0.4","0.8","0.2451916405","0.1800110976","0.064067899","0.2383873749","","","","","","","","","","","","","","74","J","1","","","192","main_expt",""
"","bandit","272","822437","0.0-234.0-0.0","82906598","wem/bandit_party_1","A3OXRDSUN9F10I","either","4","290","","","","","","","0","0","1","","0.1519186298","0.6","0.2","0.4","0.8","0.2353451433","0.1519186298","0.1286650472","0.24690957","","","","","","","","","","","","","","74","J","1","","","193","main_expt",""
"","bandit","273","824646","0.0-235.0-0.0","82906598","wem/bandit_party_1","A3OXRDSUN9F10I","either","4","698","","","","","","","0","0","1","0.1746490116","","0.6","0.2","0.4","0.8","","","","","0.307075739","0.1431656489","0.1746490116","0.2728455101","","","","","","","","","","75","K","2","","","194","main_expt",""
"","bandit","274","826203","0.0-236.0-0.0","82906598","wem/bandit_party_1","A3OXRDSUN9F10I","either","4","37","","","","","","","1","0","0","0.3011001907","","0.6","0.2","0.4","0.8","","","","","0.3011001907","0.1868251083","0.129035247","0.2421292151","","","","","","","","","","72","H","0","img/none_selected.jpg","","195","main_expt",""
"","bandit","275","828092","0.0-237.0-0.0","82906598","wem/bandit_party_1","A3OXRDSUN9F10I","either","4","364","","","","","","","0","0","1","","0.2861216794","0.6","0.2","0.4","0.8","0.2861216794","0.176624335","0.09052040682","0.2598052724","","","","","","","","","","","","","","72","H","0","img/none_selected.jpg","","196","main_expt",""
"","bandit","276","830133","0.0-238.0-0.0","82906598","wem/bandit_party_1","A3OXRDSUN9F10I","either","4","519","","","","","","","0","0","1","0.2121549007","","0.6","0.2","0.4","0.8","","","","","0.2121549007","0.2383323772","0.08675464884","0.2540930088","","","","","","","","","","72","H","0","img/none_selected.jpg","","197","main_expt",""
"","bandit","277","831893","0.0-239.0-0.0","82906598","wem/bandit_party_1","A3OXRDSUN9F10I","either","4","248","","","","","","","1","0","0","0.2460150375","","0.6","0.2","0.4","0.8","","","","","0.260340052","0.260618614","0.09429549835","0.2460150375","","","","","","","","","","76","L","3","","","198","main_expt",""
"","bandit","278","833805","0.0-240.0-0.0","82906598","wem/bandit_party_1","A3OXRDSUN9F10I","either","4","391","","","","","","","0","0","1","0.2217343644","","0.6","0.2","0.4","0.8","","","","","0.3009562829","0.2935067364","0.09303778716","0.2217343644","","","","","","","","","","76","L","3","","","199","main_expt",""
"","bandit","279","835620","0.0-241.0-0.0","82906598","wem/bandit_party_1","A3OXRDSUN9F10I","either","4","291","","","","","","","0","0","1","0.3430896668","","0.6","0.2","0.4","0.8","","","","","0.3430896668","0.362920627","0.07354084322","0.2830302048","","","","","","","","","","72","H","0","img/none_selected.jpg","","200","main_expt",""
"","bandit","280","837525","0.0-242.0-0.0","82906598","wem/bandit_party_1","A3OXRDSUN9F10I","either","4","383","","","","","","","0","0","1","0.2973668079","","0.6","0.2","0.4","0.8","","","","","0.2973668079","0.3119044903","0.08115367452","0.3175621279","","","","","","","","","","72","H","0","img/none_selected.jpg","","201","main_expt",""
"","bandit","281","839342","0.0-243.0-0.0","82906598","wem/bandit_party_1","A3OXRDSUN9F10I","either","4","303","","","","","","","1","0","0","0.3049471546","","0.6","0.2","0.4","0.8","","","","","0.3219337599","0.3095695708","0.0774842685","0.3049471546","","","","","","","","","","76","L","3","","","202","main_expt",""
"","bandit","282","841333","0.0-244.0-0.0","82906598","wem/bandit_party_1","A3OXRDSUN9F10I","either","4","466","","","","","","","1","0","0","0.2975042969","","0.6","0.2","0.4","0.8","","","","","0.3229991028","0.3005459379","0.09704724367","0.2975042969","","","","","","","","","","76","L","3","","","203","main_expt",""
"","bandit","283","843285","0.0-245.0-0.0","82906598","wem/bandit_party_1","A3OXRDSUN9F10I","either","4","440","","","","","","","0","0","1","0.2268457719","","0.6","0.2","0.4","0.8","","","","","0.3077995671","0.3116824409","0.1224111047","0.2268457719","","","","","","","","","","76","L","3","","","204","main_expt",""
"","bandit","284","845187","0.0-246.0-0.0","82906598","wem/bandit_party_1","A3OXRDSUN9F10I","either","4","382","","","","","","","0","1","0","","0.2582085449","0.6","0.2","0.4","0.8","0.3070199156","0.3291635812","0.1627664319","0.2582085449","","","","","","","","","","","","","","76","L","3","","","205","main_expt",""
"","bandit","285","847075","0.0-247.0-0.0","82906598","wem/bandit_party_1","A3OXRDSUN9F10I","either","4","379","","","","","","","1","0","0","0.2841247045","","0.6","0.2","0.4","0.8","","","","","0.3109683939","0.4008790519","0.1604236747","0.2841247045","","","","","","","","","","76","L","3","","","206","main_expt",""
"","bandit","286","849057","0.0-248.0-0.0","82906598","wem/bandit_party_1","A3OXRDSUN9F10I","either","4","457","","","","","","","0","0","1","0.3333225396","","0.6","0.2","0.4","0.8","","","","","0.2845075958","0.4202180382","0.126388554","0.3333225396","","","","","","","","","","76","L","3","","","207","main_expt",""
"","bandit","287","850892","0.0-249.0-0.0","82906598","wem/bandit_party_1","A3OXRDSUN9F10I","either","4","314","","","","","","","0","0","1","0.290219871","","0.6","0.2","0.4","0.8","","","","","0.2419557814","0.4168586074","0.1602309633","0.290219871","","","","","","","","","","76","L","3","","","208","main_expt",""
"","bandit","288","852661","0.0-250.0-0.0","82906598","wem/bandit_party_1","A3OXRDSUN9F10I","either","4","248","","","","","","","0","0","1","","0.2449545816","0.6","0.2","0.4","0.8","0.2449545816","0.3949328033","0.2009997365","0.3426384504","","","","","","","","","","","","","","72","H","0","img/none_selected.jpg","","209","main_expt",""
"","bandit","289","854551","0.0-251.0-0.0","82906598","wem/bandit_party_1","A3OXRDSUN9F10I","either","4","368","","","","","","","0","0","1","","0.2176860071","0.6","0.2","0.4","0.8","0.2176860071","0.41782505","0.1997114924","0.2932754766","","","","","","","","","","","","","","72","H","0","img/none_selected.jpg","","210","main_expt",""
"","bandit","290","856381","0.0-252.0-0.0","82906598","wem/bandit_party_1","A3OXRDSUN9F10I","either","4","307","","","","","","","1","0","0","0.2460847292","","0.6","0.2","0.4","0.8","","","","","0.2460847292","0.4377941382","0.2631807131","0.2522206247","","","","","","","","","","72","H","0","img/none_selected.jpg","","211","main_expt",""
"","bandit","291","858933","0.0-253.0-0.0","82906598","wem/bandit_party_1","A3OXRDSUN9F10I","either","4","1027","","","","","","","0","0","1","0.2017704833","","0.6","0.2","0.4","0.8","","","","","0.2017704833","0.4619006446","0.2008991105","0.2323705111","","","","","","","","","","72","H","0","img/none_selected.jpg","","212","main_expt",""
"","bandit","292","860769","0.0-254.0-0.0","82906598","wem/bandit_party_1","A3OXRDSUN9F10I","either","4","292","","","","","","","0","0","1","0.1891715169","","0.6","0.2","0.4","0.8","","","","","0.1891715169","0.4508737721","0.1656487101","0.2815580385","","","","","","","","","","72","H","0","img/none_selected.jpg","","213","main_expt",""
"","bandit","293","862619","0.0-255.0-0.0","82906598","wem/bandit_party_1","A3OXRDSUN9F10I","either","4","328","","","","","","","0","0","1","0.1819308411","","0.6","0.2","0.4","0.8","","","","","0.1819308411","0.4639731149","0.213788386","0.2955812139","","","","","","","","","","72","H","0","img/none_selected.jpg","","214","main_expt",""
"","bandit","294","864378","0.0-256.0-0.0","82906598","wem/bandit_party_1","A3OXRDSUN9F10I","either","4","239","","","","","","","0","0","1","0.2988647484","","0.6","0.2","0.4","0.8","","","","","0.1406935411","0.4690757113","0.2206736926","0.2988647484","","","","","","","","","","76","L","3","","","215","main_expt",""
"","bandit","295","866230","0.0-257.0-0.0","82906598","wem/bandit_party_1","A3OXRDSUN9F10I","either","4","340","","","","","","","1","0","0","0.3361974059","","0.6","0.2","0.4","0.8","","","","","0.206739756","0.4685680314","0.2270120675","0.3361974059","","","","","","","","","","76","L","3","","","216","main_expt",""
"","bandit","296","868372","0.0-258.0-0.0","82906598","wem/bandit_party_1","A3OXRDSUN9F10I","either","4","620","","","","","","","0","0","1","0.2764506131","","0.6","0.2","0.4","0.8","","","","","0.178624692","0.4873952874","0.2561581829","0.2764506131","","","","","","","","","","76","L","3","","","217","main_expt",""
"","bandit","297","870422","0.0-259.0-0.0","82906598","wem/bandit_party_1","A3OXRDSUN9F10I","either","4","530","","","","","","","0","1","0","","0.299893698","0.6","0.2","0.4","0.8","0.2021641755","0.4790671899","0.2785758431","0.299893698","","","","","","","","","","","","","","76","L","3","","","218","main_expt",""
"","bandit","298","872272","0.0-260.0-0.0","82906598","wem/bandit_party_1","A3OXRDSUN9F10I","either","4","327","","","","","","","0","0","1","0.3213687962","","0.6","0.2","0.4","0.8","","","","","0.2076996705","0.4769795117","0.2707863597","0.3213687962","","","","","","","","","","76","L","3","","","219","main_expt",""
"","bandit","299","874144","0.0-261.0-0.0","82906598","wem/bandit_party_1","A3OXRDSUN9F10I","either","4","349","","","","","","","0","0","1","0.3782095139","","0.6","0.2","0.4","0.8","","","","","0.2479045362","0.4746148145","0.2262269101","0.3782095139","","","","","","","","","","76","L","3","","","220","main_expt",""
"","bandit","300","875972","0.0-262.0-0.0","82906598","wem/bandit_party_1","A3OXRDSUN9F10I","either","4","307","","","","","","","1","0","0","0.251163546","","0.6","0.2","0.4","0.8","","","","","0.251163546","0.4789253058","0.2522421151","0.3572699546","","","","","","","","","","72","H","0","img/none_selected.jpg","","221","main_expt",""
"","bandit","301","877888","0.0-263.0-0.0","82906598","wem/bandit_party_1","A3OXRDSUN9F10I","either","4","391","","","","","","","0","0","1","","0.2653622565","0.6","0.2","0.4","0.8","0.2653622565","0.4765400837","0.2323100388","0.332217079","","","","","","","","","","","","","","72","H","0","img/none_selected.jpg","","222","main_expt",""
"","bandit","302","879742","0.0-264.0-0.0","82906598","wem/bandit_party_1","A3OXRDSUN9F10I","either","4","331","","","","","","","0","0","1","0.2034578964","","0.6","0.2","0.4","0.8","","","","","0.2034578964","0.4872993944","0.2013525365","0.3327789551","","","","","","","","","","72","H","0","img/none_selected.jpg","","223","main_expt",""
"","bandit","303","881572","0.0-265.0-0.0","82906598","wem/bandit_party_1","A3OXRDSUN9F10I","either","4","310","","","","","","","0","0","1","","0.1176985371","0.6","0.2","0.4","0.8","0.1176985371","0.4864577786","0.2017363432","0.3720138676","","","","","","","","","","","","","","72","H","0","img/none_selected.jpg","","224","main_expt",""
"","bandit","304","883406","0.0-266.0-0.0","82906598","wem/bandit_party_1","A3OXRDSUN9F10I","either","4","320","","","","","","","0","0","1","0.08531446518","","0.6","0.2","0.4","0.8","","","","","0.08531446518","0.4815865163","0.1608447522","0.4035982493","","","","","","","","","","72","H","0","img/none_selected.jpg","","225","main_expt",""
"","bandit","305","885341","0.0-267.0-0.0","82906598","wem/bandit_party_1","A3OXRDSUN9F10I","either","4","412","","","","","","","0","0","1","0.3538577565","","0.6","0.2","0.4","0.8","","","","","0.0901010045","0.4781941344","0.2023183299","0.3538577565","","","","","","","","","","76","L","3","","","226","main_expt",""
"","bandit","306","887957","0.0-268.0-0.0","82906598","wem/bandit_party_1","A3OXRDSUN9F10I","either","4","1092","","","","","","","0","0","1","0.4205879778","","0.6","0.2","0.4","0.8","","","","","0.06499555022","0.4742279627","0.1555458008","0.4205879778","","","","","","","","","","76","L","3","","","227","main_expt",""
"","bandit","307","890973","0.0-269.0-0.0","82906598","wem/bandit_party_1","A3OXRDSUN9F10I","either","4","1489","","","","","","","0","0","1","0.4082381823","","0.6","0.2","0.4","0.8","","","","","0.06967502077","0.4597327255","0.1210896773","0.4082381823","","","","","","","","","","76","L","3","","","228","main_expt",""
"","bandit","308","892852","0.0-270.0-0.0","82906598","wem/bandit_party_1","A3OXRDSUN9F10I","either","4","359","","","","","","","0","0","1","0.4274963613","","0.6","0.2","0.4","0.8","","","","","0.07642173418","0.4733003713","0.1206830913","0.4274963613","","","","","","","","","","76","L","3","","","229","main_expt",""
"","bandit","309","894654","0.0-271.0-0.0","82906598","wem/bandit_party_1","A3OXRDSUN9F10I","either","4","271","","","","","","","0","0","1","","0.04973788902","0.6","0.2","0.4","0.8","0.04973788902","0.4832022084","0.1334008039","0.4362488765","","","","","","","","","","","","","","72","H","0","img/none_selected.jpg","","230","main_expt",""
"","bandit","310","896485","0.0-272.0-0.0","82906598","wem/bandit_party_1","A3OXRDSUN9F10I","either","4","306","","","","","","","0","0","1","","0.07419495466","0.6","0.2","0.4","0.8","0.07419495466","0.4802630573","0.1048467088","0.4420629534","","","","","","","","","","","","","","72","H","0","img/none_selected.jpg","","231","main_expt",""
"","bandit","311","898390","0.0-273.0-0.0","82906598","wem/bandit_party_1","A3OXRDSUN9F10I","either","4","383","","","","","","","0","0","1","","0.08125260149","0.6","0.2","0.4","0.8","0.08125260149","0.4739318499","0.1184002818","0.4287414635","","","","","","","","","","","","","","72","H","0","img/none_selected.jpg","","232","main_expt",""
"","bandit","312","900275","0.0-274.0-0.0","82906598","wem/bandit_party_1","A3OXRDSUN9F10I","either","4","361","","","","","","","1","0","0","0.4395511981","","0.6","0.2","0.4","0.8","","","","","0.06057073796","0.4709765286","0.08533064469","0.4395511981","","","","","","","","","","76","L","3","","","233","main_expt",""
"","bandit","313","902157","0.0-275.0-0.0","82906598","wem/bandit_party_1","A3OXRDSUN9F10I","either","4","370","","","","","","","0","0","1","0.4479240545","","0.6","0.2","0.4","0.8","","","","","0.1037411708","0.4658145356","0.1190123434","0.4479240545","","","","","","","","","","76","L","3","","","234","main_expt",""
"","bandit","314","904044","0.0-276.0-0.0","82906598","wem/bandit_party_1","A3OXRDSUN9F10I","either","4","364","","","","","","","0","0","1","0.4476644646","","0.6","0.2","0.4","0.8","","","","","0.1267441937","0.4312508187","0.1392024459","0.4476644646","","","","","","","","","","76","L","3","","","235","main_expt",""
"","bandit","315","905862","0.0-277.0-0.0","82906598","wem/bandit_party_1","A3OXRDSUN9F10I","either","4","305","","","","","","","0","0","1","","0.1002206095","0.6","0.2","0.4","0.8","0.1002206095","0.4323277229","0.1076242464","0.457106966","","","","","","","","","","","","","","72","H","0","img/none_selected.jpg","","236","main_expt",""
