"consent","trial_type","trial_index","time_elapsed","internal_node_id","subjID","study","MID","cond","drift","rt","responses","button_pressed","key_press","like","value","connected","gems","bombs","no_reward","GemPrChosen","BombPrChosen","GainOverPainPr_0","GainOverPainPr_1","GainOverPainPr_2","GainOverPainPr_3","LosePr_0","LosePr_1","LosePr_2","LosePr_3","WinPr_0","WinPr_1","WinPr_2","WinPr_3","Q0","Q1","Q2","gender","age","ethnicity","label","expt_phase","target","respCharCode","respKey","respChoiceNum","respChoice","practice","trial_counter","trial_label","Q0_index"
"GDM/GDM_behavioral_consent_30min_online.html","consent","0","12766","0.0-0.0","83877841","wem/bandit_party_1","A1GQS6USF2JEYG","either","8","","","","","","","","","","","","","","","","","","","","","","","","","","","","","","","","","","","","","","","","",""
"","survey-text","1","21952","0.0-1.0","83877841","wem/bandit_party_1","A1GQS6USF2JEYG","either","8","8181","{""Q0"":""A1GQS6USF2JEYG""}","","","","","","","","","","","","","","","","","","","","","","","","","","","","","","","","","","","","","","",""
"","button-response","2","24172","0.0-2.0","83877841","wem/bandit_party_1","A1GQS6USF2JEYG","either","8","1215","","1","","","","","","","","","","","","","","","","","","","","","","","","","","","","","","","","","","","","","",""
"","text-replacement","3","31418","0.0-3.0","83877841","wem/bandit_party_1","A1GQS6USF2JEYG","either","8","6244","","","32","","","","","","","","","","","","","","","","","","","","","","","","","","","","","","","","","","","","",""
"","text-replacement","4","34958","0.0-4.0","83877841","wem/bandit_party_1","A1GQS6USF2JEYG","either","8","3538","","","32","","","","","","","","","","","","","","","","","","","","","","","","","","","","","","","","","","","","",""
"","identification","5","46457","0.0-6.0-0.0","83877841","wem/bandit_party_1","A1GQS6USF2JEYG","either","8","11490","","","","3","3","3","","","","","","","","","","","","","","","","","","","","","","","","pre","identification_pre","the Democratic Party","","","","","","","",""
"","identification","6","52357","0.0-6.0-1.0","83877841","wem/bandit_party_1","A1GQS6USF2JEYG","either","8","4891","","","","1","1","1","","","","","","","","","","","","","","","","","","","","","","","","pre","identification_pre","the Republican party","","","","","","","",""
"","text-replacement","7","62507","0.0-7.0","83877841","wem/bandit_party_1","A1GQS6USF2JEYG","either","8","9149","","","32","","","","","","","","","","","","","","","","","","","","","","","","","","","","","","","","","","","","",""
"","text-replacement","8","67936","0.0-8.0","83877841","wem/bandit_party_1","A1GQS6USF2JEYG","either","8","5428","","","32","","","","","","","","","","","","","","","","","","","","","","","","","","","","","","","","","","","","",""
"","text-replacement","9","76773","0.0-9.0","83877841","wem/bandit_party_1","A1GQS6USF2JEYG","either","8","8835","","","32","","","","","","","","","","","","","","","","","","","","","","","","","","","","","","","","","","","","",""
"","text-replacement","10","90880","0.0-10.0","83877841","wem/bandit_party_1","A1GQS6USF2JEYG","either","8","14105","","","32","","","","","","","","","","","","","","","","","","","","","","","","","","","","","","","","","","","","",""
"","text-replacement","11","92228","0.0-11.0","83877841","wem/bandit_party_1","A1GQS6USF2JEYG","either","8","1345","","","32","","","","","","","","","","","","","","","","","","","","","","","","","","","","","","","","","","","","",""
"","bandit","12","95415","0.0-12.0-0.0","83877841","wem/bandit_party_1","A1GQS6USF2JEYG","either","8","1681","","","","","","","0","0","1","0","0","","","","","0","","","","0","","","","","","","","","","","","","74","J","0","img/none_selected_demo.jpg","true","0","",""
"","bandit","13","99371","0.0-13.0-0.0","83877841","wem/bandit_party_1","A1GQS6USF2JEYG","either","8","2451","","","","","","","0","0","1","0","0","","","","","0","","","","0","","","","","","","","","","","","","75","K","0","img/none_selected_demo.jpg","true","0","",""
"","text-replacement","14","106169","0.0-14.0","83877841","wem/bandit_party_1","A1GQS6USF2JEYG","either","8","6796","","","32","","","","","","","","","","","","","","","","","","","","","","","","","","","","","","","","","","","","",""
"","text-replacement","15","107112","0.0-15.0","83877841","wem/bandit_party_1","A1GQS6USF2JEYG","either","8","942","","","32","","","","","","","","","","","","","","","","","","","","","","","","","","","","","","","","","","","","",""
"","text-replacement","16","108645","0.0-16.0","83877841","wem/bandit_party_1","A1GQS6USF2JEYG","either","8","1530","","","32","","","","","","","","","","","","","","","","","","","","","","","","","","","","","","","","","","","","",""
"","text-replacement","17","109318","0.0-17.0","83877841","wem/bandit_party_1","A1GQS6USF2JEYG","either","8","672","","","32","","","","","","","","","","","","","","","","","","","","","","","","","","","","","","","","","","","","",""
"","bandit","18","112187","0.0-18.0-0.0","83877841","wem/bandit_party_1","A1GQS6USF2JEYG","either","8","1364","","","","","","","1","0","0","0.8","","0.5","0.5","","","","","","","0.8","0.2","","","","","","","","","","","","74","J","0","img/none_selected_demo.jpg","true","0","80_20_practice",""
"","bandit","19","114387","0.0-18.0-1.0","83877841","wem/bandit_party_1","A1GQS6USF2JEYG","either","8","694","","","","","","","0","0","1","","0.8","0.5","0.5","","","0.8","0.2","","","","","","","","","","","","","","","","74","J","0","img/none_selected_demo.jpg","true","0","80_20_practice",""
"","bandit","20","116526","0.0-18.0-2.0","83877841","wem/bandit_party_1","A1GQS6USF2JEYG","either","8","633","","","","","","","1","0","0","0.8","","0.5","0.5","","","","","","","0.8","0.2","","","","","","","","","","","","74","J","0","img/none_selected_demo.jpg","true","0","80_20_practice",""
"","bandit","21","118398","0.0-18.0-3.0","83877841","wem/bandit_party_1","A1GQS6USF2JEYG","either","8","368","","","","","","","0","0","1","","0.8","0.5","0.5","","","0.8","0.2","","","","","","","","","","","","","","","","74","J","0","img/none_selected_demo.jpg","true","0","80_20_practice",""
"","bandit","22","120403","0.0-18.0-4.0","83877841","wem/bandit_party_1","A1GQS6USF2JEYG","either","8","498","","","","","","","1","0","0","0.2","","0.5","0.5","","","","","","","0.8","0.2","","","","","","","","","","","","75","K","1","","true","0","80_20_practice",""
"","bandit","23","122253","0.0-18.0-5.0","83877841","wem/bandit_party_1","A1GQS6USF2JEYG","either","8","344","","","","","","","0","1","0","","0.2","0.5","0.5","","","0.8","0.2","","","","","","","","","","","","","","","","75","K","1","","true","0","80_20_practice",""
"","bandit","24","124190","0.0-18.0-6.0","83877841","wem/bandit_party_1","A1GQS6USF2JEYG","either","8","434","","","","","","","1","0","0","0.8","","0.5","0.5","","","","","","","0.8","0.2","","","","","","","","","","","","74","J","0","img/none_selected_demo.jpg","true","0","80_20_practice",""
"","bandit","25","126447","0.0-18.0-7.0","83877841","wem/bandit_party_1","A1GQS6USF2JEYG","either","8","750","","","","","","","1","0","0","0.8","","0.5","0.5","","","","","","","0.8","0.2","","","","","","","","","","","","74","J","0","img/none_selected_demo.jpg","true","0","80_20_practice",""
"","bandit","26","128238","0.0-18.0-8.0","83877841","wem/bandit_party_1","A1GQS6USF2JEYG","either","8","286","","","","","","","0","1","0","","0.8","0.5","0.5","","","0.8","0.2","","","","","","","","","","","","","","","","74","J","0","img/none_selected_demo.jpg","true","0","80_20_practice",""
"","bandit","27","130205","0.0-18.0-9.0","83877841","wem/bandit_party_1","A1GQS6USF2JEYG","either","8","463","","","","","","","1","0","0","0.8","","0.5","0.5","","","","","","","0.8","0.2","","","","","","","","","","","","74","J","0","img/none_selected_demo.jpg","true","0","80_20_practice",""
"","bandit","28","131943","0.0-18.0-10.0","83877841","wem/bandit_party_1","A1GQS6USF2JEYG","either","8","235","","","","","","","0","0","1","0.8","","0.5","0.5","","","","","","","0.8","0.2","","","","","","","","","","","","74","J","0","img/none_selected_demo.jpg","true","0","80_20_practice",""
"","bandit","29","133507","0.0-18.0-11.0","83877841","wem/bandit_party_1","A1GQS6USF2JEYG","either","8","60","","","","","","","0","1","0","","0.8","0.5","0.5","","","0.8","0.2","","","","","","","","","","","","","","","","74","J","0","img/none_selected_demo.jpg","true","0","80_20_practice",""
"","bandit","30","135294","0.0-18.0-12.0","83877841","wem/bandit_party_1","A1GQS6USF2JEYG","either","8","282","","","","","","","0","1","0","","0.8","0.5","0.5","","","0.8","0.2","","","","","","","","","","","","","","","","74","J","0","img/none_selected_demo.jpg","true","0","80_20_practice",""
"","bandit","31","137286","0.0-18.0-13.0","83877841","wem/bandit_party_1","A1GQS6USF2JEYG","either","8","488","","","","","","","0","0","1","","0.2","0.5","0.5","","","0.8","0.2","","","","","","","","","","","","","","","","75","K","1","","true","0","80_20_practice",""
"","bandit","32","139143","0.0-18.0-14.0","83877841","wem/bandit_party_1","A1GQS6USF2JEYG","either","8","351","","","","","","","0","0","1","0.2","","0.5","0.5","","","","","","","0.8","0.2","","","","","","","","","","","","75","K","1","","true","0","80_20_practice",""
"","bandit","33","140963","0.0-18.0-15.0","83877841","wem/bandit_party_1","A1GQS6USF2JEYG","either","8","315","","","","","","","0","0","1","0.2","","0.5","0.5","","","","","","","0.8","0.2","","","","","","","","","","","","75","K","1","","true","0","80_20_practice",""
"","bandit","34","143052","0.0-18.0-16.0","83877841","wem/bandit_party_1","A1GQS6USF2JEYG","either","8","585","","","","","","","0","0","1","","0.2","0.5","0.5","","","0.8","0.2","","","","","","","","","","","","","","","","75","K","1","","true","0","80_20_practice",""
"","bandit","35","145519","0.0-18.0-17.0","83877841","wem/bandit_party_1","A1GQS6USF2JEYG","either","8","962","","","","","","","1","0","0","0.2","","0.5","0.5","","","","","","","0.8","0.2","","","","","","","","","","","","75","K","1","","true","0","80_20_practice",""
"","bandit","36","147571","0.0-18.0-18.0","83877841","wem/bandit_party_1","A1GQS6USF2JEYG","either","8","548","","","","","","","0","0","1","","0.2","0.5","0.5","","","0.8","0.2","","","","","","","","","","","","","","","","75","K","1","","true","0","80_20_practice",""
"","bandit","37","149407","0.0-18.0-19.0","83877841","wem/bandit_party_1","A1GQS6USF2JEYG","either","8","331","","","","","","","0","1","0","","0.8","0.5","0.5","","","0.8","0.2","","","","","","","","","","","","","","","","74","J","0","img/none_selected_demo.jpg","true","0","80_20_practice",""
"","text-replacement","38","152100","0.0-19.0","83877841","wem/bandit_party_1","A1GQS6USF2JEYG","either","8","2691","","","32","","","","","","","","","","","","","","","","","","","","","","","","","","","","","","","","","","","","",""
"","bandit","39","154948","0.0-20.0-0.0","83877841","wem/bandit_party_1","A1GQS6USF2JEYG","either","8","1343","","","","","","","1","0","0","1","0","","","","","0","1","","","1","0","","","","","","","","","","","","74","J","0","img/none_selected_demo.jpg","true","0","",""
"","text-replacement","40","156999","0.0-21.0","83877841","wem/bandit_party_1","A1GQS6USF2JEYG","either","8","2049","","","32","","","","","","","","","","","","","","","","","","","","","","","","","","","","","","","","","","","","",""
"","text-replacement","41","159290","0.0-22.0","83877841","wem/bandit_party_1","A1GQS6USF2JEYG","either","8","2290","","","32","","","","","","","","","","","","","","","","","","","","","","","","","","","","","","","","","","","","",""
"","text-replacement","42","162078","0.0-23.0","83877841","wem/bandit_party_1","A1GQS6USF2JEYG","either","8","2787","","","32","","","","","","","","","","","","","","","","","","","","","","","","","","","","","","","","","","","","",""
"","text-replacement","43","162305","0.0-24.0","83877841","wem/bandit_party_1","A1GQS6USF2JEYG","either","8","225","","","32","","","","","","","","","","","","","","","","","","","","","","","","","","","","","","","","","","","","",""
"","text-replacement","44","227183","0.0-25.0","83877841","wem/bandit_party_1","A1GQS6USF2JEYG","either","8","64877","","","32","","","","","","","","","","","","","","","","","","","","","","","","","","","","","","","","","","","","",""
"","text-replacement","45","227782","0.0-26.0","83877841","wem/bandit_party_1","A1GQS6USF2JEYG","either","8","597","","","32","","","","","","","","","","","","","","","","","","","","","","","","","","","","","","","","","","","","",""
"","text-replacement","46","228237","0.0-27.0","83877841","wem/bandit_party_1","A1GQS6USF2JEYG","either","8","453","","","32","","","","","","","","","","","","","","","","","","","","","","","","","","","","","","","","","","","","",""
"","text-replacement","47","228649","0.0-28.0","83877841","wem/bandit_party_1","A1GQS6USF2JEYG","either","8","410","","","32","","","","","","","","","","","","","","","","","","","","","","","","","","","","","","","","","","","","",""
"","text-replacement","48","229016","0.0-29.0","83877841","wem/bandit_party_1","A1GQS6USF2JEYG","either","8","366","","","32","","","","","","","","","","","","","","","","","","","","","","","","","","","","","","","","","","","","",""
"","text-replacement","49","229491","0.0-30.0","83877841","wem/bandit_party_1","A1GQS6USF2JEYG","either","8","473","","","32","","","","","","","","","","","","","","","","","","","","","","","","","","","","","","","","","","","","",""
"","text-replacement","50","230490","0.0-31.0","83877841","wem/bandit_party_1","A1GQS6USF2JEYG","either","8","997","","","32","","","","","","","","","","","","","","","","","","","","","","","","","","","","","","","","","","","","",""
"","bandit","51","233031","0.0-32.0-0.0","83877841","wem/bandit_party_1","A1GQS6USF2JEYG","either","8","1036","","","","","","","0","0","1","0.8","","0.5","0.5","0.5","0.5","","","","","0.8","0.2","0.6","0.2","","","","","","","","","","72","H","0","img/none_selected.jpg","true","0","full_practice",""
"","bandit","52","234931","0.0-32.0-1.0","83877841","wem/bandit_party_1","A1GQS6USF2JEYG","either","8","396","","","","","","","0","1","0","","0.8","0.5","0.5","0.5","0.5","0.8","0.2","0.6","0.2","","","","","","","","","","","","","","72","H","0","img/none_selected.jpg","true","0","full_practice",""
"","bandit","53","236651","0.0-32.0-2.0","83877841","wem/bandit_party_1","A1GQS6USF2JEYG","either","8","216","","","","","","","0","0","1","","0.2","0.5","0.5","0.5","0.5","0.8","0.2","0.6","0.2","","","","","","","","","","","","","","74","J","1","","true","0","full_practice",""
"","bandit","54","238283","0.0-32.0-3.0","83877841","wem/bandit_party_1","A1GQS6USF2JEYG","either","8","128","","","","","","","0","0","1","","0.2","0.5","0.5","0.5","0.5","0.8","0.2","0.6","0.2","","","","","","","","","","","","","","74","J","1","","true","0","full_practice",""
"","bandit","55","239993","0.0-32.0-4.0","83877841","wem/bandit_party_1","A1GQS6USF2JEYG","either","8","204","","","","","","","0","1","0","","0.6","0.5","0.5","0.5","0.5","0.8","0.2","0.6","0.2","","","","","","","","","","","","","","75","K","2","","true","0","full_practice",""
"","bandit","56","241700","0.0-32.0-5.0","83877841","wem/bandit_party_1","A1GQS6USF2JEYG","either","8","202","","","","","","","0","0","1","0.6","","0.5","0.5","0.5","0.5","","","","","0.8","0.2","0.6","0.2","","","","","","","","","","75","K","2","","true","0","full_practice",""
"","bandit","57","243597","0.0-32.0-6.0","83877841","wem/bandit_party_1","A1GQS6USF2JEYG","either","8","393","","","","","","","0","0","1","","0.2","0.5","0.5","0.5","0.5","0.8","0.2","0.6","0.2","","","","","","","","","","","","","","76","L","3","","true","0","full_practice",""
"","bandit","58","245326","0.0-32.0-7.0","83877841","wem/bandit_party_1","A1GQS6USF2JEYG","either","8","224","","","","","","","0","0","1","0.2","","0.5","0.5","0.5","0.5","","","","","0.8","0.2","0.6","0.2","","","","","","","","","","76","L","3","","true","0","full_practice",""
"","bandit","59","248224","0.0-32.0-8.0","83877841","wem/bandit_party_1","A1GQS6USF2JEYG","either","8","1393","","","","","","","0","0","1","0.2","","0.5","0.5","0.5","0.5","","","","","0.8","0.2","0.6","0.2","","","","","","","","","","74","J","1","","true","0","full_practice",""
"","bandit","60","250064","0.0-32.0-9.0","83877841","wem/bandit_party_1","A1GQS6USF2JEYG","either","8","335","","","","","","","0","0","1","0.2","","0.5","0.5","0.5","0.5","","","","","0.8","0.2","0.6","0.2","","","","","","","","","","74","J","1","","true","0","full_practice",""
"","bandit","61","251990","0.0-32.0-10.0","83877841","wem/bandit_party_1","A1GQS6USF2JEYG","either","8","420","","","","","","","1","0","0","0.6","","0.5","0.5","0.5","0.5","","","","","0.8","0.2","0.6","0.2","","","","","","","","","","75","K","2","","true","0","full_practice",""
"","bandit","62","253859","0.0-32.0-11.0","83877841","wem/bandit_party_1","A1GQS6USF2JEYG","either","8","363","","","","","","","0","0","1","0.6","","0.5","0.5","0.5","0.5","","","","","0.8","0.2","0.6","0.2","","","","","","","","","","75","K","2","","true","0","full_practice",""
"","bandit","63","272588","0.0-32.0-12.0","83877841","wem/bandit_party_1","A1GQS6USF2JEYG","either","8","17224","","","","","","","0","1","0","","0.8","0.5","0.5","0.5","0.5","0.8","0.2","0.6","0.2","","","","","","","","","","","","","","72","H","0","img/none_selected.jpg","true","0","full_practice",""
"","bandit","64","274320","0.0-32.0-13.0","83877841","wem/bandit_party_1","A1GQS6USF2JEYG","either","8","225","","","","","","","1","0","0","0.8","","0.5","0.5","0.5","0.5","","","","","0.8","0.2","0.6","0.2","","","","","","","","","","72","H","0","img/none_selected.jpg","true","0","full_practice",""
"","bandit","65","275917","0.0-32.0-14.0","83877841","wem/bandit_party_1","A1GQS6USF2JEYG","either","8","93","","","","","","","1","0","0","0.8","","0.5","0.5","0.5","0.5","","","","","0.8","0.2","0.6","0.2","","","","","","","","","","72","H","0","img/none_selected.jpg","true","0","full_practice",""
"","bandit","66","277516","0.0-32.0-15.0","83877841","wem/bandit_party_1","A1GQS6USF2JEYG","either","8","94","","","","","","","0","1","0","","0.8","0.5","0.5","0.5","0.5","0.8","0.2","0.6","0.2","","","","","","","","","","","","","","72","H","0","img/none_selected.jpg","true","0","full_practice",""
"","bandit","67","279196","0.0-32.0-16.0","83877841","wem/bandit_party_1","A1GQS6USF2JEYG","either","8","175","","","","","","","1","0","0","0.8","","0.5","0.5","0.5","0.5","","","","","0.8","0.2","0.6","0.2","","","","","","","","","","72","H","0","img/none_selected.jpg","true","0","full_practice",""
"","bandit","68","280700","0.0-32.0-17.0","83877841","wem/bandit_party_1","A1GQS6USF2JEYG","either","8","0","","","","","","","0","1","0","","0.8","0.5","0.5","0.5","0.5","0.8","0.2","0.6","0.2","","","","","","","","","","","","","","72","H","0","img/none_selected.jpg","true","0","full_practice",""
"","bandit","69","282302","0.0-32.0-18.0","83877841","wem/bandit_party_1","A1GQS6USF2JEYG","either","8","98","","","","","","","0","0","1","0.8","","0.5","0.5","0.5","0.5","","","","","0.8","0.2","0.6","0.2","","","","","","","","","","72","H","0","img/none_selected.jpg","true","0","full_practice",""
"","bandit","70","283882","0.0-32.0-19.0","83877841","wem/bandit_party_1","A1GQS6USF2JEYG","either","8","75","","","","","","","0","1","0","","0.8","0.5","0.5","0.5","0.5","0.8","0.2","0.6","0.2","","","","","","","","","","","","","","72","H","0","img/none_selected.jpg","true","0","full_practice",""
"","text","71","286184","0.0-33.0","83877841","wem/bandit_party_1","A1GQS6USF2JEYG","either","8","2297","","","32","","","","","","","","","","","","","","","","","","","","","","","","","","","","","","","","","","","","",""
"","text-replacement","72","291211","0.0-34.0","83877841","wem/bandit_party_1","A1GQS6USF2JEYG","either","8","4024","","","32","","","","","","","","","","","","","","","","","","","","","","","","","","","","","","","","","","","","",""
"","text-replacement","73","293173","0.0-35.0","83877841","wem/bandit_party_1","A1GQS6USF2JEYG","either","8","1960","","","32","","","","","","","","","","","","","","","","","","","","","","","","","","","","","","","","","","","","",""
"","text-replacement","74","293707","0.0-36.0","83877841","wem/bandit_party_1","A1GQS6USF2JEYG","either","8","532","","","32","","","","","","","","","","","","","","","","","","","","","","","","","","","","","","","","","","","","",""
"","text-replacement","75","294167","0.0-37.0","83877841","wem/bandit_party_1","A1GQS6USF2JEYG","either","8","458","","","32","","","","","","","","","","","","","","","","","","","","","","","","","","","","","","","","","","","","",""
"","text-replacement","76","294943","0.0-38.0","83877841","wem/bandit_party_1","A1GQS6USF2JEYG","either","8","775","","","32","","","","","","","","","","","","","","","","","","","","","","","","","","","","","","","","","","","","",""
"","survey-multi-choice-replacement","77","299429","0.0-39.0-0.0","83877841","wem/bandit_party_1","A1GQS6USF2JEYG","either","8","4482","","","","","","","","","","","","","","","","","","","","","","","","Money will be added to the pool for <span style='color:blue;'>DEMOCRATS</span>","","","","","","","attn_check","","","","","","","","","0"
"","survey-multi-choice-replacement","78","310102","0.0-40.0-0.0","83877841","wem/bandit_party_1","A1GQS6USF2JEYG","either","8","9666","","","","","","","","","","","","","","","","","","","","","","","","Equal amounts of money will be added to the pool for <span style='color:blue;'>DEMOCRATS</span> and subtracted from the pool for <span style='color:red;'>REPUBLICANS</span>","","","","","","","attn_check","","","","","","","","","2"
"","survey-multi-choice-replacement","79","313678","0.0-41.0-0.0","83877841","wem/bandit_party_1","A1GQS6USF2JEYG","either","8","2568","","","","","","","","","","","","","","","","","","","","","","","","No money will be added to either pool","","","","","","","attn_check","","","","","","","","","3"
"","bandit","80","319583","0.0-42.0-0.0","83877841","wem/bandit_party_1","A1GQS6USF2JEYG","either","8","3399","","","","","","","0","0","1","","0.1351790469","0.8","0.6","0.4","0.2","0.1351790469","0.2637293772","0.2928194041","0.3540548627","","","","","","","","","","","","","","72","H","0","img/none_selected.jpg","","1","main_expt",""
"","bandit","81","321549","0.0-43.0-0.0","83877841","wem/bandit_party_1","A1GQS6USF2JEYG","either","8","459","","","","","","","0","0","1","0.2760013096","","0.8","0.6","0.4","0.2","","","","","0.125602744","0.2760013096","0.3040419902","0.3812516843","","","","","","","","","","74","J","1","","","2","main_expt",""
"","bandit","82","323952","0.0-44.0-0.0","83877841","wem/bandit_party_1","A1GQS6USF2JEYG","either","8","898","","","","","","","1","0","0","0.3240499928","","0.8","0.6","0.4","0.2","","","","","0.09574082279","0.3240499928","0.2875251023","0.3901316494","","","","","","","","","","74","J","1","","","3","main_expt",""
"","bandit","83","325846","0.0-45.0-0.0","83877841","wem/bandit_party_1","A1GQS6USF2JEYG","either","8","388","","","","","","","0","0","1","","0.2965567903","0.8","0.6","0.4","0.2","0.0913382225","0.3510822359","0.2965567903","0.3945399471","","","","","","","","","","","","","","75","K","2","","","4","main_expt",""
"","bandit","84","327584","0.0-46.0-0.0","83877841","wem/bandit_party_1","A1GQS6USF2JEYG","either","8","233","","","","","","","1","0","0","0.2681113314","","0.8","0.6","0.4","0.2","","","","","0.106177601","0.3522827721","0.2681113314","0.3997977613","","","","","","","","","","75","K","2","","","5","main_expt",""
"","bandit","85","329371","0.0-47.0-0.0","83877841","wem/bandit_party_1","A1GQS6USF2JEYG","either","8","280","","","","","","","0","0","1","0.2330443498","","0.8","0.6","0.4","0.2","","","","","0.08998955495","0.382674005","0.2330443498","0.390783501","","","","","","","","","","75","K","2","","","6","main_expt",""
"","bandit","86","331126","0.0-48.0-0.0","83877841","wem/bandit_party_1","A1GQS6USF2JEYG","either","8","249","","","","","","","0","0","1","","0.1630509172","0.8","0.6","0.4","0.2","0.1077526668","0.3998463606","0.1630509172","0.3305693427","","","","","","","","","","","","","","75","K","2","","","7","main_expt",""
"","bandit","87","333045","0.0-49.0-0.0","83877841","wem/bandit_party_1","A1GQS6USF2JEYG","either","8","414","","","","","","","1","0","0","0.3832029687","","0.8","0.6","0.4","0.2","","","","","0.1243697388","0.3832029687","0.2002468685","0.3056545716","","","","","","","","","","74","J","1","","","8","main_expt",""
"","bandit","88","335109","0.0-50.0-0.0","83877841","wem/bandit_party_1","A1GQS6USF2JEYG","either","8","560","","","","","","","0","0","1","0.3796681134","","0.8","0.6","0.4","0.2","","","","","0.1698108096","0.3796681134","0.1835034381","0.3278889804","","","","","","","","","","74","J","1","","","9","main_expt",""
"","bandit","89","336974","0.0-51.0-0.0","83877841","wem/bandit_party_1","A1GQS6USF2JEYG","either","8","360","","","","","","","0","0","1","0.3614311416","","0.8","0.6","0.4","0.2","","","","","0.221757114","0.3614311416","0.1939723001","0.3137855556","","","","","","","","","","74","J","1","","","10","main_expt",""
"","bandit","90","338804","0.0-52.0-0.0","83877841","wem/bandit_party_1","A1GQS6USF2JEYG","either","8","323","","","","","","","0","1","0","","0.3253079181","0.8","0.6","0.4","0.2","0.1961062924","0.3938737051","0.1949806013","0.3253079181","","","","","","","","","","","","","","76","L","3","","","11","main_expt",""
"","bandit","91","340891","0.0-53.0-0.0","83877841","wem/bandit_party_1","A1GQS6USF2JEYG","either","8","581","","","","","","","0","0","1","","0.3298150516","0.8","0.6","0.4","0.2","0.1907056259","0.3810544723","0.2587943474","0.3298150516","","","","","","","","","","","","","","76","L","3","","","12","main_expt",""
"","bandit","92","342729","0.0-54.0-0.0","83877841","wem/bandit_party_1","A1GQS6USF2JEYG","either","8","334","","","","","","","0","0","1","","0.3085985727","0.8","0.6","0.4","0.2","0.2162865666","0.3707046684","0.3085985727","0.3673307406","","","","","","","","","","","","","","75","K","2","","","13","main_expt",""
"","bandit","93","345495","0.0-55.0-0.0","83877841","wem/bandit_party_1","A1GQS6USF2JEYG","either","8","1262","","","","","","","1","0","0","0.2464992766","","0.8","0.6","0.4","0.2","","","","","0.2399362825","0.3486531997","0.2464992766","0.3679224674","","","","","","","","","","75","K","2","","","14","main_expt",""
"","bandit","94","347332","0.0-56.0-0.0","83877841","wem/bandit_party_1","A1GQS6USF2JEYG","either","8","332","","","","","","","0","0","1","0.2474611475","","0.8","0.6","0.4","0.2","","","","","0.1986859052","0.3263578384","0.2474611475","0.3062507314","","","","","","","","","","75","K","2","","","15","main_expt",""
"","bandit","95","349480","0.0-57.0-0.0","83877841","wem/bandit_party_1","A1GQS6USF2JEYG","either","8","644","","","","","","","0","1","0","","0.2835538477","0.8","0.6","0.4","0.2","0.1865641621","0.3514189979","0.2835538477","0.2892976033","","","","","","","","","","","","","","75","K","2","","","16","main_expt",""
"","bandit","96","353228","0.0-58.0-0.0","83877841","wem/bandit_party_1","A1GQS6USF2JEYG","either","8","2242","","","","","","","0","0","1","0.3256112075","","0.8","0.6","0.4","0.2","","","","","0.2035525071","0.3532592314","0.3256112075","0.2861796528","","","","","","","","","","75","K","2","","","17","main_expt",""
"","bandit","97","354852","0.0-59.0-0.0","83877841","wem/bandit_party_1","A1GQS6USF2JEYG","either","8","117","","","","","","","0","0","1","0.3858608091","","0.8","0.6","0.4","0.2","","","","","0.2039336531","0.3858608091","0.3802227677","0.2958570682","","","","","","","","","","74","J","1","","","18","main_expt",""
"","bandit","98","356482","0.0-60.0-0.0","83877841","wem/bandit_party_1","A1GQS6USF2JEYG","either","8","124","","","","","","","0","0","1","0.3837638756","","0.8","0.6","0.4","0.2","","","","","0.1598579642","0.3837638756","0.360566968","0.3353028819","","","","","","","","","","74","J","1","","","19","main_expt",""
"","bandit","99","358222","0.0-61.0-0.0","83877841","wem/bandit_party_1","A1GQS6USF2JEYG","either","8","233","","","","","","","0","0","1","0.2872100501","","0.8","0.6","0.4","0.2","","","","","0.1437622327","0.2872100501","0.3696799013","0.3139704528","","","","","","","","","","74","J","1","","","20","main_expt",""
"","bandit","100","362097","0.0-62.0-0.0","83877841","wem/bandit_party_1","A1GQS6USF2JEYG","either","8","2370","","","","","","","0","0","1","0.07974703335","","0.8","0.6","0.4","0.2","","","","","0.07974703335","0.2975414498","0.4006907501","0.2524707143","","","","","","","","","","72","H","0","img/none_selected.jpg","","21","main_expt",""
"","bandit","101","364144","0.0-63.0-0.0","83877841","wem/bandit_party_1","A1GQS6USF2JEYG","either","8","540","","","","","","","0","0","1","0.1361132429","","0.8","0.6","0.4","0.2","","","","","0.1361132429","0.2741965999","0.4081217326","0.248326021","","","","","","","","","","72","H","0","img/none_selected.jpg","","22","main_expt",""
"","bandit","102","366129","0.0-64.0-0.0","83877841","wem/bandit_party_1","A1GQS6USF2JEYG","either","8","481","","","","","","","0","0","1","0.1705973249","","0.8","0.6","0.4","0.2","","","","","0.1705973249","0.2379064449","0.3740207531","0.2937153481","","","","","","","","","","72","H","0","img/none_selected.jpg","","23","main_expt",""
"","bandit","103","368658","0.0-65.0-0.0","83877841","wem/bandit_party_1","A1GQS6USF2JEYG","either","8","1023","","","","","","","0","0","1","0.1392759225","","0.8","0.6","0.4","0.2","","","","","0.1392759225","0.2078598572","0.3913756451","0.2625315469","","","","","","","","","","72","H","0","img/none_selected.jpg","","24","main_expt",""
"","bandit","104","370904","0.0-66.0-0.0","83877841","wem/bandit_party_1","A1GQS6USF2JEYG","either","8","740","","","","","","","0","0","1","0.2764850733","","0.8","0.6","0.4","0.2","","","","","0.1800538527","0.2764850733","0.4100905738","0.2405651368","","","","","","","","","","74","J","1","","","25","main_expt",""
"","bandit","105","372473","0.0-67.0-0.0","83877841","wem/bandit_party_1","A1GQS6USF2JEYG","either","8","61","","","","","","","0","0","1","","0.3080191348","0.8","0.6","0.4","0.2","0.2146400533","0.3080191348","0.3600668969","0.2503350336","","","","","","","","","","","","","","74","J","1","","","26","main_expt",""
"","bandit","106","374004","0.0-68.0-0.0","83877841","wem/bandit_party_1","A1GQS6USF2JEYG","either","8","25","","","","","","","0","0","1","0.1948367851","","0.8","0.6","0.4","0.2","","","","","0.1948367851","0.3606197488","0.3703096079","0.354091838","","","","","","","","","","72","H","0","img/none_selected.jpg","","27","main_expt",""
"","bandit","107","375743","0.0-69.0-0.0","83877841","wem/bandit_party_1","A1GQS6USF2JEYG","either","8","236","","","","","","","0","0","1","0.3527269899","","0.8","0.6","0.4","0.2","","","","","0.2282666016","0.3696097963","0.3527269899","0.3419366675","","","","","","","","","","75","K","2","","","28","main_expt",""
"","bandit","108","377274","0.0-70.0-0.0","83877841","wem/bandit_party_1","A1GQS6USF2JEYG","either","8","27","","","","","","","0","0","1","0.2854860911","","0.8","0.6","0.4","0.2","","","","","0.1842618798","0.3434444954","0.2854860911","0.361896517","","","","","","","","","","75","K","2","","","29","main_expt",""
"","bandit","109","378911","0.0-71.0-0.0","83877841","wem/bandit_party_1","A1GQS6USF2JEYG","either","8","130","","","","","","","1","0","0","0.3528183973","","0.8","0.6","0.4","0.2","","","","","0.1930267653","0.3528183973","0.2971434158","0.3701160785","","","","","","","","","","74","J","1","","","30","main_expt",""
"","bandit","110","380428","0.0-72.0-0.0","83877841","wem/bandit_party_1","A1GQS6USF2JEYG","either","8","13","","","","","","","0","0","1","0.3436926249","","0.8","0.6","0.4","0.2","","","","","0.2279264959","0.3436926249","0.3192935598","0.3602312343","","","","","","","","","","74","J","1","","","31","main_expt",""
"","bandit","111","383708","0.0-73.0-0.0","83877841","wem/bandit_party_1","A1GQS6USF2JEYG","either","8","1775","","","","","","","0","0","1","","0.3392376576","0.8","0.6","0.4","0.2","0.1922668126","0.3392376576","0.2910845839","0.3550043818","","","","","","","","","","","","","","74","J","1","","","32","main_expt",""
"","bandit","112","385542","0.0-74.0-0.0","83877841","wem/bandit_party_1","A1GQS6USF2JEYG","either","8","329","","","","","","","0","1","0","","0.2524106513","0.8","0.6","0.4","0.2","0.1503247695","0.2524106513","0.2956883229","0.3927862597","","","","","","","","","","","","","","74","J","1","","","33","main_expt",""
"","bandit","113","387627","0.0-75.0-0.0","83877841","wem/bandit_party_1","A1GQS6USF2JEYG","either","8","578","","","","","","","0","0","1","","0.4185963197","0.8","0.6","0.4","0.2","0.1875072744","0.2378308988","0.2918182698","0.4185963197","","","","","","","","","","","","","","76","L","3","","","34","main_expt",""
"","bandit","114","389184","0.0-76.0-0.0","83877841","wem/bandit_party_1","A1GQS6USF2JEYG","either","8","50","","","","","","","0","0","1","","0.441983755","0.8","0.6","0.4","0.2","0.2135507624","0.2683654211","0.3063909307","0.441983755","","","","","","","","","","","","","","76","L","3","","","35","main_expt",""
"","bandit","115","391452","0.0-77.0-0.0","83877841","wem/bandit_party_1","A1GQS6USF2JEYG","either","8","225","","","","","","","0","0","1","","0.4352827683","0.8","0.6","0.4","0.2","0.2042402853","0.2645223933","0.2820805085","0.4352827683","","","","","","","","","","","","","","76","L","3","","","36","main_expt",""
"","bandit","116","393225","0.0-78.0-0.0","83877841","wem/bandit_party_1","A1GQS6USF2JEYG","either","8","267","","","","","","","0","0","1","","0.450520142","0.8","0.6","0.4","0.2","0.2024605481","0.2360561858","0.2610370824","0.450520142","","","","","","","","","","","","","","76","L","3","","","37","main_expt",""
"","bandit","117","395431","0.0-79.0-0.0","83877841","wem/bandit_party_1","A1GQS6USF2JEYG","either","8","701","","","","","","","0","0","1","0.2001865083","","0.8","0.6","0.4","0.2","","","","","0.1677713785","0.2001865083","0.1896233007","0.4681224698","","","","","","","","","","74","J","1","","","38","main_expt",""
"","bandit","118","397018","0.0-80.0-0.0","83877841","wem/bandit_party_1","A1GQS6USF2JEYG","either","8","79","","","","","","","0","0","1","0.1687915361","","0.8","0.6","0.4","0.2","","","","","0.221779122","0.1687915361","0.168851025","0.4711022053","","","","","","","","","","74","J","1","","","39","main_expt",""
"","bandit","119","399705","0.0-81.0-0.0","83877841","wem/bandit_party_1","A1GQS6USF2JEYG","either","8","1181","","","","","","","0","0","1","","0.1503151413","0.8","0.6","0.4","0.2","0.2722397218","0.1503151413","0.1615787635","0.4559447699","","","","","","","","","","","","","","74","J","1","","","40","main_expt",""
"","bandit","120","401725","0.0-82.0-0.0","83877841","wem/bandit_party_1","A1GQS6USF2JEYG","either","8","515","","","","","","","0","0","1","0.3298230943","","0.8","0.6","0.4","0.2","","","","","0.3298230943","0.08168262283","0.1472326003","0.4412687596","","","","","","","","","","72","H","0","img/none_selected.jpg","","41","main_expt",""
"","bandit","121","403700","0.0-83.0-0.0","83877841","wem/bandit_party_1","A1GQS6USF2JEYG","either","8","469","","","","","","","0","1","0","","0.3104885444","0.8","0.6","0.4","0.2","0.3104885444","0.07668629145","0.1533480506","0.4457751761","","","","","","","","","","","","","","72","H","0","img/none_selected.jpg","","42","main_expt",""
"","bandit","122","405450","0.0-84.0-0.0","83877841","wem/bandit_party_1","A1GQS6USF2JEYG","either","8","243","","","","","","","0","0","1","0.07394587158","","0.8","0.6","0.4","0.2","","","","","0.3005355489","0.07394587158","0.1414351437","0.4298378352","","","","","","","","","","74","J","1","","","43","main_expt",""
"","bandit","123","407075","0.0-85.0-0.0","83877841","wem/bandit_party_1","A1GQS6USF2JEYG","either","8","116","","","","","","","0","0","1","0.1192337685","","0.8","0.6","0.4","0.2","","","","","0.2456242138","0.1192337685","0.1067646429","0.4416915379","","","","","","","","","","74","J","1","","","44","main_expt",""
"","bandit","124","408679","0.0-86.0-0.0","83877841","wem/bandit_party_1","A1GQS6USF2JEYG","either","8","100","","","","","","","0","0","1","0.1285724119","","0.8","0.6","0.4","0.2","","","","","0.2839901561","0.1285724119","0.1250796286","0.3915522423","","","","","","","","","","74","J","1","","","45","main_expt",""
"","bandit","125","410296","0.0-87.0-0.0","83877841","wem/bandit_party_1","A1GQS6USF2JEYG","either","8","111","","","","","","","1","0","0","0.1927264636","","0.8","0.6","0.4","0.2","","","","","0.2353621531","0.1112684106","0.1927264636","0.4318427431","","","","","","","","","","75","K","2","","","46","main_expt",""
"","bandit","126","412174","0.0-88.0-0.0","83877841","wem/bandit_party_1","A1GQS6USF2JEYG","either","8","373","","","","","","","0","0","1","","0.1804488412","0.8","0.6","0.4","0.2","0.2405257196","0.1207340475","0.1804488412","0.4395998441","","","","","","","","","","","","","","75","K","2","","","47","main_expt",""
"","bandit","127","413970","0.0-89.0-0.0","83877841","wem/bandit_party_1","A1GQS6USF2JEYG","either","8","288","","","","","","","0","1","0","","0.168268176","0.8","0.6","0.4","0.2","0.2629408555","0.1182533935","0.168268176","0.4630443269","","","","","","","","","","","","","","75","K","2","","","48","main_expt",""
"","bandit","128","415751","0.0-90.0-0.0","83877841","wem/bandit_party_1","A1GQS6USF2JEYG","either","8","275","","","","","","","0","0","1","","0.1466838001","0.8","0.6","0.4","0.2","0.2902453213","0.1460801474","0.1466838001","0.4794982466","","","","","","","","","","","","","","75","K","2","","","49","main_expt",""
"","bandit","129","420221","0.0-91.0-0.0","83877841","wem/bandit_party_1","A1GQS6USF2JEYG","either","8","2963","","","","","","","1","0","0","0.1336340117","","0.8","0.6","0.4","0.2","","","","","0.3033715012","0.1765155983","0.1336340117","0.4562783041","","","","","","","","","","75","K","2","","","50","main_expt",""
"","bandit","130","422500","0.0-92.0-0.0","83877841","wem/bandit_party_1","A1GQS6USF2JEYG","either","8","773","","","","","","","0","0","1","","0.1067821754","0.8","0.6","0.4","0.2","0.3536831403","0.1614266163","0.1067821754","0.4515646323","","","","","","","","","","","","","","75","K","2","","","51","main_expt",""
"","bandit","131","424591","0.0-93.0-0.0","83877841","wem/bandit_party_1","A1GQS6USF2JEYG","either","8","584","","","","","","","0","0","1","0.07294577227","","0.8","0.6","0.4","0.2","","","","","0.3058792917","0.1938643747","0.07294577227","0.4344137529","","","","","","","","","","75","K","2","","","52","main_expt",""
"","bandit","132","426110","0.0-94.0-0.0","83877841","wem/bandit_party_1","A1GQS6USF2JEYG","either","8","14","","","","","","","0","0","1","0.07676454597","","0.8","0.6","0.4","0.2","","","","","0.3466820038","0.1721886996","0.07676454597","0.4421766306","","","","","","","","","","75","K","2","","","53","main_expt",""
"","bandit","133","427997","0.0-95.0-0.0","83877841","wem/bandit_party_1","A1GQS6USF2JEYG","either","8","381","","","","","","","1","0","0","0.4591875032","","0.8","0.6","0.4","0.2","","","","","0.3159173384","0.1542880765","0.07707135067","0.4591875032","","","","","","","","","","76","L","3","","","54","main_expt",""
"","bandit","134","429773","0.0-96.0-0.0","83877841","wem/bandit_party_1","A1GQS6USF2JEYG","either","8","270","","","","","","","0","0","1","","0.4455250987","0.8","0.6","0.4","0.2","0.3205246683","0.2155598061","0.08227932488","0.4455250987","","","","","","","","","","","","","","76","L","3","","","55","main_expt",""
"","bandit","135","431751","0.0-97.0-0.0","83877841","wem/bandit_party_1","A1GQS6USF2JEYG","either","8","471","","","","","","","0","0","1","","0.4200701886","0.8","0.6","0.4","0.2","0.3067659888","0.199350645","0.09013031375","0.4200701886","","","","","","","","","","","","","","76","L","3","","","56","main_expt",""
"","bandit","136","433472","0.0-98.0-0.0","83877841","wem/bandit_party_1","A1GQS6USF2JEYG","either","8","214","","","","","","","0","0","1","","0.1991981904","0.8","0.6","0.4","0.2","0.3786279545","0.1991981904","0.106866739","0.3635567377","","","","","","","","","","","","","","74","J","1","","","57","main_expt",""
"","bandit","137","435465","0.0-99.0-0.0","83877841","wem/bandit_party_1","A1GQS6USF2JEYG","either","8","487","","","","","","","0","0","1","","0.1307276253","0.8","0.6","0.4","0.2","0.3796022377","0.1307276253","0.0915584437","0.3647217687","","","","","","","","","","","","","","74","J","1","","","58","main_expt",""
"","bandit","138","437473","0.0-100.0-0.0","83877841","wem/bandit_party_1","A1GQS6USF2JEYG","either","8","503","","","","","","","1","0","0","0.1540949786","","0.8","0.6","0.4","0.2","","","","","0.3570845549","0.1540949786","0.1036540812","0.3975499765","","","","","","","","","","74","J","1","","","59","main_expt",""
"","bandit","139","439858","0.0-101.0-0.0","83877841","wem/bandit_party_1","A1GQS6USF2JEYG","either","8","880","","","","","","","0","0","1","0.1187181044","","0.8","0.6","0.4","0.2","","","","","0.398525789","0.1187181044","0.07948280662","0.376383165","","","","","","","","","","74","J","1","","","60","main_expt",""
"","bandit","140","441674","0.0-102.0-0.0","83877841","wem/bandit_party_1","A1GQS6USF2JEYG","either","8","310","","","","","","","0","1","0","","0.1734870435","0.8","0.6","0.4","0.2","0.380986593","0.1734870435","0.0685056185","0.3384437455","","","","","","","","","","","","","","74","J","1","","","61","main_expt",""
"","bandit","141","445119","0.0-103.0-0.0","83877841","wem/bandit_party_1","A1GQS6USF2JEYG","either","8","1941","","","","","","","0","0","1","0.2056999461","","0.8","0.6","0.4","0.2","","","","","0.3928002855","0.2056999461","0.04196312691","0.3086389155","","","","","","","","","","74","J","1","","","62","main_expt",""
"","bandit","142","447853","0.0-104.0-0.0","83877841","wem/bandit_party_1","A1GQS6USF2JEYG","either","8","1226","","","","","","","0","0","1","0.4097838671","","0.8","0.6","0.4","0.2","","","","","0.4097838671","0.2421495796","0.06524357318","0.3098998428","","","","","","","","","","72","H","0","img/none_selected.jpg","","63","main_expt",""
"","bandit","143","449717","0.0-105.0-0.0","83877841","wem/bandit_party_1","A1GQS6USF2JEYG","either","8","358","","","","","","","0","0","1","0.3942475769","","0.8","0.6","0.4","0.2","","","","","0.3942475769","0.2678986655","0.04599317762","0.2859800092","","","","","","","","","","72","H","0","img/none_selected.jpg","","64","main_expt",""
"","bandit","144","452426","0.0-106.0-0.0","83877841","wem/bandit_party_1","A1GQS6USF2JEYG","either","8","1203","","","","","","","0","0","1","0.3756823908","","0.8","0.6","0.4","0.2","","","","","0.3756823908","0.2780805564","0.04738713632","0.2780623804","","","","","","","","","","72","H","0","img/none_selected.jpg","","65","main_expt",""
"","bandit","145","454177","0.0-107.0-0.0","83877841","wem/bandit_party_1","A1GQS6USF2JEYG","either","8","245","","","","","","","0","0","1","0.3780323226","","0.8","0.6","0.4","0.2","","","","","0.3780323226","0.2923516192","0.02873144913","0.2740889186","","","","","","","","","","72","H","0","img/none_selected.jpg","","66","main_expt",""
"","bandit","146","456244","0.0-108.0-0.0","83877841","wem/bandit_party_1","A1GQS6USF2JEYG","either","8","563","","","","","","","0","0","1","0.382091886","","0.8","0.6","0.4","0.2","","","","","0.382091886","0.3481747094","0.0355516853","0.3122756929","","","","","","","","","","72","H","0","img/none_selected.jpg","","67","main_expt",""
"","bandit","147","457778","0.0-109.0-0.0","83877841","wem/bandit_party_1","A1GQS6USF2JEYG","either","8","29","","","","","","","0","0","1","","0.3540590834","0.8","0.6","0.4","0.2","0.4080562953","0.3540590834","0.04483006882","0.3004294993","","","","","","","","","","","","","","74","J","1","","","68","main_expt",""
"","bandit","148","460845","0.0-110.0-0.0","83877841","wem/bandit_party_1","A1GQS6USF2JEYG","either","8","1562","","","","","","","0","0","1","0.3348318208","","0.8","0.6","0.4","0.2","","","","","0.419826639","0.3348318208","0.04300650393","0.3312842332","","","","","","","","","","74","J","1","","","69","main_expt",""
"","bandit","149","462380","0.0-111.0-0.0","83877841","wem/bandit_party_1","A1GQS6USF2JEYG","either","8","28","","","","","","","0","1","0","","0.3844983113","0.8","0.6","0.4","0.2","0.3889643965","0.3844983113","0.03960880855","0.2362018798","","","","","","","","","","","","","","74","J","1","","","70","main_expt",""
"","bandit","150","466138","0.0-112.0-0.0","83877841","wem/bandit_party_1","A1GQS6USF2JEYG","either","8","2251","","","","","","","0","0","1","0.3492343966","","0.8","0.6","0.4","0.2","","","","","0.3492343966","0.3753843975","0.02401392238","0.1838323472","","","","","","","","","","72","H","0","img/none_selected.jpg","","71","main_expt",""
"","bandit","151","468304","0.0-113.0-0.0","83877841","wem/bandit_party_1","A1GQS6USF2JEYG","either","8","661","","","","","","","1","0","0","0.3502155883","","0.8","0.6","0.4","0.2","","","","","0.3502155883","0.3861429343","0.008756159955","0.1749810972","","","","","","","","","","72","H","0","img/none_selected.jpg","","72","main_expt",""
"","bandit","152","470290","0.0-114.0-0.0","83877841","wem/bandit_party_1","A1GQS6USF2JEYG","either","8","480","","","","","","","1","0","0","0.3568691787","","0.8","0.6","0.4","0.2","","","","","0.3568691787","0.3978436086","0.006257651783","0.1664097112","","","","","","","","","","72","H","0","img/none_selected.jpg","","73","main_expt",""
"","bandit","153","472226","0.0-115.0-0.0","83877841","wem/bandit_party_1","A1GQS6USF2JEYG","either","8","429","","","","","","","0","0","1","0.3303653739","","0.8","0.6","0.4","0.2","","","","","0.3303653739","0.3847979518","0.004732084297","0.2001176207","","","","","","","","","","72","H","0","img/none_selected.jpg","","74","main_expt",""
"","bandit","154","473974","0.0-116.0-0.0","83877841","wem/bandit_party_1","A1GQS6USF2JEYG","either","8","243","","","","","","","0","0","1","0.3353283381","","0.8","0.6","0.4","0.2","","","","","0.3353283381","0.3974319157","0.006967558871","0.1848717924","","","","","","","","","","72","H","0","img/none_selected.jpg","","75","main_expt",""
"","bandit","155","475764","0.0-117.0-0.0","83877841","wem/bandit_party_1","A1GQS6USF2JEYG","either","8","283","","","","","","","0","0","1","0.3009524994","","0.8","0.6","0.4","0.2","","","","","0.3009524994","0.3987985884","0.004525860487","0.1510178238","","","","","","","","","","72","H","0","img/none_selected.jpg","","76","main_expt",""
"","bandit","156","477460","0.0-118.0-0.0","83877841","wem/bandit_party_1","A1GQS6USF2JEYG","either","8","191","","","","","","","0","0","1","0.3316028908","","0.8","0.6","0.4","0.2","","","","","0.3316028908","0.4127312768","0.007245535115","0.2089633591","","","","","","","","","","72","H","0","img/none_selected.jpg","","77","main_expt",""
"","bandit","157","479208","0.0-119.0-0.0","83877841","wem/bandit_party_1","A1GQS6USF2JEYG","either","8","241","","","","","","","0","1","0","","0.3571024926","0.8","0.6","0.4","0.2","0.3571024926","0.4257675477","0.00483057751","0.2285147345","","","","","","","","","","","","","","72","H","0","img/none_selected.jpg","","78","main_expt",""
"","bandit","158","480792","0.0-120.0-0.0","83877841","wem/bandit_party_1","A1GQS6USF2JEYG","either","8","79","","","","","","","0","0","1","","0.3542776451","0.8","0.6","0.4","0.2","0.3542776451","0.4331167668","0.005956317848","0.2246975601","","","","","","","","","","","","","","72","H","0","img/none_selected.jpg","","79","main_expt",""
"","bandit","159","482655","0.0-121.0-0.0","83877841","wem/bandit_party_1","A1GQS6USF2JEYG","either","8","356","","","","","","","0","0","1","0.3201174307","","0.8","0.6","0.4","0.2","","","","","0.3201174307","0.4294395537","0.0076590047","0.1878766281","","","","","","","","","","72","H","0","img/none_selected.jpg","","80","main_expt",""
"","bandit","160","484235","0.0-122.0-0.0","83877841","wem/bandit_party_1","A1GQS6USF2JEYG","either","8","71","","","","","","","1","0","0","0.3503003334","","0.8","0.6","0.4","0.2","","","","","0.3503003334","0.4234249918","0.009115568074","0.2436254364","","","","","","","","","","72","H","0","img/none_selected.jpg","","81","main_expt",""
"","bandit","161","485875","0.0-123.0-0.0","83877841","wem/bandit_party_1","A1GQS6USF2JEYG","either","8","136","","","","","","","0","0","1","0.3509066846","","0.8","0.6","0.4","0.2","","","","","0.3509066846","0.3956977209","0.01382977225","0.2627531714","","","","","","","","","","72","H","0","img/none_selected.jpg","","82","main_expt",""
"","bandit","162","487531","0.0-124.0-0.0","83877841","wem/bandit_party_1","A1GQS6USF2JEYG","either","8","150","","","","","","","0","0","1","","0.3951868033","0.8","0.6","0.4","0.2","0.3951868033","0.4248650233","0.01500629599","0.2672212524","","","","","","","","","","","","","","72","H","0","img/none_selected.jpg","","83","main_expt",""
"","bandit","163","489199","0.0-125.0-0.0","83877841","wem/bandit_party_1","A1GQS6USF2JEYG","either","8","160","","","","","","","0","1","0","","0.4131477378","0.8","0.6","0.4","0.2","0.4131477378","0.4196907627","0.02310127573","0.2817484998","","","","","","","","","","","","","","72","H","0","img/none_selected.jpg","","84","main_expt",""
"","bandit","164","490838","0.0-126.0-0.0","83877841","wem/bandit_party_1","A1GQS6USF2JEYG","either","8","133","","","","","","","1","0","0","0.3889697292","","0.8","0.6","0.4","0.2","","","","","0.3889697292","0.435633498","0.02639065846","0.3074775227","","","","","","","","","","72","H","0","img/none_selected.jpg","","85","main_expt",""
"","bandit","165","566268","0.0-127.0-0.0","83877841","wem/bandit_party_1","A1GQS6USF2JEYG","either","8","73925","","","","","","","0","0","1","0.3885636443","","0.8","0.6","0.4","0.2","","","","","0.3885636443","0.4322222521","0.01746441632","0.2717847629","","","","","","","","","","72","H","0","img/none_selected.jpg","","86","main_expt",""
"","bandit","166","568207","0.0-128.0-0.0","83877841","wem/bandit_party_1","A1GQS6USF2JEYG","either","8","433","","","","","","","1","0","0","0.4028282504","","0.8","0.6","0.4","0.2","","","","","0.4028282504","0.4476119451","0.01256144444","0.2183858348","","","","","","","","","","72","H","0","img/none_selected.jpg","","87","main_expt",""
"","bandit","167","571134","0.0-129.0-0.0","83877841","wem/bandit_party_1","A1GQS6USF2JEYG","either","8","1420","","","","","","","1","0","0","0.4306890759","","0.8","0.6","0.4","0.2","","","","","0.4306890759","0.4073123198","0.01178158386","0.2054961256","","","","","","","","","","72","H","0","img/none_selected.jpg","","88","main_expt",""
"","bandit","168","573234","0.0-130.0-0.0","83877841","wem/bandit_party_1","A1GQS6USF2JEYG","either","8","594","","","","","","","0","0","1","","0.4103738654","0.8","0.6","0.4","0.2","0.4103738654","0.3862301724","0.008722555822","0.1452714398","","","","","","","","","","","","","","72","H","0","img/none_selected.jpg","","89","main_expt",""
"","bandit","169","582262","0.0-131.0-0.0","83877841","wem/bandit_party_1","A1GQS6USF2JEYG","either","8","7520","","","","","","","0","0","1","0.3980827974","","0.8","0.6","0.4","0.2","","","","","0.3980827974","0.3596745144","0.008232471735","0.1077779513","","","","","","","","","","72","H","0","img/none_selected.jpg","","90","main_expt",""
"","bandit","170","583985","0.0-132.0-0.0","83877841","wem/bandit_party_1","A1GQS6USF2JEYG","either","8","217","","","","","","","1","0","0","0.4040531024","","0.8","0.6","0.4","0.2","","","","","0.4040531024","0.3082854458","0.01249180717","0.1308407065","","","","","","","","","","72","H","0","img/none_selected.jpg","","91","main_expt",""
"","bandit","171","586116","0.0-133.0-0.0","83877841","wem/bandit_party_1","A1GQS6USF2JEYG","either","8","627","","","","","","","0","0","1","0.3462944796","","0.8","0.6","0.4","0.2","","","","","0.3462944796","0.312225492","0.01470986316","0.1652322036","","","","","","","","","","72","H","0","img/none_selected.jpg","","92","main_expt",""
"","bandit","172","587743","0.0-134.0-0.0","83877841","wem/bandit_party_1","A1GQS6USF2JEYG","either","8","121","","","","","","","1","0","0","0.3411451966","","0.8","0.6","0.4","0.2","","","","","0.3411451966","0.3671658277","0.02655281846","0.1344678182","","","","","","","","","","72","H","0","img/none_selected.jpg","","93","main_expt",""
"","bandit","173","590688","0.0-135.0-0.0","83877841","wem/bandit_party_1","A1GQS6USF2JEYG","either","8","1437","","","","","","","0","0","1","0.3384154489","","0.8","0.6","0.4","0.2","","","","","0.3384154489","0.3401731108","0.02575246025","0.1301314301","","","","","","","","","","72","H","0","img/none_selected.jpg","","94","main_expt",""
"","bandit","174","592221","0.0-136.0-0.0","83877841","wem/bandit_party_1","A1GQS6USF2JEYG","either","8","27","","","","","","","0","0","1","0.3126988266","","0.8","0.6","0.4","0.2","","","","","0.3126988266","0.3413923724","0.02262355665","0.1746055711","","","","","","","","","","72","H","0","img/none_selected.jpg","","95","main_expt",""
"","bandit","175","593869","0.0-137.0-0.0","83877841","wem/bandit_party_1","A1GQS6USF2JEYG","either","8","142","","","","","","","1","0","0","0.3800019137","","0.8","0.6","0.4","0.2","","","","","0.3800019137","0.3570420485","0.02047181149","0.1994244555","","","","","","","","","","72","H","0","img/none_selected.jpg","","96","main_expt",""
"","bandit","176","595464","0.0-138.0-0.0","83877841","wem/bandit_party_1","A1GQS6USF2JEYG","either","8","88","","","","","","","1","0","0","0.3328121005","","0.8","0.6","0.4","0.2","","","","","0.3328121005","0.3435474977","0.0207754381","0.1834602947","","","","","","","","","","72","H","0","img/none_selected.jpg","","97","main_expt",""
"","bandit","177","597250","0.0-139.0-0.0","83877841","wem/bandit_party_1","A1GQS6USF2JEYG","either","8","280","","","","","","","0","0","1","","0.332228596","0.8","0.6","0.4","0.2","0.332228596","0.3614714926","0.02955834597","0.1719221531","","","","","","","","","","","","","","72","H","0","img/none_selected.jpg","","98","main_expt",""
"","bandit","178","598839","0.0-140.0-0.0","83877841","wem/bandit_party_1","A1GQS6USF2JEYG","either","8","83","","","","","","","0","0","1","0.2843854285","","0.8","0.6","0.4","0.2","","","","","0.2843854285","0.3176405447","0.0383131093","0.1183399241","","","","","","","","","","72","H","0","img/none_selected.jpg","","99","main_expt",""
"","bandit","179","600354","0.0-141.0-0.0","83877841","wem/bandit_party_1","A1GQS6USF2JEYG","either","8","9","","","","","","","0","0","1","0.309751149","","0.8","0.6","0.4","0.2","","","","","0.309751149","0.3586553183","0.03580757471","0.1558635017","","","","","","","","","","72","H","0","img/none_selected.jpg","","100","main_expt",""
"","bandit","180","602155","0.0-142.0-0.0","83877841","wem/bandit_party_1","A1GQS6USF2JEYG","either","8","296","","","","","","","1","0","0","0.2993195944","","0.8","0.6","0.4","0.2","","","","","0.2993195944","0.2951503345","0.04899620691","0.1389665978","","","","","","","","","","72","H","0","img/none_selected.jpg","","101","main_expt",""
"","bandit","181","611626","0.0-143.0-0.0","83877841","wem/bandit_party_1","A1GQS6USF2JEYG","either","8","7965","","","","","","","0","0","1","0.3551890872","","0.8","0.6","0.4","0.2","","","","","0.3551890872","0.2998391809","0.08055650644","0.1377203561","","","","","","","","","","72","H","0","img/none_selected.jpg","","102","main_expt",""
"","bandit","182","613519","0.0-144.0-0.0","83877841","wem/bandit_party_1","A1GQS6USF2JEYG","either","8","386","","","","","","","0","1","0","","0.3148404956","0.8","0.6","0.4","0.2","0.3148404956","0.2791823827","0.1040447627","0.1285548106","","","","","","","","","","","","","","72","H","0","img/none_selected.jpg","","103","main_expt",""
"","bandit","183","616429","0.0-145.0-0.0","83877841","wem/bandit_party_1","A1GQS6USF2JEYG","either","8","1400","","","","","","","0","1","0","","0.3286912191","0.8","0.6","0.4","0.2","0.3286912191","0.3382769334","0.1143547335","0.1555523735","","","","","","","","","","","","","","72","H","0","img/none_selected.jpg","","104","main_expt",""
"","bandit","184","618953","0.0-146.0-0.0","83877841","wem/bandit_party_1","A1GQS6USF2JEYG","either","8","1018","","","","","","","0","0","1","0.298340497","","0.8","0.6","0.4","0.2","","","","","0.298340497","0.3339697125","0.1487676438","0.1775592141","","","","","","","","","","72","H","0","img/none_selected.jpg","","105","main_expt",""
"","bandit","185","620593","0.0-147.0-0.0","83877841","wem/bandit_party_1","A1GQS6USF2JEYG","either","8","134","","","","","","","1","0","0","0.3504464386","","0.8","0.6","0.4","0.2","","","","","0.3504464386","0.3124129253","0.152088545","0.2263451353","","","","","","","","","","72","H","0","img/none_selected.jpg","","106","main_expt",""
"","bandit","186","622268","0.0-148.0-0.0","83877841","wem/bandit_party_1","A1GQS6USF2JEYG","either","8","169","","","","","","","0","0","1","0.3510410077","","0.8","0.6","0.4","0.2","","","","","0.3510410077","0.3400683723","0.2406734145","0.1679769802","","","","","","","","","","72","H","0","img/none_selected.jpg","","107","main_expt",""
"","bandit","187","624228","0.0-149.0-0.0","83877841","wem/bandit_party_1","A1GQS6USF2JEYG","either","8","454","","","","","","","0","0","1","0.3282766846","","0.8","0.6","0.4","0.2","","","","","0.3282766846","0.3557340834","0.3048040024","0.1999870147","","","","","","","","","","72","H","0","img/none_selected.jpg","","108","main_expt",""
"","bandit","188","625841","0.0-150.0-0.0","83877841","wem/bandit_party_1","A1GQS6USF2JEYG","either","8","107","","","","","","","0","0","1","0.3561186451","","0.8","0.6","0.4","0.2","","","","","0.3561186451","0.3846418901","0.3418503096","0.208992856","","","","","","","","","","72","H","0","img/none_selected.jpg","","109","main_expt",""
"","bandit","189","627462","0.0-151.0-0.0","83877841","wem/bandit_party_1","A1GQS6USF2JEYG","either","8","112","","","","","","","0","0","1","0.3576445865","","0.8","0.6","0.4","0.2","","","","","0.3576445865","0.4057962062","0.3198501315","0.1716040471","","","","","","","","","","72","H","0","img/none_selected.jpg","","110","main_expt",""
"","bandit","190","629034","0.0-152.0-0.0","83877841","wem/bandit_party_1","A1GQS6USF2JEYG","either","8","66","","","","","","","0","0","1","0.3377543854","","0.8","0.6","0.4","0.2","","","","","0.3377543854","0.3692451483","0.3681534847","0.08984071331","","","","","","","","","","72","H","0","img/none_selected.jpg","","111","main_expt",""
"","bandit","191","630638","0.0-153.0-0.0","83877841","wem/bandit_party_1","A1GQS6USF2JEYG","either","8","99","","","","","","","0","1","0","","0.3577317973","0.8","0.6","0.4","0.2","0.286234052","0.3577317973","0.3757830796","0.1243463141","","","","","","","","","","","","","","74","J","1","","","112","main_expt",""
"","bandit","192","632406","0.0-154.0-0.0","83877841","wem/bandit_party_1","A1GQS6USF2JEYG","either","8","261","","","","","","","1","0","0","0.1932674395","","0.8","0.6","0.4","0.2","","","","","0.1932674395","0.3328808086","0.3838999828","0.1433440675","","","","","","","","","","72","H","0","img/none_selected.jpg","","113","main_expt",""
"","bandit","193","634081","0.0-155.0-0.0","83877841","wem/bandit_party_1","A1GQS6USF2JEYG","either","8","166","","","","","","","0","0","1","0.2403040534","","0.8","0.6","0.4","0.2","","","","","0.2403040534","0.3416979579","0.4157938717","0.1510662198","","","","","","","","","","72","H","0","img/none_selected.jpg","","114","main_expt",""
"","bandit","194","635587","0.0-156.0-0.0","83877841","wem/bandit_party_1","A1GQS6USF2JEYG","either","8","1","","","","","","","0","0","1","0.254937398","","0.8","0.6","0.4","0.2","","","","","0.254937398","0.3377137281","0.4055870595","0.09845245139","","","","","","","","","","72","H","0","img/none_selected.jpg","","115","main_expt",""
"","bandit","195","638200","0.0-157.0-0.0","83877841","wem/bandit_party_1","A1GQS6USF2JEYG","either","8","1106","","","","","","","1","0","0","0.4161015278","","0.8","0.6","0.4","0.2","","","","","0.2605063941","0.3039448029","0.4161015278","0.107393795","","","","","","","","","","75","K","2","","","116","main_expt",""
"","bandit","196","639765","0.0-158.0-0.0","83877841","wem/bandit_party_1","A1GQS6USF2JEYG","either","8","60","","","","","","","0","0","1","0.414877819","","0.8","0.6","0.4","0.2","","","","","0.2161328783","0.2974336912","0.414877819","0.07879800556","","","","","","","","","","75","K","2","","","117","main_expt",""
"","bandit","197","641400","0.0-159.0-0.0","83877841","wem/bandit_party_1","A1GQS6USF2JEYG","either","8","129","","","","","","","0","1","0","","0.3968259953","0.8","0.6","0.4","0.2","0.1931197841","0.2651867246","0.3968259953","0.08383735875","","","","","","","","","","","","","","75","K","2","","","118","main_expt",""
"","bandit","198","643051","0.0-160.0-0.0","83877841","wem/bandit_party_1","A1GQS6USF2JEYG","either","8","146","","","","","","","0","0","1","","0.1392474383","0.8","0.6","0.4","0.2","0.1638183597","0.3131666206","0.4198241006","0.1392474383","","","","","","","","","","","","","","76","L","3","","","119","main_expt",""
"","bandit","199","644634","0.0-161.0-0.0","83877841","wem/bandit_party_1","A1GQS6USF2JEYG","either","8","77","","","","","","","0","0","1","","0.1649404926","0.8","0.6","0.4","0.2","0.1893282748","0.358829095","0.4286088018","0.1649404926","","","","","","","","","","","","","","76","L","3","","","120","main_expt",""
"","bandit","200","646165","0.0-162.0-0.0","83877841","wem/bandit_party_1","A1GQS6USF2JEYG","either","8","24","","","","","","","0","0","1","0.1764152442","","0.8","0.6","0.4","0.2","","","","","0.2290368179","0.3189860171","0.4253829576","0.1764152442","","","","","","","","","","76","L","3","","","121","main_expt",""
"","bandit","201","647770","0.0-163.0-0.0","83877841","wem/bandit_party_1","A1GQS6USF2JEYG","either","8","98","","","","","","","0","0","1","0.2092397698","","0.8","0.6","0.4","0.2","","","","","0.2445441383","0.3011672979","0.4235175979","0.2092397698","","","","","","","","","","76","L","3","","","122","main_expt",""
"","bandit","202","649366","0.0-164.0-0.0","83877841","wem/bandit_party_1","A1GQS6USF2JEYG","either","8","91","","","","","","","0","0","1","","0.1884058447","0.8","0.6","0.4","0.2","0.2091075756","0.3037948063","0.4182090072","0.1884058447","","","","","","","","","","","","","","76","L","3","","","123","main_expt",""
"","bandit","203","650944","0.0-165.0-0.0","83877841","wem/bandit_party_1","A1GQS6USF2JEYG","either","8","72","","","","","","","0","0","1","","0.1876417206","0.8","0.6","0.4","0.2","0.2216111921","0.2446200253","0.4356016004","0.1876417206","","","","","","","","","","","","","","76","L","3","","","124","main_expt",""
"","bandit","204","666266","0.0-166.0-0.0","83877841","wem/bandit_party_1","A1GQS6USF2JEYG","either","8","13813","","","","","","","0","0","1","0.1622020501","","0.8","0.6","0.4","0.2","","","","","0.1622020501","0.2464628806","0.403953628","0.1890564589","","","","","","","","","","72","H","0","img/none_selected.jpg","","125","main_expt",""
"","bandit","205","668026","0.0-167.0-0.0","83877841","wem/bandit_party_1","A1GQS6USF2JEYG","either","8","252","","","","","","","0","0","1","0.173533554","","0.8","0.6","0.4","0.2","","","","","0.173533554","0.281169445","0.4020675328","0.1659850756","","","","","","","","","","72","H","0","img/none_selected.jpg","","126","main_expt",""
"","bandit","206","670891","0.0-168.0-0.0","83877841","wem/bandit_party_1","A1GQS6USF2JEYG","either","8","1357","","","","","","","0","0","1","","0.189829559","0.8","0.6","0.4","0.2","0.189829559","0.290080064","0.338443572","0.2006343121","","","","","","","","","","","","","","72","H","0","img/none_selected.jpg","","127","main_expt",""
"","bandit","207","673155","0.0-169.0-0.0","83877841","wem/bandit_party_1","A1GQS6USF2JEYG","either","8","755","","","","","","","0","0","1","0.1764696366","","0.8","0.6","0.4","0.2","","","","","0.1764696366","0.3280989756","0.323123489","0.2637444583","","","","","","","","","","72","H","0","img/none_selected.jpg","","128","main_expt",""
"","bandit","208","674964","0.0-170.0-0.0","83877841","wem/bandit_party_1","A1GQS6USF2JEYG","either","8","303","","","","","","","0","0","1","0.172709194","","0.8","0.6","0.4","0.2","","","","","0.172709194","0.3052704822","0.3615310162","0.2783394686","","","","","","","","","","72","H","0","img/none_selected.jpg","","129","main_expt",""
"","bandit","209","677284","0.0-171.0-0.0","83877841","wem/bandit_party_1","A1GQS6USF2JEYG","either","8","814","","","","","","","0","0","1","0.1407460215","","0.8","0.6","0.4","0.2","","","","","0.1407460215","0.314718742","0.3667448715","0.2674474002","","","","","","","","","","72","H","0","img/none_selected.jpg","","130","main_expt",""
"","bandit","210","679115","0.0-172.0-0.0","83877841","wem/bandit_party_1","A1GQS6USF2JEYG","either","8","324","","","","","","","0","0","1","0.143826562","","0.8","0.6","0.4","0.2","","","","","0.143826562","0.2492347367","0.341745941","0.2122920843","","","","","","","","","","72","H","0","img/none_selected.jpg","","131","main_expt",""
"","bandit","211","680909","0.0-173.0-0.0","83877841","wem/bandit_party_1","A1GQS6USF2JEYG","either","8","287","","","","","","","0","0","1","0.1862992663","","0.8","0.6","0.4","0.2","","","","","0.1862992663","0.2495736985","0.2615325727","0.1969346152","","","","","","","","","","72","H","0","img/none_selected.jpg","","132","main_expt",""
"","bandit","212","682851","0.0-174.0-0.0","83877841","wem/bandit_party_1","A1GQS6USF2JEYG","either","8","437","","","","","","","1","0","0","0.185648564","","0.8","0.6","0.4","0.2","","","","","0.185648564","0.2487120015","0.27905624","0.1390835973","","","","","","","","","","72","H","0","img/none_selected.jpg","","133","main_expt",""
"","bandit","213","684670","0.0-175.0-0.0","83877841","wem/bandit_party_1","A1GQS6USF2JEYG","either","8","312","","","","","","","1","0","0","0.2002276213","","0.8","0.6","0.4","0.2","","","","","0.2002276213","0.3239420422","0.2751163123","0.1437640715","","","","","","","","","","72","H","0","img/none_selected.jpg","","134","main_expt",""
"","bandit","214","686501","0.0-176.0-0.0","83877841","wem/bandit_party_1","A1GQS6USF2JEYG","either","8","324","","","","","","","0","0","1","0.2474552851","","0.8","0.6","0.4","0.2","","","","","0.2474552851","0.3903525049","0.2586507773","0.1175999949","","","","","","","","","","72","H","0","img/none_selected.jpg","","135","main_expt",""
"","bandit","215","688450","0.0-177.0-0.0","83877841","wem/bandit_party_1","A1GQS6USF2JEYG","either","8","442","","","","","","","1","0","0","0.2454982057","","0.8","0.6","0.4","0.2","","","","","0.2454982057","0.3703049055","0.2385277364","0.1108499649","","","","","","","","","","72","H","0","img/none_selected.jpg","","136","main_expt",""
"","bandit","216","690781","0.0-178.0-0.0","83877841","wem/bandit_party_1","A1GQS6USF2JEYG","either","8","825","","","","","","","0","0","1","0.2708690816","","0.8","0.6","0.4","0.2","","","","","0.2708690816","0.3657944308","0.1935782534","0.1208727618","","","","","","","","","","72","H","0","img/none_selected.jpg","","137","main_expt",""
"","bandit","217","692838","0.0-179.0-0.0","83877841","wem/bandit_party_1","A1GQS6USF2JEYG","either","8","550","","","","","","","0","0","1","0.2219039101","","0.8","0.6","0.4","0.2","","","","","0.2219039101","0.3452946514","0.14087624","0.1098805161","","","","","","","","","","72","H","0","img/none_selected.jpg","","138","main_expt",""
"","bandit","218","695050","0.0-180.0-0.0","83877841","wem/bandit_party_1","A1GQS6USF2JEYG","either","8","705","","","","","","","1","0","0","0.2485571535","","0.8","0.6","0.4","0.2","","","","","0.2485571535","0.3225052804","0.1340930794","0.1359731218","","","","","","","","","","72","H","0","img/none_selected.jpg","","139","main_expt",""
"","bandit","219","696782","0.0-181.0-0.0","83877841","wem/bandit_party_1","A1GQS6USF2JEYG","either","8","225","","","","","","","0","0","1","0.2605640439","","0.8","0.6","0.4","0.2","","","","","0.2605640439","0.2997250911","0.1170750994","0.1419248406","","","","","","","","","","72","H","0","img/none_selected.jpg","","140","main_expt",""
"","bandit","220","699031","0.0-182.0-0.0","83877841","wem/bandit_party_1","A1GQS6USF2JEYG","either","8","744","","","","","","","0","1","0","","0.2260680923","0.8","0.6","0.4","0.2","0.2260680923","0.311933389","0.1316830279","0.1269577117","","","","","","","","","","","","","","72","H","0","img/none_selected.jpg","","141","main_expt",""
"","bandit","221","701040","0.0-183.0-0.0","83877841","wem/bandit_party_1","A1GQS6USF2JEYG","either","8","501","","","","","","","0","0","1","0.2354846983","","0.8","0.6","0.4","0.2","","","","","0.2354846983","0.3442568425","0.09490366034","0.1073819056","","","","","","","","","","72","H","0","img/none_selected.jpg","","142","main_expt",""
"","bandit","222","702635","0.0-184.0-0.0","83877841","wem/bandit_party_1","A1GQS6USF2JEYG","either","8","88","","","","","","","1","0","0","0.2089358464","","0.8","0.6","0.4","0.2","","","","","0.2089358464","0.3117203045","0.1246024154","0.1152767294","","","","","","","","","","72","H","0","img/none_selected.jpg","","143","main_expt",""
"","bandit","223","704174","0.0-185.0-0.0","83877841","wem/bandit_party_1","A1GQS6USF2JEYG","either","8","30","","","","","","","0","0","1","0.1844607625","","0.8","0.6","0.4","0.2","","","","","0.1844607625","0.3080771123","0.1179874238","0.1317444946","","","","","","","","","","72","H","0","img/none_selected.jpg","","144","main_expt",""
"","bandit","224","705880","0.0-186.0-0.0","83877841","wem/bandit_party_1","A1GQS6USF2JEYG","either","8","200","","","","","","","1","0","0","0.1940384654","","0.8","0.6","0.4","0.2","","","","","0.1940384654","0.3146876691","0.1211842963","0.1058600218","","","","","","","","","","72","H","0","img/none_selected.jpg","","145","main_expt",""
"","bandit","225","707528","0.0-187.0-0.0","83877841","wem/bandit_party_1","A1GQS6USF2JEYG","either","8","142","","","","","","","0","0","1","0.2532022814","","0.8","0.6","0.4","0.2","","","","","0.2532022814","0.3526806189","0.06212451067","0.1862633901","","","","","","","","","","72","H","0","img/none_selected.jpg","","146","main_expt",""
"","bandit","226","709138","0.0-188.0-0.0","83877841","wem/bandit_party_1","A1GQS6USF2JEYG","either","8","103","","","","","","","1","0","0","0.272856749","","0.8","0.6","0.4","0.2","","","","","0.272856749","0.3859334927","0.05826033827","0.1944793183","","","","","","","","","","72","H","0","img/none_selected.jpg","","147","main_expt",""
"","bandit","227","710646","0.0-189.0-0.0","83877841","wem/bandit_party_1","A1GQS6USF2JEYG","either","8","1","","","","","","","1","0","0","0.2441255329","","0.8","0.6","0.4","0.2","","","","","0.2441255329","0.4089873985","0.04847575149","0.1572605535","","","","","","","","","","72","H","0","img/none_selected.jpg","","148","main_expt",""
"","bandit","228","712174","0.0-190.0-0.0","83877841","wem/bandit_party_1","A1GQS6USF2JEYG","either","8","21","","","","","","","0","0","1","","0.2304797635","0.8","0.6","0.4","0.2","0.2304797635","0.3317076441","0.07397138717","0.1632070519","","","","","","","","","","","","","","72","H","0","img/none_selected.jpg","","149","main_expt",""
"","bandit","229","714872","0.0-191.0-0.0","83877841","wem/bandit_party_1","A1GQS6USF2JEYG","either","8","1191","","","","","","","0","0","1","","0.2645424191","0.8","0.6","0.4","0.2","0.2645424191","0.2514439341","0.1178437277","0.2162169298","","","","","","","","","","","","","","72","H","0","img/none_selected.jpg","","150","main_expt",""
"","bandit","230","716787","0.0-192.0-0.0","83877841","wem/bandit_party_1","A1GQS6USF2JEYG","either","8","408","","","","","","","0","1","0","","0.2919476008","0.8","0.6","0.4","0.2","0.2919476008","0.2209696772","0.1116740648","0.2806681102","","","","","","","","","","","","","","72","H","0","img/none_selected.jpg","","151","main_expt",""
"","bandit","231","719598","0.0-193.0-0.0","83877841","wem/bandit_party_1","A1GQS6USF2JEYG","either","8","1305","","","","","","","1","0","0","0.3004198658","","0.8","0.6","0.4","0.2","","","","","0.3004198658","0.2004300668","0.09681320826","0.25223767","","","","","","","","","","72","H","0","img/none_selected.jpg","","152","main_expt",""
"","bandit","232","721196","0.0-194.0-0.0","83877841","wem/bandit_party_1","A1GQS6USF2JEYG","either","8","91","","","","","","","0","0","1","0.2910243242","","0.8","0.6","0.4","0.2","","","","","0.2910243242","0.1803159607","0.1162344283","0.2259503681","","","","","","","","","","72","H","0","img/none_selected.jpg","","153","main_expt",""
"","bandit","233","722864","0.0-195.0-0.0","83877841","wem/bandit_party_1","A1GQS6USF2JEYG","either","8","160","","","","","","","0","0","1","0.2858680692","","0.8","0.6","0.4","0.2","","","","","0.2858680692","0.1793353988","0.1441765144","0.2520515582","","","","","","","","","","72","H","0","img/none_selected.jpg","","154","main_expt",""
"","bandit","234","728777","0.0-196.0-0.0","83877841","wem/bandit_party_1","A1GQS6USF2JEYG","either","8","4406","","","","","","","1","0","0","0.276906037","","0.8","0.6","0.4","0.2","","","","","0.276906037","0.175125938","0.1506434262","0.246895917","","","","","","","","","","72","H","0","img/none_selected.jpg","","155","main_expt",""
"","bandit","235","730328","0.0-197.0-0.0","83877841","wem/bandit_party_1","A1GQS6USF2JEYG","either","8","45","","","","","","","0","0","1","0.3087514371","","0.8","0.6","0.4","0.2","","","","","0.3087514371","0.19004546","0.1691825384","0.2067462234","","","","","","","","","","72","H","0","img/none_selected.jpg","","156","main_expt",""
"","bandit","236","731856","0.0-198.0-0.0","83877841","wem/bandit_party_1","A1GQS6USF2JEYG","either","8","23","","","","","","","1","0","0","0.3400763937","","0.8","0.6","0.4","0.2","","","","","0.3400763937","0.1538528063","0.1465267651","0.1736677602","","","","","","","","","","72","H","0","img/none_selected.jpg","","157","main_expt",""
"","bandit","237","733451","0.0-199.0-0.0","83877841","wem/bandit_party_1","A1GQS6USF2JEYG","either","8","87","","","","","","","0","0","1","","0.3388441277","0.8","0.6","0.4","0.2","0.3388441277","0.1624419901","0.1517260174","0.2437422656","","","","","","","","","","","","","","72","H","0","img/none_selected.jpg","","158","main_expt",""
"","bandit","238","735239","0.0-200.0-0.0","83877841","wem/bandit_party_1","A1GQS6USF2JEYG","either","8","281","","","","","","","0","0","1","","0.3496437485","0.8","0.6","0.4","0.2","0.3496437485","0.1749682205","0.143579764","0.2627628197","","","","","","","","","","","","","","72","H","0","img/none_selected.jpg","","159","main_expt",""
"","bandit","239","736861","0.0-201.0-0.0","83877841","wem/bandit_party_1","A1GQS6USF2JEYG","either","8","116","","","","","","","0","1","0","","0.3347491532","0.8","0.6","0.4","0.2","0.3347491532","0.2227833177","0.1701049762","0.2532756584","","","","","","","","","","","","","","72","H","0","img/none_selected.jpg","","160","main_expt",""
"","bandit","240","739144","0.0-202.0-0.0","83877841","wem/bandit_party_1","A1GQS6USF2JEYG","either","8","776","","","","","","","0","0","1","0.3036625801","","0.8","0.6","0.4","0.2","","","","","0.3036625801","0.1616195486","0.1596038406","0.2846030245","","","","","","","","","","72","H","0","img/none_selected.jpg","","161","main_expt",""
"","bandit","241","741067","0.0-203.0-0.0","83877841","wem/bandit_party_1","A1GQS6USF2JEYG","either","8","416","","","","","","","0","1","0","","0.2735804545","0.8","0.6","0.4","0.2","0.2735804545","0.1440802068","0.1186271452","0.2480450928","","","","","","","","","","","","","","72","H","0","img/none_selected.jpg","","162","main_expt",""
"","bandit","242","742626","0.0-204.0-0.0","83877841","wem/bandit_party_1","A1GQS6USF2JEYG","either","8","51","","","","","","","0","0","1","0.2219233964","","0.8","0.6","0.4","0.2","","","","","0.2219233964","0.1349250059","0.1460830151","0.3217860246","","","","","","","","","","72","H","0","img/none_selected.jpg","","163","main_expt",""
"","bandit","243","745553","0.0-205.0-0.0","83877841","wem/bandit_party_1","A1GQS6USF2JEYG","either","8","1420","","","","","","","0","0","1","","0.2489701673","0.8","0.6","0.4","0.2","0.2489701673","0.1482528248","0.1924179555","0.3528623486","","","","","","","","","","","","","","72","H","0","img/none_selected.jpg","","164","main_expt",""
"","bandit","244","747341","0.0-206.0-0.0","83877841","wem/bandit_party_1","A1GQS6USF2JEYG","either","8","281","","","","","","","1","0","0","0.2424219606","","0.8","0.6","0.4","0.2","","","","","0.2424219606","0.1444116863","0.1909643941","0.3113737792","","","","","","","","","","72","H","0","img/none_selected.jpg","","165","main_expt",""
"","bandit","245","749761","0.0-207.0-0.0","83877841","wem/bandit_party_1","A1GQS6USF2JEYG","either","8","911","","","","","","","0","0","1","0.1899742571","","0.8","0.6","0.4","0.2","","","","","0.1899742571","0.1621449425","0.1917506842","0.2820045276","","","","","","","","","","72","H","0","img/none_selected.jpg","","166","main_expt",""
"","bandit","246","753830","0.0-208.0-0.0","83877841","wem/bandit_party_1","A1GQS6USF2JEYG","either","8","2563","","","","","","","0","0","1","0.2298880826","","0.8","0.6","0.4","0.2","","","","","0.2298880826","0.1695256229","0.2238056512","0.2539690707","","","","","","","","","","72","H","0","img/none_selected.jpg","","167","main_expt",""
"","bandit","247","755360","0.0-209.0-0.0","83877841","wem/bandit_party_1","A1GQS6USF2JEYG","either","8","26","","","","","","","1","0","0","0.241220494","","0.8","0.6","0.4","0.2","","","","","0.241220494","0.1712445676","0.2132240521","0.2177565821","","","","","","","","","","72","H","0","img/none_selected.jpg","","168","main_expt",""
"","bandit","248","757099","0.0-210.0-0.0","83877841","wem/bandit_party_1","A1GQS6USF2JEYG","either","8","232","","","","","","","0","1","0","","0.2113351254","0.8","0.6","0.4","0.2","0.2113351254","0.191079104","0.1363713625","0.183214586","","","","","","","","","","","","","","72","H","0","img/none_selected.jpg","","169","main_expt",""
"","bandit","249","759514","0.0-211.0-0.0","83877841","wem/bandit_party_1","A1GQS6USF2JEYG","either","8","909","","","","","","","0","0","1","0.2224744884","","0.8","0.6","0.4","0.2","","","","","0.2224744884","0.2227666825","0.2007690262","0.1757282231","","","","","","","","","","72","H","0","img/none_selected.jpg","","170","main_expt",""
"","bandit","250","761312","0.0-212.0-0.0","83877841","wem/bandit_party_1","A1GQS6USF2JEYG","either","8","290","","","","","","","0","0","1","","0.262177911","0.8","0.6","0.4","0.2","0.262177911","0.2719914804","0.1238998316","0.1679331046","","","","","","","","","","","","","","72","H","0","img/none_selected.jpg","","171","main_expt",""
"","bandit","251","762959","0.0-213.0-0.0","83877841","wem/bandit_party_1","A1GQS6USF2JEYG","either","8","142","","","","","","","0","0","1","0.2822992514","","0.8","0.6","0.4","0.2","","","","","0.2822992514","0.2330128459","0.09746419185","0.14560319","","","","","","","","","","72","H","0","img/none_selected.jpg","","172","main_expt",""
"","bandit","252","764638","0.0-214.0-0.0","83877841","wem/bandit_party_1","A1GQS6USF2JEYG","either","8","171","","","","","","","1","0","0","0.2545762091","","0.8","0.6","0.4","0.2","","","","","0.2545762091","0.2840251313","0.1018164217","0.1341549344","","","","","","","","","","72","H","0","img/none_selected.jpg","","173","main_expt",""
"","bandit","253","766331","0.0-215.0-0.0","83877841","wem/bandit_party_1","A1GQS6USF2JEYG","either","8","186","","","","","","","0","0","1","","0.2838184637","0.8","0.6","0.4","0.2","0.2838184637","0.2739042306","0.1401689619","0.1471305278","","","","","","","","","","","","","","72","H","0","img/none_selected.jpg","","174","main_expt",""
"","bandit","254","768516","0.0-216.0-0.0","83877841","wem/bandit_party_1","A1GQS6USF2JEYG","either","8","679","","","","","","","0","0","1","0.3002790513","","0.8","0.6","0.4","0.2","","","","","0.3002790513","0.3444735506","0.1697524679","0.173963405","","","","","","","","","","72","H","0","img/none_selected.jpg","","175","main_expt",""
"","bandit","255","770061","0.0-217.0-0.0","83877841","wem/bandit_party_1","A1GQS6USF2JEYG","either","8","38","","","","","","","1","0","0","0.3771690292","","0.8","0.6","0.4","0.2","","","","","0.3771690292","0.3223017316","0.1896898672","0.1821857965","","","","","","","","","","72","H","0","img/none_selected.jpg","","176","main_expt",""
"","bandit","256","771607","0.0-218.0-0.0","83877841","wem/bandit_party_1","A1GQS6USF2JEYG","either","8","39","","","","","","","0","0","1","0.4047809956","","0.8","0.6","0.4","0.2","","","","","0.4047809956","0.2964924158","0.2441254625","0.1444884472","","","","","","","","","","72","H","0","img/none_selected.jpg","","177","main_expt",""
"","bandit","257","773222","0.0-219.0-0.0","83877841","wem/bandit_party_1","A1GQS6USF2JEYG","either","8","108","","","","","","","0","0","1","0.4344960837","","0.8","0.6","0.4","0.2","","","","","0.4344960837","0.2780576925","0.2427722412","0.1207783293","","","","","","","","","","72","H","0","img/none_selected.jpg","","178","main_expt",""
"","bandit","258","774976","0.0-220.0-0.0","83877841","wem/bandit_party_1","A1GQS6USF2JEYG","either","8","247","","","","","","","0","1","0","","0.4287912686","0.8","0.6","0.4","0.2","0.4287912686","0.2859751729","0.2284650367","0.111585665","","","","","","","","","","","","","","72","H","0","img/none_selected.jpg","","179","main_expt",""
"","bandit","259","776666","0.0-221.0-0.0","83877841","wem/bandit_party_1","A1GQS6USF2JEYG","either","8","184","","","","","","","0","0","1","0.4294180747","","0.8","0.6","0.4","0.2","","","","","0.4294180747","0.283533164","0.2694081366","0.06891525065","","","","","","","","","","72","H","0","img/none_selected.jpg","","180","main_expt",""
"","bandit","260","778286","0.0-222.0-0.0","83877841","wem/bandit_party_1","A1GQS6USF2JEYG","either","8","111","","","","","","","0","1","0","","0.3887332701","0.8","0.6","0.4","0.2","0.3887332701","0.2430023428","0.2471628034","0.07407739619","","","","","","","","","","","","","","72","H","0","img/none_selected.jpg","","181","main_expt",""
"","bandit","261","779829","0.0-223.0-0.0","83877841","wem/bandit_party_1","A1GQS6USF2JEYG","either","8","36","","","","","","","1","0","0","0.3910635387","","0.8","0.6","0.4","0.2","","","","","0.3910635387","0.223254837","0.275372354","0.07501704201","","","","","","","","","","72","H","0","img/none_selected.jpg","","182","main_expt",""
"","bandit","262","781403","0.0-224.0-0.0","83877841","wem/bandit_party_1","A1GQS6USF2JEYG","either","8","65","","","","","","","0","0","1","0.3957792538","","0.8","0.6","0.4","0.2","","","","","0.3957792538","0.2274286797","0.2378950907","0.09354103142","","","","","","","","","","72","H","0","img/none_selected.jpg","","183","main_expt",""
"","bandit","263","782917","0.0-225.0-0.0","83877841","wem/bandit_party_1","A1GQS6USF2JEYG","either","8","7","","","","","","","1","0","0","0.3777829694","","0.8","0.6","0.4","0.2","","","","","0.3777829694","0.2485964068","0.2611999536","0.06673830493","","","","","","","","","","72","H","0","img/none_selected.jpg","","184","main_expt",""
"","bandit","264","784561","0.0-226.0-0.0","83877841","wem/bandit_party_1","A1GQS6USF2JEYG","either","8","135","","","","","","","1","0","0","0.4130939835","","0.8","0.6","0.4","0.2","","","","","0.4130939835","0.2080173303","0.2799245071","0.08617836821","","","","","","","","","","72","H","0","img/none_selected.jpg","","185","main_expt",""
"","bandit","265","786184","0.0-227.0-0.0","83877841","wem/bandit_party_1","A1GQS6USF2JEYG","either","8","116","","","","","","","0","0","1","0.376930599","","0.8","0.6","0.4","0.2","","","","","0.376930599","0.2538883687","0.2275386122","0.05054014018","","","","","","","","","","72","H","0","img/none_selected.jpg","","186","main_expt",""
"","bandit","266","787692","0.0-228.0-0.0","83877841","wem/bandit_party_1","A1GQS6USF2JEYG","either","8","0","","","","","","","0","0","1","0.3934592684","","0.8","0.6","0.4","0.2","","","","","0.3934592684","0.2267652077","0.2558518805","0.1101456656","","","","","","","","","","72","H","0","img/none_selected.jpg","","187","main_expt",""
"","bandit","267","792726","0.0-229.0-0.0","83877841","wem/bandit_party_1","A1GQS6USF2JEYG","either","8","3529","","","","","","","0","0","1","","0.4086060551","0.8","0.6","0.4","0.2","0.4086060551","0.2583789709","0.2757393749","0.1076418148","","","","","","","","","","","","","","72","H","0","img/none_selected.jpg","","188","main_expt",""
"","bandit","268","794380","0.0-230.0-0.0","83877841","wem/bandit_party_1","A1GQS6USF2JEYG","either","8","147","","","","","","","1","0","0","0.447145564","","0.8","0.6","0.4","0.2","","","","","0.447145564","0.2329768584","0.3326758055","0.1230456027","","","","","","","","","","72","H","0","img/none_selected.jpg","","189","main_expt",""
"","bandit","269","796026","0.0-231.0-0.0","83877841","wem/bandit_party_1","A1GQS6USF2JEYG","either","8","137","","","","","","","0","0","1","0.386091063","","0.8","0.6","0.4","0.2","","","","","0.386091063","0.2002510669","0.332927569","0.1872873117","","","","","","","","","","72","H","0","img/none_selected.jpg","","190","main_expt",""
"","bandit","270","797709","0.0-232.0-0.0","83877841","wem/bandit_party_1","A1GQS6USF2JEYG","either","8","175","","","","","","","0","0","1","0.4221145333","","0.8","0.6","0.4","0.2","","","","","0.4221145333","0.2182600554","0.3859199101","0.1413073252","","","","","","","","","","72","H","0","img/none_selected.jpg","","191","main_expt",""
"","bandit","271","799492","0.0-233.0-0.0","83877841","wem/bandit_party_1","A1GQS6USF2JEYG","either","8","275","","","","","","","1","0","0","0.3913199708","","0.8","0.6","0.4","0.2","","","","","0.3913199708","0.2681613901","0.392668484","0.1868627967","","","","","","","","","","72","H","0","img/none_selected.jpg","","192","main_expt",""
"","bandit","272","801327","0.0-234.0-0.0","83877841","wem/bandit_party_1","A1GQS6USF2JEYG","either","8","326","","","","","","","0","0","1","0.4013624592","","0.8","0.6","0.4","0.2","","","","","0.4013624592","0.3035027483","0.3789843676","0.2312719224","","","","","","","","","","72","H","0","img/none_selected.jpg","","193","main_expt",""
"","bandit","273","803385","0.0-235.0-0.0","83877841","wem/bandit_party_1","A1GQS6USF2JEYG","either","8","550","","","","","","","0","0","1","0.3668237699","","0.8","0.6","0.4","0.2","","","","","0.3668237699","0.275531754","0.3689216281","0.2585201677","","","","","","","","","","72","H","0","img/none_selected.jpg","","194","main_expt",""
"","bandit","274","805035","0.0-236.0-0.0","83877841","wem/bandit_party_1","A1GQS6USF2JEYG","either","8","142","","","","","","","1","0","0","0.3856266791","","0.8","0.6","0.4","0.2","","","","","0.3856266791","0.2716401532","0.4136905162","0.2786104129","","","","","","","","","","72","H","0","img/none_selected.jpg","","195","main_expt",""
"","bandit","275","806723","0.0-237.0-0.0","83877841","wem/bandit_party_1","A1GQS6USF2JEYG","either","8","180","","","","","","","0","1","0","","0.3702439493","0.8","0.6","0.4","0.2","0.3702439493","0.2814611543","0.4258575101","0.2407834285","","","","","","","","","","","","","","72","H","0","img/none_selected.jpg","","196","main_expt",""
"","bandit","276","808423","0.0-238.0-0.0","83877841","wem/bandit_party_1","A1GQS6USF2JEYG","either","8","192","","","","","","","0","0","1","0.3665926528","","0.8","0.6","0.4","0.2","","","","","0.3665926528","0.2588010394","0.3976178043","0.2550568011","","","","","","","","","","72","H","0","img/none_selected.jpg","","197","main_expt",""
"","bandit","277","809936","0.0-239.0-0.0","83877841","wem/bandit_party_1","A1GQS6USF2JEYG","either","8","6","","","","","","","1","0","0","0.3432124584","","0.8","0.6","0.4","0.2","","","","","0.3432124584","0.3094610495","0.3802378075","0.3094863904","","","","","","","","","","72","H","0","img/none_selected.jpg","","198","main_expt",""
"","bandit","278","811455","0.0-240.0-0.0","83877841","wem/bandit_party_1","A1GQS6USF2JEYG","either","8","11","","","","","","","0","0","1","0.4096574544","","0.8","0.6","0.4","0.2","","","","","0.4096574544","0.3139278769","0.3926800246","0.3012985694","","","","","","","","","","72","H","0","img/none_selected.jpg","","199","main_expt",""
"","bandit","279","812963","0.0-241.0-0.0","83877841","wem/bandit_party_1","A1GQS6USF2JEYG","either","8","1","","","","","","","0","1","0","","0.3799023259","0.8","0.6","0.4","0.2","0.3799023259","0.3459706187","0.3814844917","0.3149132519","","","","","","","","","","","","","","72","H","0","img/none_selected.jpg","","200","main_expt",""
"","bandit","280","814580","0.0-242.0-0.0","83877841","wem/bandit_party_1","A1GQS6USF2JEYG","either","8","110","","","","","","","1","0","0","0.3513783521","","0.8","0.6","0.4","0.2","","","","","0.3513783521","0.3038365479","0.3831630738","0.3236307962","","","","","","","","","","72","H","0","img/none_selected.jpg","","201","main_expt",""
"","bandit","281","816148","0.0-243.0-0.0","83877841","wem/bandit_party_1","A1GQS6USF2JEYG","either","8","59","","","","","","","0","0","1","","0.3439351057","0.8","0.6","0.4","0.2","0.3439351057","0.2964599608","0.3957430938","0.3163717903","","","","","","","","","","","","","","72","H","0","img/none_selected.jpg","","202","main_expt",""
"","bandit","282","817746","0.0-244.0-0.0","83877841","wem/bandit_party_1","A1GQS6USF2JEYG","either","8","89","","","","","","","0","0","1","0.2615327891","","0.8","0.6","0.4","0.2","","","","","0.2615327891","0.280336616","0.4175506619","0.3165936227","","","","","","","","","","72","H","0","img/none_selected.jpg","","203","main_expt",""
"","bandit","283","819317","0.0-245.0-0.0","83877841","wem/bandit_party_1","A1GQS6USF2JEYG","either","8","62","","","","","","","0","0","1","0.2211517471","","0.8","0.6","0.4","0.2","","","","","0.2211517471","0.262900641","0.4356800279","0.3166231072","","","","","","","","","","72","H","0","img/none_selected.jpg","","204","main_expt",""
"","bandit","284","820980","0.0-246.0-0.0","83877841","wem/bandit_party_1","A1GQS6USF2JEYG","either","8","156","","","","","","","0","0","1","0.1955747294","","0.8","0.6","0.4","0.2","","","","","0.1955747294","0.3403150927","0.4342993254","0.2983153058","","","","","","","","","","72","H","0","img/none_selected.jpg","","205","main_expt",""
"","bandit","285","822513","0.0-247.0-0.0","83877841","wem/bandit_party_1","A1GQS6USF2JEYG","either","8","23","","","","","","","1","0","0","0.3137251184","","0.8","0.6","0.4","0.2","","","","","0.3137251184","0.3407188883","0.4515967499","0.255573156","","","","","","","","","","72","H","0","img/none_selected.jpg","","206","main_expt",""
"","bandit","286","824152","0.0-248.0-0.0","83877841","wem/bandit_party_1","A1GQS6USF2JEYG","either","8","131","","","","","","","1","0","0","0.2982459604","","0.8","0.6","0.4","0.2","","","","","0.2982459604","0.2955601217","0.4559700358","0.2816724171","","","","","","","","","","72","H","0","img/none_selected.jpg","","207","main_expt",""
"","bandit","287","825842","0.0-249.0-0.0","83877841","wem/bandit_party_1","A1GQS6USF2JEYG","either","8","182","","","","","","","0","0","1","0.2359404152","","0.8","0.6","0.4","0.2","","","","","0.2359404152","0.2832193826","0.4711787588","0.2462622089","","","","","","","","","","72","H","0","img/none_selected.jpg","","208","main_expt",""
"","bandit","288","827352","0.0-250.0-0.0","83877841","wem/bandit_party_1","A1GQS6USF2JEYG","either","8","1","","","","","","","0","0","1","0.2396635106","","0.8","0.6","0.4","0.2","","","","","0.2396635106","0.25637755","0.4859779177","0.2608633631","","","","","","","","","","72","H","0","img/none_selected.jpg","","209","main_expt",""
"","bandit","289","829241","0.0-251.0-0.0","83877841","wem/bandit_party_1","A1GQS6USF2JEYG","either","8","381","","","","","","","1","0","0","0.2320506775","","0.8","0.6","0.4","0.2","","","","","0.2320506775","0.2500912527","0.4798195452","0.2649708152","","","","","","","","","","72","H","0","img/none_selected.jpg","","210","main_expt",""
"","bandit","290","830880","0.0-252.0-0.0","83877841","wem/bandit_party_1","A1GQS6USF2JEYG","either","8","132","","","","","","","0","1","0","","0.1894847828","0.8","0.6","0.4","0.2","0.1894847828","0.2481129288","0.4754072522","0.2658594566","","","","","","","","","","","","","","72","H","0","img/none_selected.jpg","","211","main_expt",""
"","bandit","291","832453","0.0-253.0-0.0","83877841","wem/bandit_party_1","A1GQS6USF2JEYG","either","8","63","","","","","","","0","0","1","","0.2330804604","0.8","0.6","0.4","0.2","0.2330804604","0.3192168596","0.4780703898","0.2648449814","","","","","","","","","","","","","","72","H","0","img/none_selected.jpg","","212","main_expt",""
"","bandit","292","834096","0.0-254.0-0.0","83877841","wem/bandit_party_1","A1GQS6USF2JEYG","either","8","136","","","","","","","0","0","1","0.2484053244","","0.8","0.6","0.4","0.2","","","","","0.2484053244","0.2361953268","0.4883488692","0.286492297","","","","","","","","","","72","H","0","img/none_selected.jpg","","213","main_expt",""
"","bandit","293","835657","0.0-255.0-0.0","83877841","wem/bandit_party_1","A1GQS6USF2JEYG","either","8","53","","","","","","","0","0","1","0.2182548364","","0.8","0.6","0.4","0.2","","","","","0.2182548364","0.2308921763","0.4872562331","0.2540339129","","","","","","","","","","72","H","0","img/none_selected.jpg","","214","main_expt",""
"","bandit","294","837353","0.0-256.0-0.0","83877841","wem/bandit_party_1","A1GQS6USF2JEYG","either","8","190","","","","","","","1","0","0","0.1824073789","","0.8","0.6","0.4","0.2","","","","","0.1824073789","0.2161033537","0.4749609167","0.254651127","","","","","","","","","","72","H","0","img/none_selected.jpg","","215","main_expt",""
"","bandit","295","838980","0.0-257.0-0.0","83877841","wem/bandit_party_1","A1GQS6USF2JEYG","either","8","120","","","","","","","0","0","1","","0.1923730387","0.8","0.6","0.4","0.2","0.1923730387","0.1896756427","0.4798413464","0.3140517816","","","","","","","","","","","","","","72","H","0","img/none_selected.jpg","","216","main_expt",""
"","bandit","296","840658","0.0-258.0-0.0","83877841","wem/bandit_party_1","A1GQS6USF2JEYG","either","8","169","","","","","","","0","0","1","","0.2266612446","0.8","0.6","0.4","0.2","0.2266612446","0.1724286307","0.4865144435","0.3338676317","","","","","","","","","","","","","","72","H","0","img/none_selected.jpg","","217","main_expt",""
"","bandit","297","842284","0.0-259.0-0.0","83877841","wem/bandit_party_1","A1GQS6USF2JEYG","either","8","117","","","","","","","0","0","1","","0.1702705737","0.8","0.6","0.4","0.2","0.1702705737","0.161168334","0.4789145001","0.3397001125","","","","","","","","","","","","","","72","H","0","img/none_selected.jpg","","218","main_expt",""
"","bandit","298","843822","0.0-260.0-0.0","83877841","wem/bandit_party_1","A1GQS6USF2JEYG","either","8","31","","","","","","","0","0","1","0.1159766116","","0.8","0.6","0.4","0.2","","","","","0.1159766116","0.2021763003","0.4834748692","0.2982528089","","","","","","","","","","72","H","0","img/none_selected.jpg","","219","main_expt",""
"","bandit","299","845331","0.0-261.0-0.0","83877841","wem/bandit_party_1","A1GQS6USF2JEYG","either","8","0","","","","","","","0","0","1","0.09529473055","","0.8","0.6","0.4","0.2","","","","","0.09529473055","0.2142164272","0.4722371777","0.2770934022","","","","","","","","","","72","H","0","img/none_selected.jpg","","220","main_expt",""
"","bandit","300","847484","0.0-262.0-0.0","83877841","wem/bandit_party_1","A1GQS6USF2JEYG","either","8","643","","","","","","","0","0","1","0.09060922323","","0.8","0.6","0.4","0.2","","","","","0.09060922323","0.189068297","0.4654689219","0.2696770889","","","","","","","","","","72","H","0","img/none_selected.jpg","","221","main_expt",""
"","bandit","301","849191","0.0-263.0-0.0","83877841","wem/bandit_party_1","A1GQS6USF2JEYG","either","8","198","","","","","","","1","0","0","0.1250772464","","0.8","0.6","0.4","0.2","","","","","0.1250772464","0.2120997892","0.4533789701","0.3103502417","","","","","","","","","","72","H","0","img/none_selected.jpg","","222","main_expt",""
"","bandit","302","851318","0.0-264.0-0.0","83877841","wem/bandit_party_1","A1GQS6USF2JEYG","either","8","618","","","","","","","0","0","1","0.1177235221","","0.8","0.6","0.4","0.2","","","","","0.1177235221","0.1937664477","0.4473019993","0.3477728299","","","","","","","","","","72","H","0","img/none_selected.jpg","","223","main_expt",""
"","bandit","303","853163","0.0-265.0-0.0","83877841","wem/bandit_party_1","A1GQS6USF2JEYG","either","8","336","","","","","","","1","0","0","0.1589673504","","0.8","0.6","0.4","0.2","","","","","0.1589673504","0.2195846313","0.4651086175","0.3230244909","","","","","","","","","","72","H","0","img/none_selected.jpg","","224","main_expt",""
"","bandit","304","855141","0.0-266.0-0.0","83877841","wem/bandit_party_1","A1GQS6USF2JEYG","either","8","468","","","","","","","0","0","1","0.1582937281","","0.8","0.6","0.4","0.2","","","","","0.1582937281","0.1973587738","0.4704934375","0.3641913847","","","","","","","","","","72","H","0","img/none_selected.jpg","","225","main_expt",""
"","bandit","305","857806","0.0-267.0-0.0","83877841","wem/bandit_party_1","A1GQS6USF2JEYG","either","8","1156","","","","","","","0","0","1","0.1585786296","","0.8","0.6","0.4","0.2","","","","","0.1585786296","0.2029059012","0.4545632724","0.3211822138","","","","","","","","","","72","H","0","img/none_selected.jpg","","226","main_expt",""
"","bandit","306","859744","0.0-268.0-0.0","83877841","wem/bandit_party_1","A1GQS6USF2JEYG","either","8","430","","","","","","","0","1","0","","0.1614007709","0.8","0.6","0.4","0.2","0.1614007709","0.1677618241","0.4313330006","0.3318596792","","","","","","","","","","","","","","72","H","0","img/none_selected.jpg","","227","main_expt",""
"","bandit","307","861589","0.0-269.0-0.0","83877841","wem/bandit_party_1","A1GQS6USF2JEYG","either","8","337","","","","","","","0","0","1","","0.1160982884","0.8","0.6","0.4","0.2","0.1160982884","0.2079318551","0.4253897179","0.3715738924","","","","","","","","","","","","","","72","H","0","img/none_selected.jpg","","228","main_expt",""
"","bandit","308","863177","0.0-270.0-0.0","83877841","wem/bandit_party_1","A1GQS6USF2JEYG","either","8","82","","","","","","","0","0","1","0.1327168588","","0.8","0.6","0.4","0.2","","","","","0.1327168588","0.1860779256","0.4416009531","0.3571583743","","","","","","","","","","72","H","0","img/none_selected.jpg","","229","main_expt",""
"","bandit","309","864865","0.0-271.0-0.0","83877841","wem/bandit_party_1","A1GQS6USF2JEYG","either","8","178","","","","","","","0","0","1","0.1751239199","","0.8","0.6","0.4","0.2","","","","","0.1751239199","0.1294985144","0.4612445757","0.3455313741","","","","","","","","","","72","H","0","img/none_selected.jpg","","230","main_expt",""
