"consent","trial_type","trial_index","time_elapsed","internal_node_id","subjID","study","MID","cond","drift","rt","responses","button_pressed","key_press","like","value","connected","gems","bombs","no_reward","GemPrChosen","BombPrChosen","GainOverPainPr_0","GainOverPainPr_1","GainOverPainPr_2","GainOverPainPr_3","LosePr_0","LosePr_1","LosePr_2","LosePr_3","WinPr_0","WinPr_1","WinPr_2","WinPr_3","Q0","Q1","Q2","gender","age","ethnicity","label","expt_phase","target","respCharCode","respKey","respChoiceNum","respChoice","practice","trial_counter","trial_label","Q0_index","view_history"
"GDM/GDM_behavioral_consent_30min_online.html","consent","0","8194","0.0-0.0","83956440","wem/bandit_party_1","A11S43P3WNLIZD","either","3","","","","","","","","","","","","","","","","","","","","","","","","","","","","","","","","","","","","","","","","","",""
"","survey-text","1","11671","0.0-1.0","83956440","wem/bandit_party_1","A11S43P3WNLIZD","either","3","2465","{""Q0"":""A11S43P3WNLIZD""}","","","","","","","","","","","","","","","","","","","","","","","","","","","","","","","","","","","","","","","",""
"","button-response","2","14333","0.0-2.0","83956440","wem/bandit_party_1","A11S43P3WNLIZD","either","3","1656","","0","","","","","","","","","","","","","","","","","","","","","","","","","","","","","","","","","","","","","","",""
"","text-replacement","3","29648","0.0-3.0","83956440","wem/bandit_party_1","A11S43P3WNLIZD","either","3","14309","","","32","","","","","","","","","","","","","","","","","","","","","","","","","","","","","","","","","","","","","",""
"","text-replacement","4","68795","0.0-4.0","83956440","wem/bandit_party_1","A11S43P3WNLIZD","either","3","39142","","","32","","","","","","","","","","","","","","","","","","","","","","","","","","","","","","","","","","","","","",""
"","identification","5","72659","0.0-6.0-0.0","83956440","wem/bandit_party_1","A11S43P3WNLIZD","either","3","3839","","","","3","3","3","","","","","","","","","","","","","","","","","","","","","","","","pre","identification_pre","the Republican party","","","","","","","","",""
"","identification","6","78219","0.0-6.0-1.0","83956440","wem/bandit_party_1","A11S43P3WNLIZD","either","3","4539","","","","0","0","0","","","","","","","","","","","","","","","","","","","","","","","","pre","identification_pre","the Democratic Party","","","","","","","","",""
"","text-replacement","7","83936","0.0-7.0","83956440","wem/bandit_party_1","A11S43P3WNLIZD","either","3","4714","","","32","","","","","","","","","","","","","","","","","","","","","","","","","","","","","","","","","","","","","",""
"","text-replacement","8","90728","0.0-8.0","83956440","wem/bandit_party_1","A11S43P3WNLIZD","either","3","6789","","","32","","","","","","","","","","","","","","","","","","","","","","","","","","","","","","","","","","","","","",""
"","text-replacement","9","102015","0.0-9.0","83956440","wem/bandit_party_1","A11S43P3WNLIZD","either","3","11281","","","32","","","","","","","","","","","","","","","","","","","","","","","","","","","","","","","","","","","","","",""
"","text-replacement","10","107047","0.0-10.0","83956440","wem/bandit_party_1","A11S43P3WNLIZD","either","3","5029","","","32","","","","","","","","","","","","","","","","","","","","","","","","","","","","","","","","","","","","","",""
"","text-replacement","11","110446","0.0-11.0","83956440","wem/bandit_party_1","A11S43P3WNLIZD","either","3","3398","","","32","","","","","","","","","","","","","","","","","","","","","","","","","","","","","","","","","","","","","",""
"","bandit","12","114700","0.0-12.0-0.0","83956440","wem/bandit_party_1","A11S43P3WNLIZD","either","3","2740","","","","","","","0","0","1","0","0","","","","","0","","","","0","","","","","","","","","","","","","74","J","0","img/none_selected_demo.jpg","true","0","","",""
"","bandit","13","117765","0.0-13.0-0.0","83956440","wem/bandit_party_1","A11S43P3WNLIZD","either","3","1555","","","","","","","0","0","1","0","0","","","","","0","","","","0","","","","","","","","","","","","","75","K","0","img/none_selected_demo.jpg","true","0","","",""
"","text-replacement","14","122809","0.0-14.0","83956440","wem/bandit_party_1","A11S43P3WNLIZD","either","3","5040","","","32","","","","","","","","","","","","","","","","","","","","","","","","","","","","","","","","","","","","","",""
"","text-replacement","15","131197","0.0-15.0","83956440","wem/bandit_party_1","A11S43P3WNLIZD","either","3","8386","","","32","","","","","","","","","","","","","","","","","","","","","","","","","","","","","","","","","","","","","",""
"","text-replacement","16","137688","0.0-16.0","83956440","wem/bandit_party_1","A11S43P3WNLIZD","either","3","6488","","","32","","","","","","","","","","","","","","","","","","","","","","","","","","","","","","","","","","","","","",""
"","text-replacement","17","142867","0.0-17.0","83956440","wem/bandit_party_1","A11S43P3WNLIZD","either","3","5177","","","32","","","","","","","","","","","","","","","","","","","","","","","","","","","","","","","","","","","","","",""
"","bandit","18","147040","0.0-18.0-0.0","83956440","wem/bandit_party_1","A11S43P3WNLIZD","either","3","2665","","","","","","","0","0","1","","0.2","0.5","0.5","","","0.8","0.2","","","","","","","","","","","","","","","","75","K","1","","true","0","80_20_practice","",""
"","bandit","19","149887","0.0-18.0-1.0","83956440","wem/bandit_party_1","A11S43P3WNLIZD","either","3","1337","","","","","","","0","1","0","","0.8","0.5","0.5","","","0.8","0.2","","","","","","","","","","","","","","","","74","J","0","img/none_selected_demo.jpg","true","0","80_20_practice","",""
"","bandit","20","155801","0.0-18.0-2.0","83956440","wem/bandit_party_1","A11S43P3WNLIZD","either","3","4405","","","","","","","1","0","0","0.8","","0.5","0.5","","","","","","","0.8","0.2","","","","","","","","","","","","74","J","0","img/none_selected_demo.jpg","true","0","80_20_practice","",""
"","bandit","21","157815","0.0-18.0-3.0","83956440","wem/bandit_party_1","A11S43P3WNLIZD","either","3","505","","","","","","","1","0","0","0.8","","0.5","0.5","","","","","","","0.8","0.2","","","","","","","","","","","","74","J","0","img/none_selected_demo.jpg","true","0","80_20_practice","",""
"","bandit","22","159661","0.0-18.0-4.0","83956440","wem/bandit_party_1","A11S43P3WNLIZD","either","3","339","","","","","","","0","1","0","","0.8","0.5","0.5","","","0.8","0.2","","","","","","","","","","","","","","","","74","J","0","img/none_selected_demo.jpg","true","0","80_20_practice","",""
"","bandit","23","161818","0.0-18.0-5.0","83956440","wem/bandit_party_1","A11S43P3WNLIZD","either","3","649","","","","","","","0","1","0","","0.8","0.5","0.5","","","0.8","0.2","","","","","","","","","","","","","","","","74","J","0","img/none_selected_demo.jpg","true","0","80_20_practice","",""
"","bandit","24","163781","0.0-18.0-6.0","83956440","wem/bandit_party_1","A11S43P3WNLIZD","either","3","453","","","","","","","1","0","0","0.8","","0.5","0.5","","","","","","","0.8","0.2","","","","","","","","","","","","74","J","0","img/none_selected_demo.jpg","true","0","80_20_practice","",""
"","bandit","25","165654","0.0-18.0-7.0","83956440","wem/bandit_party_1","A11S43P3WNLIZD","either","3","364","","","","","","","0","1","0","","0.8","0.5","0.5","","","0.8","0.2","","","","","","","","","","","","","","","","74","J","0","img/none_selected_demo.jpg","true","0","80_20_practice","",""
"","bandit","26","167539","0.0-18.0-8.0","83956440","wem/bandit_party_1","A11S43P3WNLIZD","either","3","376","","","","","","","1","0","0","0.8","","0.5","0.5","","","","","","","0.8","0.2","","","","","","","","","","","","74","J","0","img/none_selected_demo.jpg","true","0","80_20_practice","",""
"","bandit","27","169437","0.0-18.0-9.0","83956440","wem/bandit_party_1","A11S43P3WNLIZD","either","3","390","","","","","","","1","0","0","0.8","","0.5","0.5","","","","","","","0.8","0.2","","","","","","","","","","","","74","J","0","img/none_selected_demo.jpg","true","0","80_20_practice","",""
"","bandit","28","171610","0.0-18.0-10.0","83956440","wem/bandit_party_1","A11S43P3WNLIZD","either","3","665","","","","","","","0","0","1","","0.8","0.5","0.5","","","0.8","0.2","","","","","","","","","","","","","","","","74","J","0","img/none_selected_demo.jpg","true","0","80_20_practice","",""
"","bandit","29","174157","0.0-18.0-11.0","83956440","wem/bandit_party_1","A11S43P3WNLIZD","either","3","1039","","","","","","","0","0","1","0.2","","0.5","0.5","","","","","","","0.8","0.2","","","","","","","","","","","","75","K","1","","true","0","80_20_practice","",""
"","bandit","30","176624","0.0-18.0-12.0","83956440","wem/bandit_party_1","A11S43P3WNLIZD","either","3","959","","","","","","","1","0","0","0.8","","0.5","0.5","","","","","","","0.8","0.2","","","","","","","","","","","","74","J","0","img/none_selected_demo.jpg","true","0","80_20_practice","",""
"","bandit","31","178146","0.0-18.0-13.0","83956440","wem/bandit_party_1","A11S43P3WNLIZD","either","3","13","","","","","","","0","1","0","","0.8","0.5","0.5","","","0.8","0.2","","","","","","","","","","","","","","","","74","J","0","img/none_selected_demo.jpg","true","0","80_20_practice","",""
"","bandit","32","179869","0.0-18.0-14.0","83956440","wem/bandit_party_1","A11S43P3WNLIZD","either","3","216","","","","","","","1","0","0","0.8","","0.5","0.5","","","","","","","0.8","0.2","","","","","","","","","","","","74","J","0","img/none_selected_demo.jpg","true","0","80_20_practice","",""
"","bandit","33","181397","0.0-18.0-15.0","83956440","wem/bandit_party_1","A11S43P3WNLIZD","either","3","5","","","","","","","1","0","0","0.8","","0.5","0.5","","","","","","","0.8","0.2","","","","","","","","","","","","74","J","0","img/none_selected_demo.jpg","true","0","80_20_practice","",""
"","bandit","34","182922","0.0-18.0-16.0","83956440","wem/bandit_party_1","A11S43P3WNLIZD","either","3","19","","","","","","","0","1","0","","0.8","0.5","0.5","","","0.8","0.2","","","","","","","","","","","","","","","","74","J","0","img/none_selected_demo.jpg","true","0","80_20_practice","",""
"","bandit","35","184740","0.0-18.0-17.0","83956440","wem/bandit_party_1","A11S43P3WNLIZD","either","3","309","","","","","","","1","0","0","0.8","","0.5","0.5","","","","","","","0.8","0.2","","","","","","","","","","","","74","J","0","img/none_selected_demo.jpg","true","0","80_20_practice","",""
"","bandit","36","186291","0.0-18.0-18.0","83956440","wem/bandit_party_1","A11S43P3WNLIZD","either","3","43","","","","","","","1","0","0","0.8","","0.5","0.5","","","","","","","0.8","0.2","","","","","","","","","","","","74","J","0","img/none_selected_demo.jpg","true","0","80_20_practice","",""
"","bandit","37","187827","0.0-18.0-19.0","83956440","wem/bandit_party_1","A11S43P3WNLIZD","either","3","28","","","","","","","1","0","0","0.8","","0.5","0.5","","","","","","","0.8","0.2","","","","","","","","","","","","74","J","0","img/none_selected_demo.jpg","true","0","80_20_practice","",""
"","text-replacement","38","190081","0.0-19.0","83956440","wem/bandit_party_1","A11S43P3WNLIZD","either","3","2251","","","32","","","","","","","","","","","","","","","","","","","","","","","","","","","","","","","","","","","","","",""
"","bandit","39","193358","0.0-20.0-0.0","83956440","wem/bandit_party_1","A11S43P3WNLIZD","either","3","1768","","","","","","","1","0","0","1","0","","","","","0","1","","","1","0","","","","","","","","","","","","74","J","0","img/none_selected_demo.jpg","true","0","","",""
"","text-replacement","40","197118","0.0-21.0","83956440","wem/bandit_party_1","A11S43P3WNLIZD","either","3","3756","","","32","","","","","","","","","","","","","","","","","","","","","","","","","","","","","","","","","","","","","",""
"","text-replacement","41","200102","0.0-22.0","83956440","wem/bandit_party_1","A11S43P3WNLIZD","either","3","2980","","","32","","","","","","","","","","","","","","","","","","","","","","","","","","","","","","","","","","","","","",""
"","text-replacement","42","202100","0.0-23.0","83956440","wem/bandit_party_1","A11S43P3WNLIZD","either","3","1993","","","32","","","","","","","","","","","","","","","","","","","","","","","","","","","","","","","","","","","","","",""
"","text-replacement","43","208827","0.0-24.0","83956440","wem/bandit_party_1","A11S43P3WNLIZD","either","3","6724","","","32","","","","","","","","","","","","","","","","","","","","","","","","","","","","","","","","","","","","","",""
"","text-replacement","44","215529","0.0-25.0","83956440","wem/bandit_party_1","A11S43P3WNLIZD","either","3","6697","","","32","","","","","","","","","","","","","","","","","","","","","","","","","","","","","","","","","","","","","",""
"","text-replacement","45","217626","0.0-26.0","83956440","wem/bandit_party_1","A11S43P3WNLIZD","either","3","2093","","","32","","","","","","","","","","","","","","","","","","","","","","","","","","","","","","","","","","","","","",""
"","text-replacement","46","220388","0.0-27.0","83956440","wem/bandit_party_1","A11S43P3WNLIZD","either","3","2759","","","32","","","","","","","","","","","","","","","","","","","","","","","","","","","","","","","","","","","","","",""
"","text-replacement","47","223123","0.0-28.0","83956440","wem/bandit_party_1","A11S43P3WNLIZD","either","3","2732","","","32","","","","","","","","","","","","","","","","","","","","","","","","","","","","","","","","","","","","","",""
"","text-replacement","48","226855","0.0-29.0","83956440","wem/bandit_party_1","A11S43P3WNLIZD","either","3","3727","","","32","","","","","","","","","","","","","","","","","","","","","","","","","","","","","","","","","","","","","",""
"","text-replacement","49","229139","0.0-30.0","83956440","wem/bandit_party_1","A11S43P3WNLIZD","either","3","2281","","","32","","","","","","","","","","","","","","","","","","","","","","","","","","","","","","","","","","","","","",""
"","text-replacement","50","234326","0.0-31.0","83956440","wem/bandit_party_1","A11S43P3WNLIZD","either","3","5183","","","32","","","","","","","","","","","","","","","","","","","","","","","","","","","","","","","","","","","","","",""
"","bandit","51","237127","0.0-32.0-0.0","83956440","wem/bandit_party_1","A11S43P3WNLIZD","either","3","1293","","","","","","","0","0","1","0.2","","0.5","0.5","0.5","0.5","","","","","0.8","0.2","0.6","0.2","","","","","","","","","","74","J","1","","true","0","full_practice","",""
"","bandit","52","239068","0.0-32.0-1.0","83956440","wem/bandit_party_1","A11S43P3WNLIZD","either","3","430","","","","","","","0","0","1","","0.6","0.5","0.5","0.5","0.5","0.8","0.2","0.6","0.2","","","","","","","","","","","","","","75","K","2","","true","0","full_practice","",""
"","bandit","53","241564","0.0-32.0-2.0","83956440","wem/bandit_party_1","A11S43P3WNLIZD","either","3","987","","","","","","","0","0","1","0.2","","0.5","0.5","0.5","0.5","","","","","0.8","0.2","0.6","0.2","","","","","","","","","","76","L","3","","true","0","full_practice","",""
"","bandit","54","244598","0.0-32.0-3.0","83956440","wem/bandit_party_1","A11S43P3WNLIZD","either","3","1526","","","","","","","1","0","0","0.8","","0.5","0.5","0.5","0.5","","","","","0.8","0.2","0.6","0.2","","","","","","","","","","72","H","0","img/none_selected.jpg","true","0","full_practice","",""
"","bandit","55","246539","0.0-32.0-4.0","83956440","wem/bandit_party_1","A11S43P3WNLIZD","either","3","432","","","","","","","0","1","0","","0.8","0.5","0.5","0.5","0.5","0.8","0.2","0.6","0.2","","","","","","","","","","","","","","72","H","0","img/none_selected.jpg","true","0","full_practice","",""
"","bandit","56","248140","0.0-32.0-5.0","83956440","wem/bandit_party_1","A11S43P3WNLIZD","either","3","91","","","","","","","1","0","0","0.8","","0.5","0.5","0.5","0.5","","","","","0.8","0.2","0.6","0.2","","","","","","","","","","72","H","0","img/none_selected.jpg","true","0","full_practice","",""
"","bandit","57","249784","0.0-32.0-6.0","83956440","wem/bandit_party_1","A11S43P3WNLIZD","either","3","135","","","","","","","1","0","0","0.8","","0.5","0.5","0.5","0.5","","","","","0.8","0.2","0.6","0.2","","","","","","","","","","72","H","0","img/none_selected.jpg","true","0","full_practice","",""
"","bandit","58","251445","0.0-32.0-7.0","83956440","wem/bandit_party_1","A11S43P3WNLIZD","either","3","152","","","","","","","0","1","0","","0.8","0.5","0.5","0.5","0.5","0.8","0.2","0.6","0.2","","","","","","","","","","","","","","72","H","0","img/none_selected.jpg","true","0","full_practice","",""
"","bandit","59","252957","0.0-32.0-8.0","83956440","wem/bandit_party_1","A11S43P3WNLIZD","either","3","1","","","","","","","1","0","0","0.8","","0.5","0.5","0.5","0.5","","","","","0.8","0.2","0.6","0.2","","","","","","","","","","72","H","0","img/none_selected.jpg","true","0","full_practice","",""
"","bandit","60","254701","0.0-32.0-9.0","83956440","wem/bandit_party_1","A11S43P3WNLIZD","either","3","235","","","","","","","0","0","1","","0.8","0.5","0.5","0.5","0.5","0.8","0.2","0.6","0.2","","","","","","","","","","","","","","72","H","0","img/none_selected.jpg","true","0","full_practice","",""
"","bandit","61","256265","0.0-32.0-10.0","83956440","wem/bandit_party_1","A11S43P3WNLIZD","either","3","56","","","","","","","0","0","1","","0.8","0.5","0.5","0.5","0.5","0.8","0.2","0.6","0.2","","","","","","","","","","","","","","72","H","0","img/none_selected.jpg","true","0","full_practice","",""
"","bandit","62","257935","0.0-32.0-11.0","83956440","wem/bandit_party_1","A11S43P3WNLIZD","either","3","161","","","","","","","0","0","1","","0.2","0.5","0.5","0.5","0.5","0.8","0.2","0.6","0.2","","","","","","","","","","","","","","74","J","1","","true","0","full_practice","",""
"","bandit","63","259589","0.0-32.0-12.0","83956440","wem/bandit_party_1","A11S43P3WNLIZD","either","3","143","","","","","","","0","0","1","","0.6","0.5","0.5","0.5","0.5","0.8","0.2","0.6","0.2","","","","","","","","","","","","","","75","K","2","","true","0","full_practice","",""
"","bandit","64","261137","0.0-32.0-13.0","83956440","wem/bandit_party_1","A11S43P3WNLIZD","either","3","36","","","","","","","0","0","1","0.2","","0.5","0.5","0.5","0.5","","","","","0.8","0.2","0.6","0.2","","","","","","","","","","76","L","3","","true","0","full_practice","",""
"","bandit","65","262784","0.0-32.0-14.0","83956440","wem/bandit_party_1","A11S43P3WNLIZD","either","3","137","","","","","","","0","0","1","","0.8","0.5","0.5","0.5","0.5","0.8","0.2","0.6","0.2","","","","","","","","","","","","","","72","H","0","img/none_selected.jpg","true","0","full_practice","",""
"","bandit","66","264414","0.0-32.0-15.0","83956440","wem/bandit_party_1","A11S43P3WNLIZD","either","3","121","","","","","","","0","0","1","0.8","","0.5","0.5","0.5","0.5","","","","","0.8","0.2","0.6","0.2","","","","","","","","","","72","H","0","img/none_selected.jpg","true","0","full_practice","",""
"","bandit","67","265971","0.0-32.0-16.0","83956440","wem/bandit_party_1","A11S43P3WNLIZD","either","3","46","","","","","","","0","0","1","","0.2","0.5","0.5","0.5","0.5","0.8","0.2","0.6","0.2","","","","","","","","","","","","","","74","J","1","","true","0","full_practice","",""
"","bandit","68","267567","0.0-32.0-17.0","83956440","wem/bandit_party_1","A11S43P3WNLIZD","either","3","86","","","","","","","0","1","0","","0.6","0.5","0.5","0.5","0.5","0.8","0.2","0.6","0.2","","","","","","","","","","","","","","75","K","2","","true","0","full_practice","",""
"","bandit","69","269160","0.0-32.0-18.0","83956440","wem/bandit_party_1","A11S43P3WNLIZD","either","3","80","","","","","","","0","0","1","0.6","","0.5","0.5","0.5","0.5","","","","","0.8","0.2","0.6","0.2","","","","","","","","","","75","K","2","","true","0","full_practice","",""
"","bandit","70","270758","0.0-32.0-19.0","83956440","wem/bandit_party_1","A11S43P3WNLIZD","either","3","87","","","","","","","0","1","0","","0.6","0.5","0.5","0.5","0.5","0.8","0.2","0.6","0.2","","","","","","","","","","","","","","75","K","2","","true","0","full_practice","",""
"","text","71","272650","0.0-33.0","83956440","wem/bandit_party_1","A11S43P3WNLIZD","either","3","1881","","","32","","","","","","","","","","","","","","","","","","","","","","","","","","","","","","","","","","","","","",""
"","text-replacement","72","283661","0.0-34.0","83956440","wem/bandit_party_1","A11S43P3WNLIZD","either","3","10005","","","32","","","","","","","","","","","","","","","","","","","","","","","","","","","","","","","","","","","","","",""
"","text-replacement","73","289274","0.0-35.0","83956440","wem/bandit_party_1","A11S43P3WNLIZD","either","3","5609","","","32","","","","","","","","","","","","","","","","","","","","","","","","","","","","","","","","","","","","","",""
"","text-replacement","74","291626","0.0-36.0","83956440","wem/bandit_party_1","A11S43P3WNLIZD","either","3","2348","","","32","","","","","","","","","","","","","","","","","","","","","","","","","","","","","","","","","","","","","",""
"","text-replacement","75","294001","0.0-37.0","83956440","wem/bandit_party_1","A11S43P3WNLIZD","either","3","2371","","","32","","","","","","","","","","","","","","","","","","","","","","","","","","","","","","","","","","","","","",""
"","text-replacement","76","296634","0.0-38.0","83956440","wem/bandit_party_1","A11S43P3WNLIZD","either","3","2625","","","32","","","","","","","","","","","","","","","","","","","","","","","","","","","","","","","","","","","","","",""
"","survey-multi-choice-replacement","77","301499","0.0-39.0-0.0","83956440","wem/bandit_party_1","A11S43P3WNLIZD","either","3","4852","","","","","","","","","","","","","","","","","","","","","","","","Money will be added to the pool for <span style='color:red;'>REPUBLICANS</span>","","","","","","","attn_check","","","","","","","","","0",""
"","survey-multi-choice-replacement","78","305623","0.0-40.0-0.0","83956440","wem/bandit_party_1","A11S43P3WNLIZD","either","3","3109","","","","","","","","","","","","","","","","","","","","","","","","Money will be subtracted from the pool for <span style='color:blue;'>DEMOCRATS</span>","","","","","","","attn_check","","","","","","","","","1",""
"","instructions","79","308121","0.0-40.0-1.0-0.0","83956440","wem/bandit_party_1","A11S43P3WNLIZD","either","3","1493","","","","","","","","","","","","","","","","","","","","","","","","","","","","","","","","","","","","","","","","","[{""page_index"":0,""viewing_time"":1493}]"
"","survey-multi-choice-replacement","80","314845","0.0-40.1-0.1","83956440","wem/bandit_party_1","A11S43P3WNLIZD","either","3","5713","","","","","","","","","","","","","","","","","","","","","","","","Equal amounts of money will be added to the pool for <span style='color:red;'>REPUBLICANS</span> and subtracted from the pool for <span style='color:blue;'>DEMOCRATS</span>","","","","","","","attn_check","","","","","","","","","2",""
"","survey-multi-choice-replacement","81","318562","0.0-41.0-0.0","83956440","wem/bandit_party_1","A11S43P3WNLIZD","either","3","2704","","","","","","","","","","","","","","","","","","","","","","","","No money will be added to either pool","","","","","","","attn_check","","","","","","","","","3",""
"","bandit","82","324476","0.0-42.0-0.0","83956440","wem/bandit_party_1","A11S43P3WNLIZD","either","3","3400","","","","","","","1","0","0","0.4870892339","","0.6","0.2","0.4","0.8","","","","","0.4870892339","0.1646489015","0.1426046982","0.07685641067","","","","","","","","","","72","H","0","img/none_selected.jpg","","1","main_expt","",""
"","bandit","83","326786","0.0-43.0-0.0","83956440","wem/bandit_party_1","A11S43P3WNLIZD","either","3","799","","","","","","","0","1","0","","0.4875162112","0.6","0.2","0.4","0.8","0.4875162112","0.2180431119","0.1597004976","0.08388143876","","","","","","","","","","","","","","72","H","0","img/none_selected.jpg","","2","main_expt","",""
"","bandit","84","328813","0.0-44.0-0.0","83956440","wem/bandit_party_1","A11S43P3WNLIZD","either","3","515","","","","","","","1","0","0","0.4909945117","","0.6","0.2","0.4","0.8","","","","","0.4909945117","0.2294217256","0.1381850853","0.06528774038","","","","","","","","","","72","H","0","img/none_selected.jpg","","3","main_expt","",""
"","bandit","85","330752","0.0-45.0-0.0","83956440","wem/bandit_party_1","A11S43P3WNLIZD","either","3","427","","","","","","","0","0","1","0.482579304","","0.6","0.2","0.4","0.8","","","","","0.482579304","0.2162119515","0.1787932262","0.07987899881","","","","","","","","","","72","H","0","img/none_selected.jpg","","4","main_expt","",""
"","bandit","86","332485","0.0-46.0-0.0","83956440","wem/bandit_party_1","A11S43P3WNLIZD","either","3","224","","","","","","","0","1","0","","0.2246316054","0.6","0.2","0.4","0.8","0.4887913002","0.2246316054","0.1795032464","0.0432391811","","","","","","","","","","","","","","74","J","1","","","5","main_expt","",""
"","bandit","87","334816","0.0-47.0-0.0","83956440","wem/bandit_party_1","A11S43P3WNLIZD","either","3","820","","","","","","","0","0","1","","0.2061018479","0.6","0.2","0.4","0.8","0.4887860333","0.2061018479","0.164375756","0.03467601655","","","","","","","","","","","","","","74","J","1","","","6","main_expt","",""
"","bandit","88","337039","0.0-48.0-0.0","83956440","wem/bandit_party_1","A11S43P3WNLIZD","either","3","705","","","","","","","1","0","0","0.4901971563","","0.6","0.2","0.4","0.8","","","","","0.4901971563","0.1795347326","0.204957223","0.05033951668","","","","","","","","","","72","H","0","img/none_selected.jpg","","7","main_expt","",""
"","bandit","89","338949","0.0-49.0-0.0","83956440","wem/bandit_party_1","A11S43P3WNLIZD","either","3","400","","","","","","","1","0","0","0.4862230721","","0.6","0.2","0.4","0.8","","","","","0.4862230721","0.1290452752","0.2162036531","0.07676355645","","","","","","","","","","72","H","0","img/none_selected.jpg","","8","main_expt","",""
"","bandit","90","340845","0.0-50.0-0.0","83956440","wem/bandit_party_1","A11S43P3WNLIZD","either","3","386","","","","","","","0","0","1","0.4759730645","","0.6","0.2","0.4","0.8","","","","","0.4759730645","0.1559184374","0.2167418122","0.08620859221","","","","","","","","","","72","H","0","img/none_selected.jpg","","9","main_expt","",""
"","bandit","91","342749","0.0-51.0-0.0","83956440","wem/bandit_party_1","A11S43P3WNLIZD","either","3","394","","","","","","","0","0","1","","0.1381514788","0.6","0.2","0.4","0.8","0.4560980466","0.1381514788","0.1607923637","0.1103839657","","","","","","","","","","","","","","74","J","1","","","10","main_expt","",""
"","bandit","92","344712","0.0-52.0-0.0","83956440","wem/bandit_party_1","A11S43P3WNLIZD","either","3","453","","","","","","","0","0","1","","0.1271140015","0.6","0.2","0.4","0.8","0.4775116046","0.1271140015","0.1386410957","0.1334948588","","","","","","","","","","","","","","74","J","1","","","11","main_expt","",""
"","bandit","93","346602","0.0-53.0-0.0","83956440","wem/bandit_party_1","A11S43P3WNLIZD","either","3","379","","","","","","","0","0","1","","0.4705073552","0.6","0.2","0.4","0.8","0.4705073552","0.1854664659","0.1718380738","0.1535602519","","","","","","","","","","","","","","72","H","0","img/none_selected.jpg","","12","main_expt","",""
"","bandit","94","348161","0.0-54.0-0.0","83956440","wem/bandit_party_1","A11S43P3WNLIZD","either","3","48","","","","","","","0","0","1","","0.1686303413","0.6","0.2","0.4","0.8","0.4851887342","0.1869952656","0.1686303413","0.127854239","","","","","","","","","","","","","","75","K","2","","","13","main_expt","",""
"","bandit","95","350208","0.0-55.0-0.0","83956440","wem/bandit_party_1","A11S43P3WNLIZD","either","3","537","","","","","","","0","0","1","","0.1460019496","0.6","0.2","0.4","0.8","0.4731273917","0.2035171393","0.1460019496","0.1507911491","","","","","","","","","","","","","","75","K","2","","","14","main_expt","",""
"","bandit","96","352010","0.0-56.0-0.0","83956440","wem/bandit_party_1","A11S43P3WNLIZD","either","3","292","","","","","","","0","0","1","","0.1741212098","0.6","0.2","0.4","0.8","0.4585867004","0.2800299461","0.1667614464","0.1741212098","","","","","","","","","","","","","","76","L","3","","","15","main_expt","",""
"","bandit","97","353901","0.0-57.0-0.0","83956440","wem/bandit_party_1","A11S43P3WNLIZD","either","3","381","","","","","","","0","0","1","","0.1918308831","0.6","0.2","0.4","0.8","0.4366533258","0.2725454461","0.1973644546","0.1918308831","","","","","","","","","","","","","","76","L","3","","","16","main_expt","",""
"","bandit","98","356424","0.0-58.0-0.0","83956440","wem/bandit_party_1","A11S43P3WNLIZD","either","3","1011","","","","","","","0","0","1","","0.4405228744","0.6","0.2","0.4","0.8","0.4405228744","0.1570621471","0.1873415792","0.1950212473","","","","","","","","","","","","","","72","H","0","img/none_selected.jpg","","17","main_expt","",""
"","bandit","99","357963","0.0-59.0-0.0","83956440","wem/bandit_party_1","A11S43P3WNLIZD","either","3","29","","","","","","","0","0","1","0.4678551263","","0.6","0.2","0.4","0.8","","","","","0.4678551263","0.1968188506","0.1875860444","0.2094813194","","","","","","","","","","72","H","0","img/none_selected.jpg","","18","main_expt","",""
"","bandit","100","359699","0.0-60.0-0.0","83956440","wem/bandit_party_1","A11S43P3WNLIZD","either","3","225","","","","","","","0","0","1","0.2439518204","","0.6","0.2","0.4","0.8","","","","","0.466140525","0.2439518204","0.1988439388","0.2628959394","","","","","","","","","","74","J","1","","","19","main_expt","",""
"","bandit","101","361976","0.0-61.0-0.0","83956440","wem/bandit_party_1","A11S43P3WNLIZD","either","3","765","","","","","","","0","0","1","","0.2806117898","0.6","0.2","0.4","0.8","0.4094087999","0.2806117898","0.1813993393","0.2116504525","","","","","","","","","","","","","","74","J","1","","","20","main_expt","",""
"","bandit","102","363905","0.0-62.0-0.0","83956440","wem/bandit_party_1","A11S43P3WNLIZD","either","3","417","","","","","","","0","0","1","0.2012004452","","0.6","0.2","0.4","0.8","","","","","0.4386974508","0.2658005831","0.2012004452","0.1904426465","","","","","","","","","","75","K","2","","","21","main_expt","",""
"","bandit","103","365778","0.0-63.0-0.0","83956440","wem/bandit_party_1","A11S43P3WNLIZD","either","3","361","","","","","","","0","0","1","0.1958646163","","0.6","0.2","0.4","0.8","","","","","0.4505723784","0.2774390086","0.1958646163","0.1581796968","","","","","","","","","","75","K","2","","","22","main_expt","",""
"","bandit","104","367772","0.0-64.0-0.0","83956440","wem/bandit_party_1","A11S43P3WNLIZD","either","3","486","","","","","","","0","0","1","0.2039009352","","0.6","0.2","0.4","0.8","","","","","0.4568000239","0.2795917474","0.2626819079","0.2039009352","","","","","","","","","","76","L","3","","","23","main_expt","",""
"","bandit","105","369635","0.0-65.0-0.0","83956440","wem/bandit_party_1","A11S43P3WNLIZD","either","3","352","","","","","","","0","0","1","0.228339491","","0.6","0.2","0.4","0.8","","","","","0.4518339256","0.2981059477","0.2906682881","0.228339491","","","","","","","","","","76","L","3","","","24","main_expt","",""
"","bandit","106","372090","0.0-66.0-0.0","83956440","wem/bandit_party_1","A11S43P3WNLIZD","either","3","944","","","","","","","1","0","0","0.4120159309","","0.6","0.2","0.4","0.8","","","","","0.4120159309","0.3272059922","0.3270173502","0.2602465224","","","","","","","","","","72","H","0","img/none_selected.jpg","","25","main_expt","",""
"","bandit","107","374045","0.0-67.0-0.0","83956440","wem/bandit_party_1","A11S43P3WNLIZD","either","3","447","","","","","","","1","0","0","0.4134154185","","0.6","0.2","0.4","0.8","","","","","0.4134154185","0.3369826645","0.2951289915","0.1939420306","","","","","","","","","","72","H","0","img/none_selected.jpg","","26","main_expt","",""
"","bandit","108","375933","0.0-68.0-0.0","83956440","wem/bandit_party_1","A11S43P3WNLIZD","either","3","377","","","","","","","1","0","0","0.4031068294","","0.6","0.2","0.4","0.8","","","","","0.4031068294","0.2531212506","0.3520126272","0.2387331149","","","","","","","","","","72","H","0","img/none_selected.jpg","","27","main_expt","",""
"","bandit","109","377743","0.0-69.0-0.0","83956440","wem/bandit_party_1","A11S43P3WNLIZD","either","3","297","","","","","","","1","0","0","0.4305883772","","0.6","0.2","0.4","0.8","","","","","0.4305883772","0.2170461037","0.3369287003","0.2183458617","","","","","","","","","","72","H","0","img/none_selected.jpg","","28","main_expt","",""
"","bandit","110","379673","0.0-70.0-0.0","83956440","wem/bandit_party_1","A11S43P3WNLIZD","either","3","419","","","","","","","1","0","0","0.4383329838","","0.6","0.2","0.4","0.8","","","","","0.4383329838","0.2346211465","0.3591799128","0.2151501268","","","","","","","","","","72","H","0","img/none_selected.jpg","","29","main_expt","",""
"","bandit","111","382027","0.0-71.0-0.0","83956440","wem/bandit_party_1","A11S43P3WNLIZD","either","3","843","","","","","","","0","1","0","","0.4233276099","0.6","0.2","0.4","0.8","0.4233276099","0.2450860663","0.3324285477","0.2267233056","","","","","","","","","","","","","","72","H","0","img/none_selected.jpg","","30","main_expt","",""
"","bandit","112","384242","0.0-72.0-0.0","83956440","wem/bandit_party_1","A11S43P3WNLIZD","either","3","704","","","","","","","0","0","1","0.4016185005","","0.6","0.2","0.4","0.8","","","","","0.4016185005","0.2141169407","0.327032362","0.2663701676","","","","","","","","","","72","H","0","img/none_selected.jpg","","31","main_expt","",""
"","bandit","113","385815","0.0-73.0-0.0","83956440","wem/bandit_party_1","A11S43P3WNLIZD","either","3","61","","","","","","","0","1","0","","0.2347854155","0.6","0.2","0.4","0.8","0.4134940178","0.2347854155","0.3230905041","0.275969473","","","","","","","","","","","","","","74","J","1","","","32","main_expt","",""
"","bandit","114","387874","0.0-74.0-0.0","83956440","wem/bandit_party_1","A11S43P3WNLIZD","either","3","549","","","","","","","0","0","1","","0.246596708","0.6","0.2","0.4","0.8","0.4331174495","0.246596708","0.2969008969","0.3365270118","","","","","","","","","","","","","","74","J","1","","","33","main_expt","",""
"","bandit","115","389565","0.0-75.0-0.0","83956440","wem/bandit_party_1","A11S43P3WNLIZD","either","3","178","","","","","","","0","0","1","","0.1914370393","0.6","0.2","0.4","0.8","0.4454497031","0.1914370393","0.2536392951","0.2916301021","","","","","","","","","","","","","","74","J","1","","","34","main_expt","",""
"","bandit","116","391119","0.0-76.0-0.0","83956440","wem/bandit_party_1","A11S43P3WNLIZD","either","3","43","","","","","","","0","0","1","0.4419706984","","0.6","0.2","0.4","0.8","","","","","0.4419706984","0.1408207185","0.2336030597","0.3236538836","","","","","","","","","","72","H","0","img/none_selected.jpg","","35","main_expt","",""
"","bandit","117","392912","0.0-77.0-0.0","83956440","wem/bandit_party_1","A11S43P3WNLIZD","either","3","283","","","","","","","0","0","1","","0.4205940312","0.6","0.2","0.4","0.8","0.4205940312","0.09539735145","0.3110392291","0.3317439785","","","","","","","","","","","","","","72","H","0","img/none_selected.jpg","","36","main_expt","",""
"","bandit","118","394580","0.0-78.0-0.0","83956440","wem/bandit_party_1","A11S43P3WNLIZD","either","3","159","","","","","","","0","0","1","","0.08867332122","0.6","0.2","0.4","0.8","0.4227305347","0.08867332122","0.3354302382","0.3620900841","","","","","","","","","","","","","","74","J","1","","","37","main_expt","",""
"","bandit","119","396751","0.0-79.0-0.0","83956440","wem/bandit_party_1","A11S43P3WNLIZD","either","3","661","","","","","","","0","0","1","","0.3359947902","0.6","0.2","0.4","0.8","0.3904174821","0.0804097964","0.3359947902","0.3649119955","","","","","","","","","","","","","","75","K","2","","","38","main_expt","",""
"","bandit","120","398858","0.0-80.0-0.0","83956440","wem/bandit_party_1","A11S43P3WNLIZD","either","3","595","","","","","","","0","0","1","","0.3993258453","0.6","0.2","0.4","0.8","0.3704092514","0.1092906338","0.3719467902","0.3993258453","","","","","","","","","","","","","","76","L","3","","","39","main_expt","",""
"","bandit","121","400691","0.0-81.0-0.0","83956440","wem/bandit_party_1","A11S43P3WNLIZD","either","3","321","","","","","","","0","0","1","","0.37180955","0.6","0.2","0.4","0.8","0.3250394812","0.08771014895","0.37180955","0.43145226","","","","","","","","","","","","","","75","K","2","","","40","main_expt","",""
"","bandit","122","402505","0.0-82.0-0.0","83956440","wem/bandit_party_1","A11S43P3WNLIZD","either","3","300","","","","","","","0","0","1","","0.1065106481","0.6","0.2","0.4","0.8","0.3633775572","0.1065106481","0.3972707938","0.3925837484","","","","","","","","","","","","","","74","J","1","","","41","main_expt","",""
"","bandit","123","404192","0.0-83.0-0.0","83956440","wem/bandit_party_1","A11S43P3WNLIZD","either","3","176","","","","","","","0","0","1","0.3708570881","","0.6","0.2","0.4","0.8","","","","","0.3708570881","0.0926848955","0.3981555674","0.4020613291","","","","","","","","","","72","H","0","img/none_selected.jpg","","42","main_expt","",""
"","bandit","124","406199","0.0-84.0-0.0","83956440","wem/bandit_party_1","A11S43P3WNLIZD","either","3","495","","","","","","","0","1","0","","0.3852030547","0.6","0.2","0.4","0.8","0.3852030547","0.09213729174","0.3698022864","0.4199094288","","","","","","","","","","","","","","72","H","0","img/none_selected.jpg","","43","main_expt","",""
"","bandit","125","408228","0.0-85.0-0.0","83956440","wem/bandit_party_1","A11S43P3WNLIZD","either","3","513","","","","","","","0","1","0","","0.3653477133","0.6","0.2","0.4","0.8","0.3653477133","0.0950319608","0.3278340923","0.4362917367","","","","","","","","","","","","","","72","H","0","img/none_selected.jpg","","44","main_expt","",""
"","bandit","126","409917","0.0-86.0-0.0","83956440","wem/bandit_party_1","A11S43P3WNLIZD","either","3","176","","","","","","","0","0","1","","0.3423722135","0.6","0.2","0.4","0.8","0.3423722135","0.07917944011","0.4004869948","0.4310393502","","","","","","","","","","","","","","72","H","0","img/none_selected.jpg","","45","main_expt","",""
"","bandit","127","411430","0.0-87.0-0.0","83956440","wem/bandit_party_1","A11S43P3WNLIZD","either","3","1","","","","","","","0","0","1","","0.08528552535","0.6","0.2","0.4","0.8","0.2713785315","0.08528552535","0.4389658195","0.4301719659","","","","","","","","","","","","","","74","J","1","","","46","main_expt","",""
"","bandit","128","413161","0.0-88.0-0.0","83956440","wem/bandit_party_1","A11S43P3WNLIZD","either","3","219","","","","","","","0","0","1","","0.08303267599","0.6","0.2","0.4","0.8","0.2675382036","0.08303267599","0.4294918489","0.4274268526","","","","","","","","","","","","","","74","J","1","","","47","main_expt","",""
"","bandit","129","415078","0.0-89.0-0.0","83956440","wem/bandit_party_1","A11S43P3WNLIZD","either","3","406","","","","","","","0","0","1","","0.1183490009","0.6","0.2","0.4","0.8","0.3006553151","0.1183490009","0.3948346084","0.4559220927","","","","","","","","","","","","","","74","J","1","","","48","main_expt","",""
"","bandit","130","417106","0.0-90.0-0.0","83956440","wem/bandit_party_1","A11S43P3WNLIZD","either","3","514","","","","","","","0","0","1","0.4226663974","","0.6","0.2","0.4","0.8","","","","","0.2865645246","0.09831357925","0.4226663974","0.4362936898","","","","","","","","","","75","K","2","","","49","main_expt","",""
"","bandit","131","419215","0.0-91.0-0.0","83956440","wem/bandit_party_1","A11S43P3WNLIZD","either","3","597","","","","","","","0","0","1","0.4001593617","","0.6","0.2","0.4","0.8","","","","","0.2842330123","0.0896163698","0.3943232949","0.4001593617","","","","","","","","","","76","L","3","","","50","main_expt","",""
"","bandit","132","421125","0.0-92.0-0.0","83956440","wem/bandit_party_1","A11S43P3WNLIZD","either","3","399","","","","","","","0","0","1","0.3911898034","","0.6","0.2","0.4","0.8","","","","","0.2933637591","0.08239790895","0.3911898034","0.3737598101","","","","","","","","","","75","K","2","","","51","main_expt","",""
"","bandit","133","423130","0.0-93.0-0.0","83956440","wem/bandit_party_1","A11S43P3WNLIZD","either","3","491","","","","","","","0","0","1","","0.06509061927","0.6","0.2","0.4","0.8","0.2802127762","0.06509061927","0.3897106723","0.3490564905","","","","","","","","","","","","","","74","J","1","","","52","main_expt","",""
"","bandit","134","424645","0.0-94.0-0.0","83956440","wem/bandit_party_1","A11S43P3WNLIZD","either","3","1","","","","","","","1","0","0","0.2567133084","","0.6","0.2","0.4","0.8","","","","","0.2567133084","0.05503049918","0.3977919118","0.3606416198","","","","","","","","","","72","H","0","img/none_selected.jpg","","53","main_expt","",""
"","bandit","135","426423","0.0-95.0-0.0","83956440","wem/bandit_party_1","A11S43P3WNLIZD","either","3","264","","","","","","","0","1","0","","0.304436262","0.6","0.2","0.4","0.8","0.304436262","0.06606451817","0.3803623479","0.3920172378","","","","","","","","","","","","","","72","H","0","img/none_selected.jpg","","54","main_expt","",""
"","bandit","136","428387","0.0-96.0-0.0","83956440","wem/bandit_party_1","A11S43P3WNLIZD","either","3","440","","","","","","","1","0","0","0.3050376594","","0.6","0.2","0.4","0.8","","","","","0.3050376594","0.0812436444","0.3898030924","0.3841867886","","","","","","","","","","72","H","0","img/none_selected.jpg","","55","main_expt","",""
"","bandit","137","430399","0.0-97.0-0.0","83956440","wem/bandit_party_1","A11S43P3WNLIZD","either","3","500","","","","","","","0","0","1","0.2874076515","","0.6","0.2","0.4","0.8","","","","","0.2874076515","0.05752214818","0.4332266089","0.3752679739","","","","","","","","","","72","H","0","img/none_selected.jpg","","56","main_expt","",""
"","bandit","138","432433","0.0-98.0-0.0","83956440","wem/bandit_party_1","A11S43P3WNLIZD","either","3","520","","","","","","","0","0","1","","0.05957573693","0.6","0.2","0.4","0.8","0.2633226407","0.05957573693","0.4598680415","0.3595388075","","","","","","","","","","","","","","74","J","1","","","57","main_expt","",""
"","bandit","139","434342","0.0-99.0-0.0","83956440","wem/bandit_party_1","A11S43P3WNLIZD","either","3","398","","","","","","","0","1","0","","0.282557186","0.6","0.2","0.4","0.8","0.282557186","0.08347810371","0.4510058242","0.2926617498","","","","","","","","","","","","","","72","H","0","img/none_selected.jpg","","58","main_expt","",""
"","bandit","140","436402","0.0-100.0-0.0","83956440","wem/bandit_party_1","A11S43P3WNLIZD","either","3","548","","","","","","","0","0","1","0.1166757522","","0.6","0.2","0.4","0.8","","","","","0.2675679041","0.1166757522","0.4587464736","0.2854140482","","","","","","","","","","74","J","1","","","59","main_expt","",""
"","bandit","141","438295","0.0-101.0-0.0","83956440","wem/bandit_party_1","A11S43P3WNLIZD","either","3","379","","","","","","","0","0","1","0.2654645802","","0.6","0.2","0.4","0.8","","","","","0.2654645802","0.1223048521","0.4534111386","0.2767785787","","","","","","","","","","72","H","0","img/none_selected.jpg","","60","main_expt","",""
"","bandit","142","439883","0.0-102.0-0.0","83956440","wem/bandit_party_1","A11S43P3WNLIZD","either","3","76","","","","","","","0","0","1","","0.2326588137","0.6","0.2","0.4","0.8","0.2326588137","0.1341525672","0.4581751116","0.3110110239","","","","","","","","","","","","","","72","H","0","img/none_selected.jpg","","61","main_expt","",""
"","bandit","143","441765","0.0-103.0-0.0","83956440","wem/bandit_party_1","A11S43P3WNLIZD","either","3","368","","","","","","","0","1","0","","0.4447189615","0.6","0.2","0.4","0.8","0.2430345153","0.1748443247","0.4447189615","0.2739379344","","","","","","","","","","","","","","75","K","2","","","62","main_expt","",""
"","bandit","144","443681","0.0-104.0-0.0","83956440","wem/bandit_party_1","A11S43P3WNLIZD","either","3","402","","","","","","","0","0","1","","0.4351057758","0.6","0.2","0.4","0.8","0.2682261916","0.1872250423","0.4351057758","0.2518438402","","","","","","","","","","","","","","75","K","2","","","63","main_expt","",""
"","bandit","145","445446","0.0-105.0-0.0","83956440","wem/bandit_party_1","A11S43P3WNLIZD","either","3","252","","","","","","","1","0","0","0.216118181","","0.6","0.2","0.4","0.8","","","","","0.3136585585","0.1592276408","0.4559228662","0.216118181","","","","","","","","","","76","L","3","","","64","main_expt","",""
"","bandit","146","447326","0.0-106.0-0.0","83956440","wem/bandit_party_1","A11S43P3WNLIZD","either","3","366","","","","","","","0","0","1","0.1961712117","","0.6","0.2","0.4","0.8","","","","","0.3208042698","0.1881419285","0.4526438492","0.1961712117","","","","","","","","","","76","L","3","","","65","main_expt","",""
"","bandit","147","449434","0.0-107.0-0.0","83956440","wem/bandit_party_1","A11S43P3WNLIZD","either","3","594","","","","","","","0","0","1","","0.4604690516","0.6","0.2","0.4","0.8","0.3550213758","0.2075830042","0.4604690516","0.1821057022","","","","","","","","","","","","","","75","K","2","","","66","main_expt","",""
"","bandit","148","450979","0.0-108.0-0.0","83956440","wem/bandit_party_1","A11S43P3WNLIZD","either","3","30","","","","","","","1","0","0","0.2221692745","","0.6","0.2","0.4","0.8","","","","","0.2883445083","0.210321401","0.4479534522","0.2221692745","","","","","","","","","","76","L","3","","","67","main_expt","",""
"","bandit","149","453012","0.0-109.0-0.0","83956440","wem/bandit_party_1","A11S43P3WNLIZD","either","3","521","","","","","","","0","0","1","","0.2385328342","0.6","0.2","0.4","0.8","0.2492112051","0.1740681144","0.4420076102","0.2385328342","","","","","","","","","","","","","","76","L","3","","","68","main_expt","",""
"","bandit","150","454904","0.0-110.0-0.0","83956440","wem/bandit_party_1","A11S43P3WNLIZD","either","3","380","","","","","","","0","0","1","0.1725364023","","0.6","0.2","0.4","0.8","","","","","0.1725364023","0.1495678232","0.3840886122","0.2693988132","","","","","","","","","","72","H","0","img/none_selected.jpg","","69","main_expt","",""
"","bandit","151","456427","0.0-111.0-0.0","83956440","wem/bandit_party_1","A11S43P3WNLIZD","either","3","9","","","","","","","0","0","1","","0.1594524764","0.6","0.2","0.4","0.8","0.2081322216","0.1594524764","0.3764426572","0.2633889128","","","","","","","","","","","","","","74","J","1","","","70","main_expt","",""
"","bandit","152","458103","0.0-112.0-0.0","83956440","wem/bandit_party_1","A11S43P3WNLIZD","either","3","163","","","","","","","0","0","1","0.3925575972","","0.6","0.2","0.4","0.8","","","","","0.2222096595","0.1308665948","0.3925575972","0.2881785301","","","","","","","","","","75","K","2","","","71","main_expt","",""
"","bandit","153","459810","0.0-113.0-0.0","83956440","wem/bandit_party_1","A11S43P3WNLIZD","either","3","194","","","","","","","1","0","0","0.3496752211","","0.6","0.2","0.4","0.8","","","","","0.2276413934","0.1413665491","0.4055717031","0.3496752211","","","","","","","","","","76","L","3","","","72","main_expt","",""
"","bandit","154","461763","0.0-114.0-0.0","83956440","wem/bandit_party_1","A11S43P3WNLIZD","either","3","438","","","","","","","0","0","1","","0.3662649551","0.6","0.2","0.4","0.8","0.202726327","0.1562096843","0.4313753627","0.3662649551","","","","","","","","","","","","","","76","L","3","","","73","main_expt","",""
"","bandit","155","463742","0.0-115.0-0.0","83956440","wem/bandit_party_1","A11S43P3WNLIZD","either","3","467","","","","","","","0","0","1","0.4294283137","","0.6","0.2","0.4","0.8","","","","","0.2465356434","0.1601549975","0.4294283137","0.3318597218","","","","","","","","","","75","K","2","","","74","main_expt","",""
"","bandit","156","465255","0.0-116.0-0.0","83956440","wem/bandit_party_1","A11S43P3WNLIZD","either","3","1","","","","","","","0","0","1","","0.1962365409","0.6","0.2","0.4","0.8","0.2780880013","0.1962365409","0.4114775526","0.3129946244","","","","","","","","","","","","","","74","J","1","","","75","main_expt","",""
"","bandit","157","467153","0.0-117.0-0.0","83956440","wem/bandit_party_1","A11S43P3WNLIZD","either","3","384","","","","","","","0","0","1","0.230570622","","0.6","0.2","0.4","0.8","","","","","0.230570622","0.2315068675","0.4038916894","0.3299880354","","","","","","","","","","72","H","0","img/none_selected.jpg","","76","main_expt","",""
"","bandit","158","469386","0.0-118.0-0.0","83956440","wem/bandit_party_1","A11S43P3WNLIZD","either","3","722","","","","","","","0","1","0","","0.1749603823","0.6","0.2","0.4","0.8","0.1747897532","0.1749603823","0.4028298088","0.2704336052","","","","","","","","","","","","","","74","J","1","","","77","main_expt","",""
"","bandit","159","470937","0.0-119.0-0.0","83956440","wem/bandit_party_1","A11S43P3WNLIZD","either","3","37","","","","","","","0","0","1","","0.2091975686","0.6","0.2","0.4","0.8","0.2009150394","0.2091975686","0.4004321452","0.2489008917","","","","","","","","","","","","","","74","J","1","","","78","main_expt","",""
"","bandit","160","472509","0.0-120.0-0.0","83956440","wem/bandit_party_1","A11S43P3WNLIZD","either","3","58","","","","","","","1","0","0","0.2699334682","","0.6","0.2","0.4","0.8","","","","","0.2090883318","0.2699334682","0.3909827091","0.2182462247","","","","","","","","","","74","J","1","","","79","main_expt","",""
"","bandit","161","474496","0.0-121.0-0.0","83956440","wem/bandit_party_1","A11S43P3WNLIZD","either","3","474","","","","","","","0","0","1","","0.4289339141","0.6","0.2","0.4","0.8","0.215522018","0.2712134299","0.4289339141","0.1591694045","","","","","","","","","","","","","","75","K","2","","","80","main_expt","",""
"","bandit","162","476385","0.0-122.0-0.0","83956440","wem/bandit_party_1","A11S43P3WNLIZD","either","3","376","","","","","","","0","0","1","0.1661146317","","0.6","0.2","0.4","0.8","","","","","0.2655955182","0.2563236188","0.4256341571","0.1661146317","","","","","","","","","","76","L","3","","","81","main_expt","",""
"","bandit","163","477992","0.0-123.0-0.0","83956440","wem/bandit_party_1","A11S43P3WNLIZD","either","3","94","","","","","","","0","0","1","","0.2474856626","0.6","0.2","0.4","0.8","0.2642342948","0.2474856626","0.4153375647","0.2249160828","","","","","","","","","","","","","","74","J","1","","","82","main_expt","",""
"","bandit","164","479873","0.0-124.0-0.0","83956440","wem/bandit_party_1","A11S43P3WNLIZD","either","3","367","","","","","","","0","0","1","","0.2615040017","0.6","0.2","0.4","0.8","0.2615040017","0.2338037125","0.4239102097","0.2194800234","","","","","","","","","","","","","","72","H","0","img/none_selected.jpg","","83","main_expt","",""
"","bandit","165","481585","0.0-125.0-0.0","83956440","wem/bandit_party_1","A11S43P3WNLIZD","either","3","199","","","","","","","0","0","1","0.3136368113","","0.6","0.2","0.4","0.8","","","","","0.3136368113","0.2929655049","0.4021041833","0.2020024956","","","","","","","","","","72","H","0","img/none_selected.jpg","","84","main_expt","",""
"","bandit","166","483463","0.0-126.0-0.0","83956440","wem/bandit_party_1","A11S43P3WNLIZD","either","3","365","","","","","","","0","0","1","0.2755572306","","0.6","0.2","0.4","0.8","","","","","0.2433538552","0.2755572306","0.4322374594","0.1639230135","","","","","","","","","","74","J","1","","","85","main_expt","",""
"","bandit","167","485050","0.0-127.0-0.0","83956440","wem/bandit_party_1","A11S43P3WNLIZD","either","3","73","","","","","","","0","0","1","","0.4247618508","0.6","0.2","0.4","0.8","0.2583740773","0.2706615249","0.4247618508","0.1423092638","","","","","","","","","","","","","","75","K","2","","","86","main_expt","",""
"","bandit","168","487172","0.0-128.0-0.0","83956440","wem/bandit_party_1","A11S43P3WNLIZD","either","3","609","","","","","","","0","0","1","0.1623313408","","0.6","0.2","0.4","0.8","","","","","0.2656778135","0.3259805539","0.4130492334","0.1623313408","","","","","","","","","","76","L","3","","","87","main_expt","",""
"","bandit","169","488717","0.0-129.0-0.0","83956440","wem/bandit_party_1","A11S43P3WNLIZD","either","3","30","","","","","","","0","0","1","","0.3883747858","0.6","0.2","0.4","0.8","0.2565525481","0.3471137027","0.3883747858","0.1459946163","","","","","","","","","","","","","","75","K","2","","","88","main_expt","",""
"","bandit","170","490589","0.0-130.0-0.0","83956440","wem/bandit_party_1","A11S43P3WNLIZD","either","3","355","","","","","","","0","1","0","","0.3715311126","0.6","0.2","0.4","0.8","0.2471999074","0.3715311126","0.3950807547","0.1684807643","","","","","","","","","","","","","","74","J","1","","","89","main_expt","",""
"","bandit","171","492278","0.0-131.0-0.0","83956440","wem/bandit_party_1","A11S43P3WNLIZD","either","3","175","","","","","","","0","0","1","0.2204199549","","0.6","0.2","0.4","0.8","","","","","0.2204199549","0.3571728809","0.420982679","0.1937692241","","","","","","","","","","72","H","0","img/none_selected.jpg","","90","main_expt","",""
"","bandit","172","493907","0.0-132.0-0.0","83956440","wem/bandit_party_1","A11S43P3WNLIZD","either","3","114","","","","","","","0","1","0","","0.2013548925","0.6","0.2","0.4","0.8","0.2013548925","0.3348642023","0.4012606491","0.1670397906","","","","","","","","","","","","","","72","H","0","img/none_selected.jpg","","91","main_expt","",""
"","bandit","173","495730","0.0-133.0-0.0","83956440","wem/bandit_party_1","A11S43P3WNLIZD","either","3","309","","","","","","","0","0","1","0.174921714","","0.6","0.2","0.4","0.8","","","","","0.174921714","0.3551195155","0.3950870333","0.1936095216","","","","","","","","","","72","H","0","img/none_selected.jpg","","92","main_expt","",""
"","bandit","174","497702","0.0-134.0-0.0","83956440","wem/bandit_party_1","A11S43P3WNLIZD","either","3","456","","","","","","","0","0","1","","0.3494458231","0.6","0.2","0.4","0.8","0.1972058505","0.3494458231","0.3797372222","0.2399824117","","","","","","","","","","","","","","74","J","1","","","93","main_expt","",""
"","bandit","175","499738","0.0-135.0-0.0","83956440","wem/bandit_party_1","A11S43P3WNLIZD","either","3","523","","","","","","","1","0","0","0.3346339076","","0.6","0.2","0.4","0.8","","","","","0.2144007407","0.3759818745","0.3346339076","0.242536602","","","","","","","","","","75","K","2","","","94","main_expt","",""
"","bandit","176","501694","0.0-136.0-0.0","83956440","wem/bandit_party_1","A11S43P3WNLIZD","either","3","441","","","","","","","1","0","0","0.3433005441","","0.6","0.2","0.4","0.8","","","","","0.2025691914","0.3467088588","0.3433005441","0.3081296623","","","","","","","","","","75","K","2","","","95","main_expt","",""
"","bandit","177","503530","0.0-137.0-0.0","83956440","wem/bandit_party_1","A11S43P3WNLIZD","either","3","322","","","","","","","0","0","1","","0.2900415689","0.6","0.2","0.4","0.8","0.1750118246","0.3520186383","0.2900415689","0.371766452","","","","","","","","","","","","","","75","K","2","","","96","main_expt","",""
"","bandit","178","505123","0.0-138.0-0.0","83956440","wem/bandit_party_1","A11S43P3WNLIZD","either","3","80","","","","","","","0","0","1","0.3737721809","","0.6","0.2","0.4","0.8","","","","","0.2433812568","0.342216001","0.3136050561","0.3737721809","","","","","","","","","","76","L","3","","","97","main_expt","",""
"","bandit","179","507123","0.0-139.0-0.0","83956440","wem/bandit_party_1","A11S43P3WNLIZD","either","3","486","","","","","","","0","0","1","0.3662625892","","0.6","0.2","0.4","0.8","","","","","0.1834100281","0.3775958225","0.3236610102","0.3662625892","","","","","","","","","","76","L","3","","","98","main_expt","",""
"","bandit","180","508845","0.0-140.0-0.0","83956440","wem/bandit_party_1","A11S43P3WNLIZD","either","3","209","","","","","","","0","0","1","","0.3116662608","0.6","0.2","0.4","0.8","0.146161558","0.3490624926","0.3116662608","0.3912879072","","","","","","","","","","","","","","75","K","2","","","99","main_expt","",""
"","bandit","181","510368","0.0-141.0-0.0","83956440","wem/bandit_party_1","A11S43P3WNLIZD","either","3","9","","","","","","","1","0","0","0.3418910903","","0.6","0.2","0.4","0.8","","","","","0.1186266926","0.3418910903","0.3806420769","0.3916888764","","","","","","","","","","74","J","1","","","100","main_expt","",""
"","bandit","182","511981","0.0-142.0-0.0","83956440","wem/bandit_party_1","A11S43P3WNLIZD","either","3","96","","","","","","","0","1","0","","0.3544055354","0.6","0.2","0.4","0.8","0.1467879228","0.3544055354","0.3825052475","0.3803758031","","","","","","","","","","","","","","74","J","1","","","101","main_expt","",""
"","bandit","183","513577","0.0-143.0-0.0","83956440","wem/bandit_party_1","A11S43P3WNLIZD","either","3","82","","","","","","","0","0","1","","0.3580864163","0.6","0.2","0.4","0.8","0.1336514036","0.3580864163","0.3799327693","0.3685266224","","","","","","","","","","","","","","74","J","1","","","102","main_expt","",""
"","bandit","184","515434","0.0-144.0-0.0","83956440","wem/bandit_party_1","A11S43P3WNLIZD","either","3","342","","","","","","","0","0","1","0.1325092095","","0.6","0.2","0.4","0.8","","","","","0.1325092095","0.336528594","0.3502018886","0.3754978655","","","","","","","","","","72","H","0","img/none_selected.jpg","","103","main_expt","",""
"","bandit","185","517463","0.0-145.0-0.0","83956440","wem/bandit_party_1","A11S43P3WNLIZD","either","3","517","","","","","","","0","0","1","","0.3190078166","0.6","0.2","0.4","0.8","0.1162839287","0.3190078166","0.3443431466","0.4033056484","","","","","","","","","","","","","","74","J","1","","","104","main_expt","",""
"","bandit","186","519368","0.0-146.0-0.0","83956440","wem/bandit_party_1","A11S43P3WNLIZD","either","3","393","","","","","","","0","0","1","0.3551378046","","0.6","0.2","0.4","0.8","","","","","0.115620258","0.3100940773","0.3551378046","0.3617388181","","","","","","","","","","75","K","2","","","105","main_expt","",""
"","bandit","187","521227","0.0-147.0-0.0","83956440","wem/bandit_party_1","A11S43P3WNLIZD","either","3","346","","","","","","","0","1","0","","0.3656875331","0.6","0.2","0.4","0.8","0.1102569517","0.2964842485","0.3177956882","0.3656875331","","","","","","","","","","","","","","76","L","3","","","106","main_expt","",""
"","bandit","188","523076","0.0-148.0-0.0","83956440","wem/bandit_party_1","A11S43P3WNLIZD","either","3","336","","","","","","","0","0","1","","0.3478183852","0.6","0.2","0.4","0.8","0.110599846","0.3224579283","0.3463124521","0.3478183852","","","","","","","","","","","","","","76","L","3","","","107","main_expt","",""
"","bandit","189","524995","0.0-149.0-0.0","83956440","wem/bandit_party_1","A11S43P3WNLIZD","either","3","406","","","","","","","0","0","1","","0.330790185","0.6","0.2","0.4","0.8","0.1647947233","0.3365568187","0.330790185","0.3715517583","","","","","","","","","","","","","","75","K","2","","","108","main_expt","",""
"","bandit","190","526862","0.0-150.0-0.0","83956440","wem/bandit_party_1","A11S43P3WNLIZD","either","3","354","","","","","","","1","0","0","0.3200824859","","0.6","0.2","0.4","0.8","","","","","0.146095753","0.3200824859","0.3259779601","0.3713851569","","","","","","","","","","74","J","1","","","109","main_expt","",""
"","bandit","191","528726","0.0-151.0-0.0","83956440","wem/bandit_party_1","A11S43P3WNLIZD","either","3","348","","","","","","","0","0","1","","0.3179471713","0.6","0.2","0.4","0.8","0.1691954855","0.3179471713","0.3169053314","0.3401672382","","","","","","","","","","","","","","74","J","1","","","110","main_expt","",""
"","bandit","192","530309","0.0-152.0-0.0","83956440","wem/bandit_party_1","A11S43P3WNLIZD","either","3","68","","","","","","","0","0","1","0.1690298198","","0.6","0.2","0.4","0.8","","","","","0.1690298198","0.3168158386","0.342138516","0.3242328008","","","","","","","","","","72","H","0","img/none_selected.jpg","","111","main_expt","",""
"","bandit","193","532478","0.0-153.0-0.0","83956440","wem/bandit_party_1","A11S43P3WNLIZD","either","3","653","","","","","","","0","0","1","0.2196992501","","0.6","0.2","0.4","0.8","","","","","0.2196992501","0.3551606626","0.3597886873","0.2991119965","","","","","","","","","","72","H","0","img/none_selected.jpg","","112","main_expt","",""
"","bandit","194","533995","0.0-154.0-0.0","83956440","wem/bandit_party_1","A11S43P3WNLIZD","either","3","2","","","","","","","0","1","0","","0.3615444015","0.6","0.2","0.4","0.8","0.2723467559","0.3615444015","0.3580549124","0.3364281798","","","","","","","","","","","","","","74","J","1","","","113","main_expt","",""
"","bandit","195","536464","0.0-155.0-0.0","83956440","wem/bandit_party_1","A11S43P3WNLIZD","either","3","954","","","","","","","0","0","1","","0.4043222556","0.6","0.2","0.4","0.8","0.2470985199","0.4043222556","0.3556181037","0.3495122724","","","","","","","","","","","","","","74","J","1","","","114","main_expt","",""
"","bandit","196","538284","0.0-156.0-0.0","83956440","wem/bandit_party_1","A11S43P3WNLIZD","either","3","305","","","","","","","0","1","0","","0.4179696435","0.6","0.2","0.4","0.8","0.2482590513","0.4179696435","0.3489042174","0.324938203","","","","","","","","","","","","","","74","J","1","","","115","main_expt","",""
"","bandit","197","540009","0.0-157.0-0.0","83956440","wem/bandit_party_1","A11S43P3WNLIZD","either","3","209","","","","","","","0","0","1","0.3466245191","","0.6","0.2","0.4","0.8","","","","","0.1992012358","0.4324393975","0.3466245191","0.3227512736","","","","","","","","","","75","K","2","","","116","main_expt","",""
"","bandit","198","541947","0.0-158.0-0.0","83956440","wem/bandit_party_1","A11S43P3WNLIZD","either","3","424","","","","","","","0","0","1","0.2585209305","","0.6","0.2","0.4","0.8","","","","","0.216355905","0.4290779421","0.3581754781","0.2585209305","","","","","","","","","","76","L","3","","","117","main_expt","",""
"","bandit","199","543851","0.0-159.0-0.0","83956440","wem/bandit_party_1","A11S43P3WNLIZD","either","3","388","","","","","","","0","0","1","0.1715453935","","0.6","0.2","0.4","0.8","","","","","0.1715453935","0.4459264202","0.283939031","0.2817260076","","","","","","","","","","72","H","0","img/none_selected.jpg","","118","main_expt","",""
"","bandit","200","545468","0.0-160.0-0.0","83956440","wem/bandit_party_1","A11S43P3WNLIZD","either","3","103","","","","","","","0","1","0","","0.436995295","0.6","0.2","0.4","0.8","0.1843456939","0.436995295","0.2992634423","0.328214026","","","","","","","","","","","","","","74","J","1","","","119","main_expt","",""
"","bandit","201","547309","0.0-161.0-0.0","83956440","wem/bandit_party_1","A11S43P3WNLIZD","either","3","325","","","","","","","0","1","0","","0.4151314625","0.6","0.2","0.4","0.8","0.1848061615","0.4151314625","0.1878150733","0.3355603121","","","","","","","","","","","","","","74","J","1","","","120","main_expt","",""
"","bandit","202","549252","0.0-162.0-0.0","83956440","wem/bandit_party_1","A11S43P3WNLIZD","either","3","430","","","","","","","0","0","1","0.3829587724","","0.6","0.2","0.4","0.8","","","","","0.1679578636","0.4384064527","0.1447458933","0.3829587724","","","","","","","","","","76","L","3","","","121","main_expt","",""
"","bandit","203","551260","0.0-163.0-0.0","83956440","wem/bandit_party_1","A11S43P3WNLIZD","either","3","492","","","","","","","0","0","1","","0.1176060398","0.6","0.2","0.4","0.8","0.197295971","0.4417589501","0.1176060398","0.3995678287","","","","","","","","","","","","","","75","K","2","","","122","main_expt","",""
"","bandit","204","553076","0.0-164.0-0.0","83956440","wem/bandit_party_1","A11S43P3WNLIZD","either","3","302","","","","","","","0","1","0","","0.4017154396","0.6","0.2","0.4","0.8","0.2184653352","0.4017154396","0.1097677055","0.3656739583","","","","","","","","","","","","","","74","J","1","","","123","main_expt","",""
"","bandit","205","554898","0.0-165.0-0.0","83956440","wem/bandit_party_1","A11S43P3WNLIZD","either","3","305","","","","","","","0","0","1","","0.3619070526","0.6","0.2","0.4","0.8","0.2147868977","0.3619070526","0.08048168986","0.3862549257","","","","","","","","","","","","","","74","J","1","","","124","main_expt","",""
"","bandit","206","556888","0.0-166.0-0.0","83956440","wem/bandit_party_1","A11S43P3WNLIZD","either","3","475","","","","","","","0","0","1","0.1667936559","","0.6","0.2","0.4","0.8","","","","","0.1667936559","0.3567490645","0.07842900555","0.3593796239","","","","","","","","","","72","H","0","img/none_selected.jpg","","125","main_expt","",""
"","bandit","207","558831","0.0-167.0-0.0","83956440","wem/bandit_party_1","A11S43P3WNLIZD","either","3","428","","","","","","","0","0","1","","0.1453295256","0.6","0.2","0.4","0.8","0.1453295256","0.3558473019","0.08318363027","0.3413194209","","","","","","","","","","","","","","72","H","0","img/none_selected.jpg","","126","main_expt","",""
"","bandit","208","560562","0.0-168.0-0.0","83956440","wem/bandit_party_1","A11S43P3WNLIZD","either","3","217","","","","","","","0","0","1","","0.3543069734","0.6","0.2","0.4","0.8","0.1635755653","0.3543069734","0.06812438963","0.3369929262","","","","","","","","","","","","","","74","J","1","","","127","main_expt","",""
"","bandit","209","562338","0.0-169.0-0.0","83956440","wem/bandit_party_1","A11S43P3WNLIZD","either","3","263","","","","","","","0","0","1","","0.08303766286","0.6","0.2","0.4","0.8","0.1872639566","0.3328374851","0.08303766286","0.2922989636","","","","","","","","","","","","","","75","K","2","","","128","main_expt","",""
"","bandit","210","564840","0.0-170.0-0.0","83956440","wem/bandit_party_1","A11S43P3WNLIZD","either","3","989","","","","","","","1","0","0","0.3095146075","","0.6","0.2","0.4","0.8","","","","","0.2032718864","0.3238683282","0.09047360051","0.3095146075","","","","","","","","","","76","L","3","","","129","main_expt","",""
"","bandit","211","566926","0.0-171.0-0.0","83956440","wem/bandit_party_1","A11S43P3WNLIZD","either","3","571","","","","","","","1","0","0","0.3068425872","","0.6","0.2","0.4","0.8","","","","","0.2025864764","0.2750329062","0.131542256","0.3068425872","","","","","","","","","","76","L","3","","","130","main_expt","",""
"","bandit","212","568885","0.0-172.0-0.0","83956440","wem/bandit_party_1","A11S43P3WNLIZD","either","3","445","","","","","","","0","0","1","","0.1492019489","0.6","0.2","0.4","0.8","0.2158584071","0.2751886228","0.1492019489","0.3112504131","","","","","","","","","","","","","","75","K","2","","","131","main_expt","",""
"","bandit","213","570402","0.0-173.0-0.0","83956440","wem/bandit_party_1","A11S43P3WNLIZD","either","3","3","","","","","","","0","0","1","","0.2729729886","0.6","0.2","0.4","0.8","0.2105840197","0.2729729886","0.1571188116","0.3595653039","","","","","","","","","","","","","","74","J","1","","","132","main_expt","",""
"","bandit","214","572271","0.0-174.0-0.0","83956440","wem/bandit_party_1","A11S43P3WNLIZD","either","3","355","","","","","","","0","0","1","","0.2328486735","0.6","0.2","0.4","0.8","0.2328486735","0.3248088544","0.2021073832","0.3873527377","","","","","","","","","","","","","","72","H","0","img/none_selected.jpg","","133","main_expt","",""
"","bandit","215","574123","0.0-175.0-0.0","83956440","wem/bandit_party_1","A11S43P3WNLIZD","either","3","337","","","","","","","0","0","1","","0.2589092944","0.6","0.2","0.4","0.8","0.2589092944","0.3596446835","0.2693148074","0.3973884711","","","","","","","","","","","","","","72","H","0","img/none_selected.jpg","","134","main_expt","",""
"","bandit","216","575874","0.0-176.0-0.0","83956440","wem/bandit_party_1","A11S43P3WNLIZD","either","3","235","","","","","","","0","0","1","","0.2637326353","0.6","0.2","0.4","0.8","0.2637326353","0.318377279","0.2625780805","0.4080523157","","","","","","","","","","","","","","72","H","0","img/none_selected.jpg","","135","main_expt","",""
"","bandit","217","577537","0.0-177.0-0.0","83956440","wem/bandit_party_1","A11S43P3WNLIZD","either","3","147","","","","","","","0","1","0","","0.3160887017","0.6","0.2","0.4","0.8","0.2718680576","0.3160887017","0.2981707722","0.4176503084","","","","","","","","","","","","","","74","J","1","","","136","main_expt","",""
"","bandit","218","579275","0.0-178.0-0.0","83956440","wem/bandit_party_1","A11S43P3WNLIZD","either","3","221","","","","","","","0","0","1","","0.2883225013","0.6","0.2","0.4","0.8","0.2919957672","0.2883225013","0.3148158286","0.3859803947","","","","","","","","","","","","","","74","J","1","","","137","main_expt","",""
"","bandit","219","581038","0.0-179.0-0.0","83956440","wem/bandit_party_1","A11S43P3WNLIZD","either","3","247","","","","","","","0","0","1","","0.3009152141","0.6","0.2","0.4","0.8","0.3193993407","0.3009152141","0.3111523267","0.358492916","","","","","","","","","","","","","","74","J","1","","","138","main_expt","",""
"","bandit","220","582647","0.0-180.0-0.0","83956440","wem/bandit_party_1","A11S43P3WNLIZD","either","3","93","","","","","","","0","1","0","","0.3034593298","0.6","0.2","0.4","0.8","0.3404434035","0.293720077","0.3034593298","0.3608756281","","","","","","","","","","","","","","75","K","2","","","139","main_expt","",""
"","bandit","221","584286","0.0-181.0-0.0","83956440","wem/bandit_party_1","A11S43P3WNLIZD","either","3","124","","","","","","","0","0","1","","0.2507495005","0.6","0.2","0.4","0.8","0.3278052243","0.286059761","0.2507495005","0.3421836092","","","","","","","","","","","","","","75","K","2","","","140","main_expt","",""
"","bandit","222","585994","0.0-182.0-0.0","83956440","wem/bandit_party_1","A11S43P3WNLIZD","either","3","191","","","","","","","1","0","0","0.3737340371","","0.6","0.2","0.4","0.8","","","","","0.3038906839","0.2931724706","0.2220694513","0.3737340371","","","","","","","","","","76","L","3","","","141","main_expt","",""
"","bandit","223","587786","0.0-183.0-0.0","83956440","wem/bandit_party_1","A11S43P3WNLIZD","either","3","278","","","","","","","0","0","1","0.3461121542","","0.6","0.2","0.4","0.8","","","","","0.2924195757","0.2182180164","0.2119249064","0.3461121542","","","","","","","","","","76","L","3","","","142","main_expt","",""
"","bandit","224","590455","0.0-184.0-0.0","83956440","wem/bandit_party_1","A11S43P3WNLIZD","either","3","1157","","","","","","","0","0","1","0.2816149275","","0.6","0.2","0.4","0.8","","","","","0.2816149275","0.2015475508","0.2665135591","0.3305931074","","","","","","","","","","72","H","0","img/none_selected.jpg","","143","main_expt","",""
"","bandit","225","592143","0.0-185.0-0.0","83956440","wem/bandit_party_1","A11S43P3WNLIZD","either","3","170","","","","","","","0","0","1","0.2355525614","","0.6","0.2","0.4","0.8","","","","","0.2355525614","0.2074070562","0.2854155153","0.3561039987","","","","","","","","","","72","H","0","img/none_selected.jpg","","144","main_expt","",""
"","bandit","226","593755","0.0-186.0-0.0","83956440","wem/bandit_party_1","A11S43P3WNLIZD","either","3","91","","","","","","","0","0","1","0.1415368311","","0.6","0.2","0.4","0.8","","","","","0.2185662272","0.1415368311","0.2521048148","0.3648023512","","","","","","","","","","74","J","1","","","145","main_expt","",""
"","bandit","227","595454","0.0-187.0-0.0","83956440","wem/bandit_party_1","A11S43P3WNLIZD","either","3","184","","","","","","","0","0","1","","0.3450315","0.6","0.2","0.4","0.8","0.2209315791","0.1549520657","0.2321266643","0.3450315","","","","","","","","","","","","","","76","L","3","","","146","main_expt","",""
"","bandit","228","596970","0.0-188.0-0.0","83956440","wem/bandit_party_1","A11S43P3WNLIZD","either","3","1","","","","","","","0","0","1","","0.2889766311","0.6","0.2","0.4","0.8","0.2889766311","0.1469310363","0.3159383216","0.2720321141","","","","","","","","","","","","","","72","H","0","img/none_selected.jpg","","147","main_expt","",""
"","bandit","229","598913","0.0-189.0-0.0","83956440","wem/bandit_party_1","A11S43P3WNLIZD","either","3","428","","","","","","","0","0","1","","0.1332828417","0.6","0.2","0.4","0.8","0.2859466156","0.1332828417","0.2673485129","0.2598972664","","","","","","","","","","","","","","74","J","1","","","148","main_expt","",""
"","bandit","230","600933","0.0-190.0-0.0","83956440","wem/bandit_party_1","A11S43P3WNLIZD","either","3","503","","","","","","","0","1","0","","0.3348600541","0.6","0.2","0.4","0.8","0.2588478233","0.1102010463","0.3348600541","0.2343157719","","","","","","","","","","","","","","75","K","2","","","149","main_expt","",""
"","bandit","231","602461","0.0-191.0-0.0","83956440","wem/bandit_party_1","A11S43P3WNLIZD","either","3","10","","","","","","","1","0","0","0.3659656834","","0.6","0.2","0.4","0.8","","","","","0.2224653457","0.1356103494","0.3659656834","0.2451363599","","","","","","","","","","75","K","2","","","150","main_expt","",""
"","bandit","232","603985","0.0-192.0-0.0","83956440","wem/bandit_party_1","A11S43P3WNLIZD","either","3","9","","","","","","","1","0","0","0.36397653","","0.6","0.2","0.4","0.8","","","","","0.2387237716","0.1621229287","0.36397653","0.2053737132","","","","","","","","","","75","K","2","","","151","main_expt","",""
"","bandit","233","606092","0.0-193.0-0.0","83956440","wem/bandit_party_1","A11S43P3WNLIZD","either","3","591","","","","","","","0","0","1","","0.3710672623","0.6","0.2","0.4","0.8","0.2519133504","0.1412745606","0.3710672623","0.2396242378","","","","","","","","","","","","","","75","K","2","","","152","main_expt","",""
"","bandit","234","608080","0.0-194.0-0.0","83956440","wem/bandit_party_1","A11S43P3WNLIZD","either","3","472","","","","","","","0","0","1","","0.2923277395","0.6","0.2","0.4","0.8","0.3078499427","0.1707580034","0.3828607765","0.2923277395","","","","","","","","","","","","","","76","L","3","","","153","main_expt","",""
"","bandit","235","609842","0.0-195.0-0.0","83956440","wem/bandit_party_1","A11S43P3WNLIZD","either","3","248","","","","","","","0","0","1","","0.3283820497","0.6","0.2","0.4","0.8","0.3283820497","0.1717455462","0.3526468527","0.3166515581","","","","","","","","","","","","","","72","H","0","img/none_selected.jpg","","154","main_expt","",""
"","bandit","236","611593","0.0-196.0-0.0","83956440","wem/bandit_party_1","A11S43P3WNLIZD","either","3","233","","","","","","","0","0","1","","0.1785539081","0.6","0.2","0.4","0.8","0.3303057687","0.1785539081","0.3865981945","0.3194616596","","","","","","","","","","","","","","74","J","1","","","155","main_expt","",""
"","bandit","237","613268","0.0-197.0-0.0","83956440","wem/bandit_party_1","A11S43P3WNLIZD","either","3","157","","","","","","","0","0","1","","0.4328422877","0.6","0.2","0.4","0.8","0.3178912443","0.2175815231","0.4328422877","0.3767011333","","","","","","","","","","","","","","75","K","2","","","156","main_expt","",""
"","bandit","238","614902","0.0-198.0-0.0","83956440","wem/bandit_party_1","A11S43P3WNLIZD","either","3","115","","","","","","","1","0","0","0.3853144204","","0.6","0.2","0.4","0.8","","","","","0.3236874272","0.216674397","0.4224906378","0.3853144204","","","","","","","","","","76","L","3","","","157","main_expt","",""
"","bandit","239","616540","0.0-199.0-0.0","83956440","wem/bandit_party_1","A11S43P3WNLIZD","either","3","121","","","","","","","1","0","0","0.3519128793","","0.6","0.2","0.4","0.8","","","","","0.3731337511","0.2184316938","0.4428847078","0.3519128793","","","","","","","","","","76","L","3","","","158","main_expt","",""
"","bandit","240","618410","0.0-200.0-0.0","83956440","wem/bandit_party_1","A11S43P3WNLIZD","either","3","354","","","","","","","0","0","1","0.3255157266","","0.6","0.2","0.4","0.8","","","","","0.3758107074","0.2603966468","0.4498083842","0.3255157266","","","","","","","","","","76","L","3","","","159","main_expt","",""
"","bandit","241","620030","0.0-201.0-0.0","83956440","wem/bandit_party_1","A11S43P3WNLIZD","either","3","102","","","","","","","1","0","0","0.4319550234","","0.6","0.2","0.4","0.8","","","","","0.3494215766","0.2242017374","0.4319550234","0.379238532","","","","","","","","","","75","K","2","","","160","main_expt","",""
"","bandit","242","621836","0.0-202.0-0.0","83956440","wem/bandit_party_1","A11S43P3WNLIZD","either","3","288","","","","","","","0","1","0","","0.4417514389","0.6","0.2","0.4","0.8","0.3327111917","0.2014027125","0.4417514389","0.3776335756","","","","","","","","","","","","","","75","K","2","","","161","main_expt","",""
"","bandit","243","623473","0.0-203.0-0.0","83956440","wem/bandit_party_1","A11S43P3WNLIZD","either","3","118","","","","","","","0","0","1","0.4081293495","","0.6","0.2","0.4","0.8","","","","","0.3171011618","0.2038621466","0.4081293495","0.2955751891","","","","","","","","","","75","K","2","","","162","main_expt","",""
"","bandit","244","625098","0.0-204.0-0.0","83956440","wem/bandit_party_1","A11S43P3WNLIZD","either","3","106","","","","","","","0","0","1","","0.1238136799","0.6","0.2","0.4","0.8","0.364183239","0.1238136799","0.4265776113","0.30851492","","","","","","","","","","","","","","74","J","1","","","163","main_expt","",""
"","bandit","245","626662","0.0-205.0-0.0","83956440","wem/bandit_party_1","A11S43P3WNLIZD","either","3","44","","","","","","","0","0","1","","0.1104941302","0.6","0.2","0.4","0.8","0.3917374524","0.1104941302","0.427472809","0.3074756362","","","","","","","","","","","","","","74","J","1","","","164","main_expt","",""
"","bandit","246","628299","0.0-206.0-0.0","83956440","wem/bandit_party_1","A11S43P3WNLIZD","either","3","119","","","","","","","0","0","1","","0.3629360172","0.6","0.2","0.4","0.8","0.3629360172","0.1099358877","0.4016343469","0.2743039079","","","","","","","","","","","","","","72","H","0","img/none_selected.jpg","","165","main_expt","",""
"","bandit","247","630043","0.0-207.0-0.0","83956440","wem/bandit_party_1","A11S43P3WNLIZD","either","3","225","","","","","","","1","0","0","0.3697042915","","0.6","0.2","0.4","0.8","","","","","0.3697042915","0.08082918558","0.3578169927","0.2900226329","","","","","","","","","","72","H","0","img/none_selected.jpg","","166","main_expt","",""
"","bandit","248","631665","0.0-208.0-0.0","83956440","wem/bandit_party_1","A11S43P3WNLIZD","either","3","104","","","","","","","0","0","1","","0.08539074978","0.6","0.2","0.4","0.8","0.3626443337","0.08539074978","0.3346076013","0.3444017494","","","","","","","","","","","","","","74","J","1","","","167","main_expt","",""
"","bandit","249","633236","0.0-209.0-0.0","83956440","wem/bandit_party_1","A11S43P3WNLIZD","either","3","51","","","","","","","0","0","1","0.36326211","","0.6","0.2","0.4","0.8","","","","","0.3488380128","0.1307687804","0.36326211","0.3934904689","","","","","","","","","","75","K","2","","","168","main_expt","",""
"","bandit","250","634975","0.0-210.0-0.0","83956440","wem/bandit_party_1","A11S43P3WNLIZD","either","3","221","","","","","","","0","0","1","0.3712778229","","0.6","0.2","0.4","0.8","","","","","0.3338465455","0.09435724838","0.3389060657","0.3712778229","","","","","","","","","","76","L","3","","","169","main_expt","",""
"","bandit","251","636674","0.0-211.0-0.0","83956440","wem/bandit_party_1","A11S43P3WNLIZD","either","3","182","","","","","","","0","1","0","","0.3820287301","0.6","0.2","0.4","0.8","0.3675902536","0.09371103674","0.3820287301","0.3348119161","","","","","","","","","","","","","","75","K","2","","","170","main_expt","",""
"","bandit","252","638245","0.0-212.0-0.0","83956440","wem/bandit_party_1","A11S43P3WNLIZD","either","3","55","","","","","","","1","0","0","0.3738350687","","0.6","0.2","0.4","0.8","","","","","0.3663425941","0.0912992704","0.3738350687","0.3697689907","","","","","","","","","","75","K","2","","","171","main_expt","",""
"","bandit","253","640126","0.0-213.0-0.0","83956440","wem/bandit_party_1","A11S43P3WNLIZD","either","3","365","","","","","","","0","0","1","0.3449486646","","0.6","0.2","0.4","0.8","","","","","0.3571019768","0.1053216192","0.3449486646","0.3438364448","","","","","","","","","","75","K","2","","","172","main_expt","",""
"","bandit","254","641693","0.0-214.0-0.0","83956440","wem/bandit_party_1","A11S43P3WNLIZD","either","3","48","","","","","","","0","0","1","","0.1119971747","0.6","0.2","0.4","0.8","0.383943734","0.1119971747","0.3754463001","0.4064517123","","","","","","","","","","","","","","74","J","1","","","173","main_expt","",""
"","bandit","255","643375","0.0-215.0-0.0","83956440","wem/bandit_party_1","A11S43P3WNLIZD","either","3","164","","","","","","","0","0","1","0.378453819","","0.6","0.2","0.4","0.8","","","","","0.378453819","0.1049574405","0.3983783957","0.4266345201","","","","","","","","","","72","H","0","img/none_selected.jpg","","174","main_expt","",""
"","bandit","256","644939","0.0-216.0-0.0","83956440","wem/bandit_party_1","A11S43P3WNLIZD","either","3","48","","","","","","","0","0","1","","0.3577460836","0.6","0.2","0.4","0.8","0.3577460836","0.07351671593","0.4176958341","0.4413212306","","","","","","","","","","","","","","72","H","0","img/none_selected.jpg","","175","main_expt","",""
"","bandit","257","646654","0.0-217.0-0.0","83956440","wem/bandit_party_1","A11S43P3WNLIZD","either","3","198","","","","","","","0","0","1","0.06097876817","","0.6","0.2","0.4","0.8","","","","","0.3346789668","0.06097876817","0.4336280271","0.438548454","","","","","","","","","","74","J","1","","","176","main_expt","",""
"","bandit","258","648194","0.0-218.0-0.0","83956440","wem/bandit_party_1","A11S43P3WNLIZD","either","3","22","","","","","","","0","0","1","0.3720341948","","0.6","0.2","0.4","0.8","","","","","0.3720341948","0.05873143133","0.3863917124","0.4350726265","","","","","","","","","","72","H","0","img/none_selected.jpg","","177","main_expt","",""
"","bandit","259","650459","0.0-219.0-0.0","83956440","wem/bandit_party_1","A11S43P3WNLIZD","either","3","750","","","","","","","0","0","1","","0.07829718294","0.6","0.2","0.4","0.8","0.4243236705","0.07829718294","0.3826512014","0.4029859975","","","","","","","","","","","","","","74","J","1","","","178","main_expt","",""
"","bandit","260","653140","0.0-220.0-0.0","83956440","wem/bandit_party_1","A11S43P3WNLIZD","either","3","1164","","","","","","","0","1","0","","0.3681046487","0.6","0.2","0.4","0.8","0.4396564102","0.05868413977","0.3681046487","0.3738585124","","","","","","","","","","","","","","75","K","2","","","179","main_expt","",""
"","bandit","261","656262","0.0-221.0-0.0","83956440","wem/bandit_party_1","A11S43P3WNLIZD","either","3","1604","","","","","","","0","0","1","","0.374340785","0.6","0.2","0.4","0.8","0.4501825932","0.04540529238","0.374340785","0.3884150149","","","","","","","","","","","","","","75","K","2","","","180","main_expt","",""
"","bandit","262","658405","0.0-222.0-0.0","83956440","wem/bandit_party_1","A11S43P3WNLIZD","either","3","627","","","","","","","0","0","1","","0.3844034803","0.6","0.2","0.4","0.8","0.4527537228","0.04810206047","0.3844034803","0.3977335033","","","","","","","","","","","","","","75","K","2","","","181","main_expt","",""
"","bandit","263","661636","0.0-223.0-0.0","83956440","wem/bandit_party_1","A11S43P3WNLIZD","either","3","1714","","","","","","","0","0","1","","0.3569363444","0.6","0.2","0.4","0.8","0.4733821952","0.0564969073","0.3569363444","0.4194204302","","","","","","","","","","","","","","75","K","2","","","182","main_expt","",""
"","bandit","264","663771","0.0-224.0-0.0","83956440","wem/bandit_party_1","A11S43P3WNLIZD","either","3","616","","","","","","","0","0","1","","0.3930074682","0.6","0.2","0.4","0.8","0.4741352064","0.06674959941","0.3930074682","0.4050300101","","","","","","","","","","","","","","75","K","2","","","183","main_expt","",""
"","bandit","265","665804","0.0-225.0-0.0","83956440","wem/bandit_party_1","A11S43P3WNLIZD","either","3","515","","","","","","","0","0","1","0.4272992256","","0.6","0.2","0.4","0.8","","","","","0.4835015011","0.05730522946","0.4105724965","0.4272992256","","","","","","","","","","76","L","3","","","184","main_expt","",""
"","bandit","266","667640","0.0-226.0-0.0","83956440","wem/bandit_party_1","A11S43P3WNLIZD","either","3","318","","","","","","","1","0","0","0.4230276401","","0.6","0.2","0.4","0.8","","","","","0.4907566516","0.0759668512","0.4230276401","0.4213026748","","","","","","","","","","75","K","2","","","185","main_expt","",""
"","bandit","267","669367","0.0-227.0-0.0","83956440","wem/bandit_party_1","A11S43P3WNLIZD","either","3","208","","","","","","","0","0","1","","0.4243078066","0.6","0.2","0.4","0.8","0.4777100538","0.0736669194","0.4243078066","0.3729626057","","","","","","","","","","","","","","75","K","2","","","186","main_expt","",""
"","bandit","268","670945","0.0-228.0-0.0","83956440","wem/bandit_party_1","A11S43P3WNLIZD","either","3","57","","","","","","","0","0","1","","0.1020870739","0.6","0.2","0.4","0.8","0.4751658893","0.1020870739","0.419104652","0.4022080601","","","","","","","","","","","","","","74","J","1","","","187","main_expt","",""
"","bandit","269","672571","0.0-229.0-0.0","83956440","wem/bandit_party_1","A11S43P3WNLIZD","either","3","108","","","","","","","0","0","1","0.4711403756","","0.6","0.2","0.4","0.8","","","","","0.4711403756","0.110066606","0.3917910895","0.4218987807","","","","","","","","","","72","H","0","img/none_selected.jpg","","188","main_expt","",""
"","bandit","270","674699","0.0-230.0-0.0","83956440","wem/bandit_party_1","A11S43P3WNLIZD","either","3","609","","","","","","","0","0","1","","0.4848283219","0.6","0.2","0.4","0.8","0.4848283219","0.1616324423","0.3696037293","0.4284519853","","","","","","","","","","","","","","72","H","0","img/none_selected.jpg","","189","main_expt","",""
"","bandit","271","676289","0.0-231.0-0.0","83956440","wem/bandit_party_1","A11S43P3WNLIZD","either","3","71","","","","","","","0","0","1","","0.1401199573","0.6","0.2","0.4","0.8","0.4906713727","0.1401199573","0.3722688899","0.4104863902","","","","","","","","","","","","","","74","J","1","","","190","main_expt","",""
"","bandit","272","677816","0.0-232.0-0.0","83956440","wem/bandit_party_1","A11S43P3WNLIZD","either","3","9","","","","","","","0","0","1","","0.3956575009","0.6","0.2","0.4","0.8","0.4944082075","0.1782786715","0.3956575009","0.4071825693","","","","","","","","","","","","","","75","K","2","","","191","main_expt","",""
"","bandit","273","679414","0.0-233.0-0.0","83956440","wem/bandit_party_1","A11S43P3WNLIZD","either","3","78","","","","","","","0","0","1","0.4172763132","","0.6","0.2","0.4","0.8","","","","","0.4922337742","0.203517815","0.3843500594","0.4172763132","","","","","","","","","","76","L","3","","","192","main_expt","",""
"","bandit","274","680959","0.0-234.0-0.0","83956440","wem/bandit_party_1","A11S43P3WNLIZD","either","3","27","","","","","","","0","0","1","","0.3801723293","0.6","0.2","0.4","0.8","0.4887356563","0.172030281","0.3801723293","0.3965334946","","","","","","","","","","","","","","75","K","2","","","193","main_expt","",""
"","bandit","275","682477","0.0-235.0-0.0","83956440","wem/bandit_party_1","A11S43P3WNLIZD","either","3","1","","","","","","","0","0","1","0.1813301739","","0.6","0.2","0.4","0.8","","","","","0.4850955297","0.1813301739","0.3871645121","0.383316574","","","","","","","","","","74","J","1","","","194","main_expt","",""
"","bandit","276","684108","0.0-236.0-0.0","83956440","wem/bandit_party_1","A11S43P3WNLIZD","either","3","111","","","","","","","0","1","0","","0.4848341758","0.6","0.2","0.4","0.8","0.4848341758","0.2284295163","0.3633903175","0.3965345796","","","","","","","","","","","","","","72","H","0","img/none_selected.jpg","","195","main_expt","",""
"","bandit","277","685811","0.0-237.0-0.0","83956440","wem/bandit_party_1","A11S43P3WNLIZD","either","3","185","","","","","","","0","0","1","0.490049139","","0.6","0.2","0.4","0.8","","","","","0.490049139","0.2501246714","0.3811675741","0.3978469093","","","","","","","","","","72","H","0","img/none_selected.jpg","","196","main_expt","",""
"","bandit","278","687328","0.0-238.0-0.0","83956440","wem/bandit_party_1","A11S43P3WNLIZD","either","3","0","","","","","","","0","0","1","","0.4912643012","0.6","0.2","0.4","0.8","0.4912643012","0.3150809007","0.3487868089","0.3172926233","","","","","","","","","","","","","","72","H","0","img/none_selected.jpg","","197","main_expt","",""
"","bandit","279","688952","0.0-239.0-0.0","83956440","wem/bandit_party_1","A11S43P3WNLIZD","either","3","108","","","","","","","0","0","1","0.4793615714","","0.6","0.2","0.4","0.8","","","","","0.4793615714","0.3442077965","0.2986771554","0.3113170709","","","","","","","","","","72","H","0","img/none_selected.jpg","","198","main_expt","",""
"","bandit","280","690622","0.0-240.0-0.0","83956440","wem/bandit_party_1","A11S43P3WNLIZD","either","3","152","","","","","","","0","0","1","","0.3675051223","0.6","0.2","0.4","0.8","0.4661622676","0.3675051223","0.3481418533","0.3066116159","","","","","","","","","","","","","","74","J","1","","","199","main_expt","",""
"","bandit","281","692197","0.0-241.0-0.0","83956440","wem/bandit_party_1","A11S43P3WNLIZD","either","3","57","","","","","","","1","0","0","0.353319573","","0.6","0.2","0.4","0.8","","","","","0.4479238565","0.3044821291","0.353319573","0.2521122026","","","","","","","","","","75","K","2","","","200","main_expt","",""
"","bandit","282","695773","0.0-242.0-0.0","83956440","wem/bandit_party_1","A11S43P3WNLIZD","either","3","2057","","","","","","","0","0","1","","0.3676338631","0.6","0.2","0.4","0.8","0.4429166455","0.3013824411","0.3676338631","0.2679963248","","","","","","","","","","","","","","75","K","2","","","201","main_expt","",""
"","bandit","283","697321","0.0-243.0-0.0","83956440","wem/bandit_party_1","A11S43P3WNLIZD","either","3","36","","","","","","","0","0","1","0.2076546236","","0.6","0.2","0.4","0.8","","","","","0.442820363","0.3001954661","0.311657493","0.2076546236","","","","","","","","","","76","L","3","","","202","main_expt","",""
"","bandit","284","699069","0.0-244.0-0.0","83956440","wem/bandit_party_1","A11S43P3WNLIZD","either","3","231","","","","","","","0","0","1","","0.1881707852","0.6","0.2","0.4","0.8","0.4539008368","0.3189156814","0.3364041998","0.1881707852","","","","","","","","","","","","","","76","L","3","","","203","main_expt","",""
"","bandit","285","700635","0.0-245.0-0.0","83956440","wem/bandit_party_1","A11S43P3WNLIZD","either","3","47","","","","","","","0","0","1","0.3148670147","","0.6","0.2","0.4","0.8","","","","","0.4163307037","0.3162062407","0.3148670147","0.2057853427","","","","","","","","","","75","K","2","","","204","main_expt","",""
"","bandit","286","702268","0.0-246.0-0.0","83956440","wem/bandit_party_1","A11S43P3WNLIZD","either","3","113","","","","","","","0","1","0","","0.347278619","0.6","0.2","0.4","0.8","0.4045388199","0.347278619","0.3293187519","0.2564451259","","","","","","","","","","","","","","74","J","1","","","205","main_expt","",""
"","bandit","287","703970","0.0-247.0-0.0","83956440","wem/bandit_party_1","A11S43P3WNLIZD","either","3","183","","","","","","","0","0","1","","0.2970129147","0.6","0.2","0.4","0.8","0.4083422121","0.2970129147","0.2705077244","0.3082896296","","","","","","","","","","","","","","74","J","1","","","206","main_expt","",""
"","bandit","288","705547","0.0-248.0-0.0","83956440","wem/bandit_party_1","A11S43P3WNLIZD","either","3","58","","","","","","","0","0","1","","0.4033585138","0.6","0.2","0.4","0.8","0.4033585138","0.3331481178","0.3083591011","0.3235103938","","","","","","","","","","","","","","72","H","0","img/none_selected.jpg","","207","main_expt","",""
"","bandit","289","707125","0.0-249.0-0.0","83956440","wem/bandit_party_1","A11S43P3WNLIZD","either","3","59","","","","","","","0","0","1","","0.3753320851","0.6","0.2","0.4","0.8","0.3753320851","0.3195917859","0.2489273718","0.3563539536","","","","","","","","","","","","","","72","H","0","img/none_selected.jpg","","208","main_expt","",""
"","bandit","290","708733","0.0-250.0-0.0","83956440","wem/bandit_party_1","A11S43P3WNLIZD","either","3","89","","","","","","","1","0","0","0.3642345195","","0.6","0.2","0.4","0.8","","","","","0.3864970555","0.3642345195","0.2224321457","0.3821305916","","","","","","","","","","74","J","1","","","209","main_expt","",""
"","bandit","291","710275","0.0-251.0-0.0","83956440","wem/bandit_party_1","A11S43P3WNLIZD","either","3","21","","","","","","","0","0","1","","0.3518797164","0.6","0.2","0.4","0.8","0.3894881908","0.3518797164","0.2184729634","0.4067483812","","","","","","","","","","","","","","74","J","1","","","210","main_expt","",""
"","bandit","292","711997","0.0-252.0-0.0","83956440","wem/bandit_party_1","A11S43P3WNLIZD","either","3","201","","","","","","","0","0","1","0.2178464352","","0.6","0.2","0.4","0.8","","","","","0.4052823736","0.3781537602","0.2178464352","0.376825818","","","","","","","","","","75","K","2","","","211","main_expt","",""
"","bandit","293","713664","0.0-253.0-0.0","83956440","wem/bandit_party_1","A11S43P3WNLIZD","either","3","148","","","","","","","0","0","1","0.3481764155","","0.6","0.2","0.4","0.8","","","","","0.3783189977","0.3773353051","0.1644702768","0.3481764155","","","","","","","","","","76","L","3","","","212","main_expt","",""
"","bandit","294","715295","0.0-254.0-0.0","83956440","wem/bandit_party_1","A11S43P3WNLIZD","either","3","111","","","","","","","0","0","1","0.3804187243","","0.6","0.2","0.4","0.8","","","","","0.3804187243","0.3448860985","0.1271660564","0.3239198888","","","","","","","","","","72","H","0","img/none_selected.jpg","","213","main_expt","",""
"","bandit","295","716939","0.0-255.0-0.0","83956440","wem/bandit_party_1","A11S43P3WNLIZD","either","3","125","","","","","","","0","1","0","","0.3622000499","0.6","0.2","0.4","0.8","0.3964056757","0.3622000499","0.1368129038","0.3592643085","","","","","","","","","","","","","","74","J","1","","","214","main_expt","",""
"","bandit","296","718469","0.0-256.0-0.0","83956440","wem/bandit_party_1","A11S43P3WNLIZD","either","3","10","","","","","","","0","0","1","","0.3408682726","0.6","0.2","0.4","0.8","0.3939862607","0.3408682726","0.07615368859","0.3482739819","","","","","","","","","","","","","","74","J","1","","","215","main_expt","",""
"","bandit","297","720080","0.0-257.0-0.0","83956440","wem/bandit_party_1","A11S43P3WNLIZD","either","3","90","","","","","","","0","1","0","","0.07711559412","0.6","0.2","0.4","0.8","0.4062496234","0.328819006","0.07711559412","0.2972527025","","","","","","","","","","","","","","75","K","2","","","216","main_expt","",""
"","bandit","298","721779","0.0-258.0-0.0","83956440","wem/bandit_party_1","A11S43P3WNLIZD","either","3","179","","","","","","","0","0","1","0.07728173513","","0.6","0.2","0.4","0.8","","","","","0.3440498305","0.3229374792","0.07728173513","0.2850944341","","","","","","","","","","75","K","2","","","217","main_expt","",""
"","bandit","299","723423","0.0-259.0-0.0","83956440","wem/bandit_party_1","A11S43P3WNLIZD","either","3","125","","","","","","","1","0","0","0.2483413171","","0.6","0.2","0.4","0.8","","","","","0.3198020565","0.3616220652","0.07919919155","0.2483413171","","","","","","","","","","76","L","3","","","218","main_expt","",""
"","bandit","300","724998","0.0-260.0-0.0","83956440","wem/bandit_party_1","A11S43P3WNLIZD","either","3","56","","","","","","","0","0","1","0.2680513607","","0.6","0.2","0.4","0.8","","","","","0.3078290176","0.3591176528","0.1270410367","0.2680513607","","","","","","","","","","76","L","3","","","219","main_expt","",""
"","bandit","301","726663","0.0-261.0-0.0","83956440","wem/bandit_party_1","A11S43P3WNLIZD","either","3","145","","","","","","","0","0","1","","0.1117499599","0.6","0.2","0.4","0.8","0.2961895162","0.2758994579","0.1117499599","0.304668496","","","","","","","","","","","","","","75","K","2","","","220","main_expt","",""
"","bandit","302","728353","0.0-262.0-0.0","83956440","wem/bandit_party_1","A11S43P3WNLIZD","either","3","171","","","","","","","0","0","1","0.3119987931","","0.6","0.2","0.4","0.8","","","","","0.2658603678","0.3119987931","0.1186324211","0.2773284289","","","","","","","","","","74","J","1","","","221","main_expt","",""
"","bandit","303","730033","0.0-263.0-0.0","83956440","wem/bandit_party_1","A11S43P3WNLIZD","either","3","159","","","","","","","0","0","1","","0.274695037","0.6","0.2","0.4","0.8","0.274695037","0.3106374463","0.1141050397","0.2152506718","","","","","","","","","","","","","","72","H","0","img/none_selected.jpg","","222","main_expt","",""
"","bandit","304","731755","0.0-264.0-0.0","83956440","wem/bandit_party_1","A11S43P3WNLIZD","either","3","203","","","","","","","0","1","0","","0.3131570504","0.6","0.2","0.4","0.8","0.2210940289","0.3131570504","0.1007228699","0.2445797097","","","","","","","","","","","","","","74","J","1","","","223","main_expt","",""
"","bandit","305","733460","0.0-265.0-0.0","83956440","wem/bandit_party_1","A11S43P3WNLIZD","either","3","187","","","","","","","0","0","1","","0.3025994915","0.6","0.2","0.4","0.8","0.1843933297","0.3025994915","0.1380584308","0.2559263424","","","","","","","","","","","","","","74","J","1","","","224","main_expt","",""
"","bandit","306","735123","0.0-266.0-0.0","83956440","wem/bandit_party_1","A11S43P3WNLIZD","either","3","144","","","","","","","1","0","0","0.1393521225","","0.6","0.2","0.4","0.8","","","","","0.212211923","0.2994132709","0.1393521225","0.2702522324","","","","","","","","","","75","K","2","","","225","main_expt","",""
"","bandit","307","736814","0.0-267.0-0.0","83956440","wem/bandit_party_1","A11S43P3WNLIZD","either","3","172","","","","","","","0","0","1","","0.2094269877","0.6","0.2","0.4","0.8","0.2315036379","0.2866794375","0.2094269877","0.2646860425","","","","","","","","","","","","","","75","K","2","","","226","main_expt","",""
"","bandit","308","738341","0.0-268.0-0.0","83956440","wem/bandit_party_1","A11S43P3WNLIZD","either","3","1","","","","","","","0","0","1","0.269556559","","0.6","0.2","0.4","0.8","","","","","0.2646353212","0.2299222882","0.2959232149","0.269556559","","","","","","","","","","76","L","3","","","227","main_expt","",""
"","bandit","309","740007","0.0-269.0-0.0","83956440","wem/bandit_party_1","A11S43P3WNLIZD","either","3","147","","","","","","","0","0","1","0.2498152532","","0.6","0.2","0.4","0.8","","","","","0.2443517867","0.2991813551","0.374355758","0.2498152532","","","","","","","","","","76","L","3","","","228","main_expt","",""
"","bandit","310","741689","0.0-270.0-0.0","83956440","wem/bandit_party_1","A11S43P3WNLIZD","either","3","161","","","","","","","0","1","0","","0.3876740502","0.6","0.2","0.4","0.8","0.2569692975","0.3295538921","0.3876740502","0.2495566458","","","","","","","","","","","","","","75","K","2","","","229","main_expt","",""
"","bandit","311","743213","0.0-271.0-0.0","83956440","wem/bandit_party_1","A11S43P3WNLIZD","either","3","7","","","","","","","0","0","1","","0.3341674595","0.6","0.2","0.4","0.8","0.2490290172","0.2713593359","0.3341674595","0.2134382902","","","","","","","","","","","","","","75","K","2","","","230","main_expt","",""
"","bandit","312","744888","0.0-272.0-0.0","83956440","wem/bandit_party_1","A11S43P3WNLIZD","either","3","156","","","","","","","0","0","1","","0.2746975787","0.6","0.2","0.4","0.8","0.2368643707","0.2746975787","0.3558281537","0.2099205747","","","","","","","","","","","","","","74","J","1","","","231","main_expt","",""
