"consent","trial_type","trial_index","time_elapsed","internal_node_id","subjID","study","MID","cond","drift","rt","responses","button_pressed","key_press","like","value","connected","gems","bombs","no_reward","GemPrChosen","BombPrChosen","GainOverPainPr_0","GainOverPainPr_1","GainOverPainPr_2","GainOverPainPr_3","LosePr_0","LosePr_1","LosePr_2","LosePr_3","WinPr_0","WinPr_1","WinPr_2","WinPr_3","Q0","Q1","Q2","gender","age","ethnicity","label","expt_phase","target","respCharCode","respKey","respChoiceNum","respChoice","practice","trial_counter","trial_label","Q0_index"
"GDM/GDM_behavioral_consent_30min_online.html","consent","0","48328","0.0-0.0","86164235","wem/bandit_party_1","A191V7PT3DQKDP","either","3","","","","","","","","","","","","","","","","","","","","","","","","","","","","","","","","","","","","","","","","",""
"","survey-text","1","56514","0.0-1.0","86164235","wem/bandit_party_1","A191V7PT3DQKDP","either","3","7180","{""Q0"":""A191V7PT3DQKDP""}","","","","","","","","","","","","","","","","","","","","","","","","","","","","","","","","","","","","","","",""
"","button-response","2","61416","0.0-2.0","86164235","wem/bandit_party_1","A191V7PT3DQKDP","either","3","3898","","1","","","","","","","","","","","","","","","","","","","","","","","","","","","","","","","","","","","","","",""
"","text-replacement","3","81046","0.0-3.0","86164235","wem/bandit_party_1","A191V7PT3DQKDP","either","3","18626","","","32","","","","","","","","","","","","","","","","","","","","","","","","","","","","","","","","","","","","",""
"","text-replacement","4","97973","0.0-4.0","86164235","wem/bandit_party_1","A191V7PT3DQKDP","either","3","16926","","","32","","","","","","","","","","","","","","","","","","","","","","","","","","","","","","","","","","","","",""
"","identification","5","111465","0.0-6.0-0.0","86164235","wem/bandit_party_1","A191V7PT3DQKDP","either","3","13480","","","","3","3","3","","","","","","","","","","","","","","","","","","","","","","","","pre","identification_pre","the Republican party","","","","","","","",""
"","identification","6","119619","0.0-6.0-1.0","86164235","wem/bandit_party_1","A191V7PT3DQKDP","either","3","7142","","","","4","4","4","","","","","","","","","","","","","","","","","","","","","","","","pre","identification_pre","the Democratic Party","","","","","","","",""
"","text-replacement","7","131813","0.0-7.0","86164235","wem/bandit_party_1","A191V7PT3DQKDP","either","3","11191","","","32","","","","","","","","","","","","","","","","","","","","","","","","","","","","","","","","","","","","",""
"","text-replacement","8","141871","0.0-8.0","86164235","wem/bandit_party_1","A191V7PT3DQKDP","either","3","10057","","","32","","","","","","","","","","","","","","","","","","","","","","","","","","","","","","","","","","","","",""
"","text-replacement","9","156799","0.0-9.0","86164235","wem/bandit_party_1","A191V7PT3DQKDP","either","3","14926","","","32","","","","","","","","","","","","","","","","","","","","","","","","","","","","","","","","","","","","",""
"","text-replacement","10","161926","0.0-10.0","86164235","wem/bandit_party_1","A191V7PT3DQKDP","either","3","5126","","","32","","","","","","","","","","","","","","","","","","","","","","","","","","","","","","","","","","","","",""
"","text-replacement","11","166983","0.0-11.0","86164235","wem/bandit_party_1","A191V7PT3DQKDP","either","3","5057","","","32","","","","","","","","","","","","","","","","","","","","","","","","","","","","","","","","","","","","",""
"","bandit","12","171292","0.0-12.0-0.0","86164235","wem/bandit_party_1","A191V7PT3DQKDP","either","3","2803","","","","","","","0","0","1","0","0","","","","","0","","","","0","","","","","","","","","","","","","74","J","0","img/none_selected_demo.jpg","true","0","",""
"","bandit","13","173659","0.0-13.0-0.0","86164235","wem/bandit_party_1","A191V7PT3DQKDP","either","3","863","","","","","","","0","0","1","0","0","","","","","0","","","","0","","","","","","","","","","","","","75","K","0","img/none_selected_demo.jpg","true","0","",""
"","text-replacement","14","182987","0.0-14.0","86164235","wem/bandit_party_1","A191V7PT3DQKDP","either","3","9326","","","32","","","","","","","","","","","","","","","","","","","","","","","","","","","","","","","","","","","","",""
"","text-replacement","15","184312","0.0-15.0","86164235","wem/bandit_party_1","A191V7PT3DQKDP","either","3","1324","","","32","","","","","","","","","","","","","","","","","","","","","","","","","","","","","","","","","","","","",""
"","text-replacement","16","193531","0.0-16.0","86164235","wem/bandit_party_1","A191V7PT3DQKDP","either","3","9217","","","32","","","","","","","","","","","","","","","","","","","","","","","","","","","","","","","","","","","","",""
"","text-replacement","17","197681","0.0-17.0","86164235","wem/bandit_party_1","A191V7PT3DQKDP","either","3","4149","","","32","","","","","","","","","","","","","","","","","","","","","","","","","","","","","","","","","","","","",""
"","bandit","18","200263","0.0-18.0-0.0","86164235","wem/bandit_party_1","A191V7PT3DQKDP","either","3","1076","","","","","","","1","0","0","0.8","","0.5","0.5","","","","","","","0.8","0.2","","","","","","","","","","","","74","J","0","img/none_selected_demo.jpg","true","0","80_20_practice",""
"","bandit","19","202286","0.0-18.0-1.0","86164235","wem/bandit_party_1","A191V7PT3DQKDP","either","3","519","","","","","","","0","0","1","0.2","","0.5","0.5","","","","","","","0.8","0.2","","","","","","","","","","","","75","K","1","","true","0","80_20_practice",""
"","bandit","20","204223","0.0-18.0-2.0","86164235","wem/bandit_party_1","A191V7PT3DQKDP","either","3","432","","","","","","","0","0","1","0.2","","0.5","0.5","","","","","","","0.8","0.2","","","","","","","","","","","","75","K","1","","true","0","80_20_practice",""
"","bandit","21","206001","0.0-18.0-3.0","86164235","wem/bandit_party_1","A191V7PT3DQKDP","either","3","275","","","","","","","1","0","0","0.8","","0.5","0.5","","","","","","","0.8","0.2","","","","","","","","","","","","74","J","0","img/none_selected_demo.jpg","true","0","80_20_practice",""
"","bandit","22","207824","0.0-18.0-4.0","86164235","wem/bandit_party_1","A191V7PT3DQKDP","either","3","317","","","","","","","0","0","1","","0.8","0.5","0.5","","","0.8","0.2","","","","","","","","","","","","","","","","74","J","0","img/none_selected_demo.jpg","true","0","80_20_practice",""
"","bandit","23","209870","0.0-18.0-5.0","86164235","wem/bandit_party_1","A191V7PT3DQKDP","either","3","542","","","","","","","0","0","1","","0.8","0.5","0.5","","","0.8","0.2","","","","","","","","","","","","","","","","74","J","0","img/none_selected_demo.jpg","true","0","80_20_practice",""
"","bandit","24","211846","0.0-18.0-6.0","86164235","wem/bandit_party_1","A191V7PT3DQKDP","either","3","472","","","","","","","0","0","1","0.2","","0.5","0.5","","","","","","","0.8","0.2","","","","","","","","","","","","75","K","1","","true","0","80_20_practice",""
"","bandit","25","213614","0.0-18.0-7.0","86164235","wem/bandit_party_1","A191V7PT3DQKDP","either","3","264","","","","","","","0","0","1","","0.8","0.5","0.5","","","0.8","0.2","","","","","","","","","","","","","","","","74","J","0","img/none_selected_demo.jpg","true","0","80_20_practice",""
"","bandit","26","215398","0.0-18.0-8.0","86164235","wem/bandit_party_1","A191V7PT3DQKDP","either","3","279","","","","","","","0","1","0","","0.8","0.5","0.5","","","0.8","0.2","","","","","","","","","","","","","","","","74","J","0","img/none_selected_demo.jpg","true","0","80_20_practice",""
"","bandit","27","217225","0.0-18.0-9.0","86164235","wem/bandit_party_1","A191V7PT3DQKDP","either","3","322","","","","","","","0","0","1","","0.2","0.5","0.5","","","0.8","0.2","","","","","","","","","","","","","","","","75","K","1","","true","0","80_20_practice",""
"","bandit","28","219054","0.0-18.0-10.0","86164235","wem/bandit_party_1","A191V7PT3DQKDP","either","3","325","","","","","","","0","0","1","","0.2","0.5","0.5","","","0.8","0.2","","","","","","","","","","","","","","","","75","K","1","","true","0","80_20_practice",""
"","bandit","29","220654","0.0-18.0-11.0","86164235","wem/bandit_party_1","A191V7PT3DQKDP","either","3","93","","","","","","","1","0","0","0.8","","0.5","0.5","","","","","","","0.8","0.2","","","","","","","","","","","","74","J","0","img/none_selected_demo.jpg","true","0","80_20_practice",""
"","bandit","30","222479","0.0-18.0-12.0","86164235","wem/bandit_party_1","A191V7PT3DQKDP","either","3","319","","","","","","","0","0","1","0.8","","0.5","0.5","","","","","","","0.8","0.2","","","","","","","","","","","","74","J","0","img/none_selected_demo.jpg","true","0","80_20_practice",""
"","bandit","31","224255","0.0-18.0-13.0","86164235","wem/bandit_party_1","A191V7PT3DQKDP","either","3","271","","","","","","","1","0","0","0.8","","0.5","0.5","","","","","","","0.8","0.2","","","","","","","","","","","","74","J","0","img/none_selected_demo.jpg","true","0","80_20_practice",""
"","bandit","32","226143","0.0-18.0-14.0","86164235","wem/bandit_party_1","A191V7PT3DQKDP","either","3","383","","","","","","","0","0","1","","0.8","0.5","0.5","","","0.8","0.2","","","","","","","","","","","","","","","","74","J","0","img/none_selected_demo.jpg","true","0","80_20_practice",""
"","bandit","33","227960","0.0-18.0-15.0","86164235","wem/bandit_party_1","A191V7PT3DQKDP","either","3","310","","","","","","","0","1","0","","0.8","0.5","0.5","","","0.8","0.2","","","","","","","","","","","","","","","","74","J","0","img/none_selected_demo.jpg","true","0","80_20_practice",""
"","bandit","34","229831","0.0-18.0-16.0","86164235","wem/bandit_party_1","A191V7PT3DQKDP","either","3","366","","","","","","","0","1","0","","0.8","0.5","0.5","","","0.8","0.2","","","","","","","","","","","","","","","","74","J","0","img/none_selected_demo.jpg","true","0","80_20_practice",""
"","bandit","35","231662","0.0-18.0-17.0","86164235","wem/bandit_party_1","A191V7PT3DQKDP","either","3","327","","","","","","","0","1","0","","0.8","0.5","0.5","","","0.8","0.2","","","","","","","","","","","","","","","","74","J","0","img/none_selected_demo.jpg","true","0","80_20_practice",""
"","bandit","36","233463","0.0-18.0-18.0","86164235","wem/bandit_party_1","A191V7PT3DQKDP","either","3","297","","","","","","","1","0","0","0.8","","0.5","0.5","","","","","","","0.8","0.2","","","","","","","","","","","","74","J","0","img/none_selected_demo.jpg","true","0","80_20_practice",""
"","bandit","37","235262","0.0-18.0-19.0","86164235","wem/bandit_party_1","A191V7PT3DQKDP","either","3","295","","","","","","","0","0","1","0.8","","0.5","0.5","","","","","","","0.8","0.2","","","","","","","","","","","","74","J","0","img/none_selected_demo.jpg","true","0","80_20_practice",""
"","text-replacement","38","242656","0.0-19.0","86164235","wem/bandit_party_1","A191V7PT3DQKDP","either","3","7392","","","32","","","","","","","","","","","","","","","","","","","","","","","","","","","","","","","","","","","","",""
"","bandit","39","246114","0.0-20.0-0.0","86164235","wem/bandit_party_1","A191V7PT3DQKDP","either","3","1952","","","","","","","1","0","0","1","0","","","","","0","1","","","1","0","","","","","","","","","","","","74","J","0","img/none_selected_demo.jpg","true","0","",""
"","text-replacement","40","375873","0.0-21.0","86164235","wem/bandit_party_1","A191V7PT3DQKDP","either","3","129757","","","32","","","","","","","","","","","","","","","","","","","","","","","","","","","","","","","","","","","","",""
"","text-replacement","41","379792","0.0-22.0","86164235","wem/bandit_party_1","A191V7PT3DQKDP","either","3","3917","","","32","","","","","","","","","","","","","","","","","","","","","","","","","","","","","","","","","","","","",""
"","text-replacement","42","495390","0.0-23.0","86164235","wem/bandit_party_1","A191V7PT3DQKDP","either","3","115596","","","32","","","","","","","","","","","","","","","","","","","","","","","","","","","","","","","","","","","","",""
"","text-replacement","43","498883","0.0-24.0","86164235","wem/bandit_party_1","A191V7PT3DQKDP","either","3","3492","","","32","","","","","","","","","","","","","","","","","","","","","","","","","","","","","","","","","","","","",""
"","text-replacement","44","508677","0.0-25.0","86164235","wem/bandit_party_1","A191V7PT3DQKDP","either","3","9793","","","32","","","","","","","","","","","","","","","","","","","","","","","","","","","","","","","","","","","","",""
"","text-replacement","45","523692","0.0-26.0","86164235","wem/bandit_party_1","A191V7PT3DQKDP","either","3","15013","","","32","","","","","","","","","","","","","","","","","","","","","","","","","","","","","","","","","","","","",""
"","text-replacement","46","527732","0.0-27.0","86164235","wem/bandit_party_1","A191V7PT3DQKDP","either","3","4037","","","32","","","","","","","","","","","","","","","","","","","","","","","","","","","","","","","","","","","","",""
"","text-replacement","47","534383","0.0-28.0","86164235","wem/bandit_party_1","A191V7PT3DQKDP","either","3","6649","","","32","","","","","","","","","","","","","","","","","","","","","","","","","","","","","","","","","","","","",""
"","text-replacement","48","539348","0.0-29.0","86164235","wem/bandit_party_1","A191V7PT3DQKDP","either","3","4962","","","32","","","","","","","","","","","","","","","","","","","","","","","","","","","","","","","","","","","","",""
"","text-replacement","49","541747","0.0-30.0","86164235","wem/bandit_party_1","A191V7PT3DQKDP","either","3","2398","","","32","","","","","","","","","","","","","","","","","","","","","","","","","","","","","","","","","","","","",""
"","text-replacement","50","543747","0.0-31.0","86164235","wem/bandit_party_1","A191V7PT3DQKDP","either","3","1998","","","32","","","","","","","","","","","","","","","","","","","","","","","","","","","","","","","","","","","","",""
"","bandit","51","545995","0.0-32.0-0.0","86164235","wem/bandit_party_1","A191V7PT3DQKDP","either","3","743","","","","","","","1","0","0","0.8","","0.5","0.5","0.5","0.5","","","","","0.8","0.2","0.6","0.2","","","","","","","","","","72","H","0","img/none_selected.jpg","true","0","full_practice",""
"","bandit","52","547874","0.0-32.0-1.0","86164235","wem/bandit_party_1","A191V7PT3DQKDP","either","3","372","","","","","","","0","0","1","","0.2","0.5","0.5","0.5","0.5","0.8","0.2","0.6","0.2","","","","","","","","","","","","","","74","J","1","","true","0","full_practice",""
"","bandit","53","549401","0.0-32.0-2.0","86164235","wem/bandit_party_1","A191V7PT3DQKDP","either","3","22","","","","","","","0","1","0","","0.6","0.5","0.5","0.5","0.5","0.8","0.2","0.6","0.2","","","","","","","","","","","","","","75","K","2","","true","0","full_practice",""
"","bandit","54","551057","0.0-32.0-3.0","86164235","wem/bandit_party_1","A191V7PT3DQKDP","either","3","150","","","","","","","0","0","1","","0.2","0.5","0.5","0.5","0.5","0.8","0.2","0.6","0.2","","","","","","","","","","","","","","76","L","3","","true","0","full_practice",""
"","bandit","55","552801","0.0-32.0-4.0","86164235","wem/bandit_party_1","A191V7PT3DQKDP","either","3","238","","","","","","","0","1","0","","0.8","0.5","0.5","0.5","0.5","0.8","0.2","0.6","0.2","","","","","","","","","","","","","","72","H","0","img/none_selected.jpg","true","0","full_practice",""
"","bandit","56","554617","0.0-32.0-5.0","86164235","wem/bandit_party_1","A191V7PT3DQKDP","either","3","311","","","","","","","1","0","0","0.8","","0.5","0.5","0.5","0.5","","","","","0.8","0.2","0.6","0.2","","","","","","","","","","72","H","0","img/none_selected.jpg","true","0","full_practice",""
"","bandit","57","556437","0.0-32.0-6.0","86164235","wem/bandit_party_1","A191V7PT3DQKDP","either","3","310","","","","","","","1","0","0","0.8","","0.5","0.5","0.5","0.5","","","","","0.8","0.2","0.6","0.2","","","","","","","","","","72","H","0","img/none_selected.jpg","true","0","full_practice",""
"","bandit","58","558227","0.0-32.0-7.0","86164235","wem/bandit_party_1","A191V7PT3DQKDP","either","3","286","","","","","","","0","1","0","","0.8","0.5","0.5","0.5","0.5","0.8","0.2","0.6","0.2","","","","","","","","","","","","","","72","H","0","img/none_selected.jpg","true","0","full_practice",""
"","bandit","59","559995","0.0-32.0-8.0","86164235","wem/bandit_party_1","A191V7PT3DQKDP","either","3","264","","","","","","","1","0","0","0.8","","0.5","0.5","0.5","0.5","","","","","0.8","0.2","0.6","0.2","","","","","","","","","","72","H","0","img/none_selected.jpg","true","0","full_practice",""
"","bandit","60","561923","0.0-32.0-9.0","86164235","wem/bandit_party_1","A191V7PT3DQKDP","either","3","423","","","","","","","1","0","0","0.8","","0.5","0.5","0.5","0.5","","","","","0.8","0.2","0.6","0.2","","","","","","","","","","72","H","0","img/none_selected.jpg","true","0","full_practice",""
"","bandit","61","563772","0.0-32.0-10.0","86164235","wem/bandit_party_1","A191V7PT3DQKDP","either","3","342","","","","","","","1","0","0","0.8","","0.5","0.5","0.5","0.5","","","","","0.8","0.2","0.6","0.2","","","","","","","","","","72","H","0","img/none_selected.jpg","true","0","full_practice",""
"","bandit","62","565579","0.0-32.0-11.0","86164235","wem/bandit_party_1","A191V7PT3DQKDP","either","3","300","","","","","","","0","0","1","0.8","","0.5","0.5","0.5","0.5","","","","","0.8","0.2","0.6","0.2","","","","","","","","","","72","H","0","img/none_selected.jpg","true","0","full_practice",""
"","bandit","63","567405","0.0-32.0-12.0","86164235","wem/bandit_party_1","A191V7PT3DQKDP","either","3","320","","","","","","","1","0","0","0.8","","0.5","0.5","0.5","0.5","","","","","0.8","0.2","0.6","0.2","","","","","","","","","","72","H","0","img/none_selected.jpg","true","0","full_practice",""
"","bandit","64","569251","0.0-32.0-13.0","86164235","wem/bandit_party_1","A191V7PT3DQKDP","either","3","340","","","","","","","1","0","0","0.8","","0.5","0.5","0.5","0.5","","","","","0.8","0.2","0.6","0.2","","","","","","","","","","72","H","0","img/none_selected.jpg","true","0","full_practice",""
"","bandit","65","571212","0.0-32.0-14.0","86164235","wem/bandit_party_1","A191V7PT3DQKDP","either","3","454","","","","","","","1","0","0","0.8","","0.5","0.5","0.5","0.5","","","","","0.8","0.2","0.6","0.2","","","","","","","","","","72","H","0","img/none_selected.jpg","true","0","full_practice",""
"","bandit","66","575643","0.0-32.0-15.0","86164235","wem/bandit_party_1","A191V7PT3DQKDP","either","3","2927","","","","","","","1","0","0","0.8","","0.5","0.5","0.5","0.5","","","","","0.8","0.2","0.6","0.2","","","","","","","","","","72","H","0","img/none_selected.jpg","true","0","full_practice",""
"","bandit","67","577965","0.0-32.0-16.0","86164235","wem/bandit_party_1","A191V7PT3DQKDP","either","3","816","","","","","","","0","1","0","","0.8","0.5","0.5","0.5","0.5","0.8","0.2","0.6","0.2","","","","","","","","","","","","","","72","H","0","img/none_selected.jpg","true","0","full_practice",""
"","bandit","68","579835","0.0-32.0-17.0","86164235","wem/bandit_party_1","A191V7PT3DQKDP","either","3","364","","","","","","","1","0","0","0.8","","0.5","0.5","0.5","0.5","","","","","0.8","0.2","0.6","0.2","","","","","","","","","","72","H","0","img/none_selected.jpg","true","0","full_practice",""
"","bandit","69","581707","0.0-32.0-18.0","86164235","wem/bandit_party_1","A191V7PT3DQKDP","either","3","366","","","","","","","0","0","1","","0.8","0.5","0.5","0.5","0.5","0.8","0.2","0.6","0.2","","","","","","","","","","","","","","72","H","0","img/none_selected.jpg","true","0","full_practice",""
"","bandit","70","583603","0.0-32.0-19.0","86164235","wem/bandit_party_1","A191V7PT3DQKDP","either","3","389","","","","","","","0","1","0","","0.8","0.5","0.5","0.5","0.5","0.8","0.2","0.6","0.2","","","","","","","","","","","","","","72","H","0","img/none_selected.jpg","true","0","full_practice",""
"","text","71","586486","0.0-33.0","86164235","wem/bandit_party_1","A191V7PT3DQKDP","either","3","2877","","","32","","","","","","","","","","","","","","","","","","","","","","","","","","","","","","","","","","","","",""
"","text-replacement","72","600974","0.0-34.0","86164235","wem/bandit_party_1","A191V7PT3DQKDP","either","3","13486","","","32","","","","","","","","","","","","","","","","","","","","","","","","","","","","","","","","","","","","",""
"","text-replacement","73","614390","0.0-35.0","86164235","wem/bandit_party_1","A191V7PT3DQKDP","either","3","13414","","","32","","","","","","","","","","","","","","","","","","","","","","","","","","","","","","","","","","","","",""
"","text-replacement","74","621792","0.0-36.0","86164235","wem/bandit_party_1","A191V7PT3DQKDP","either","3","7401","","","32","","","","","","","","","","","","","","","","","","","","","","","","","","","","","","","","","","","","",""
"","text-replacement","75","630802","0.0-37.0","86164235","wem/bandit_party_1","A191V7PT3DQKDP","either","3","9007","","","32","","","","","","","","","","","","","","","","","","","","","","","","","","","","","","","","","","","","",""
"","text-replacement","76","639376","0.0-38.0","86164235","wem/bandit_party_1","A191V7PT3DQKDP","either","3","8572","","","32","","","","","","","","","","","","","","","","","","","","","","","","","","","","","","","","","","","","",""
"","survey-multi-choice-replacement","77","644519","0.0-39.0-0.0","86164235","wem/bandit_party_1","A191V7PT3DQKDP","either","3","5136","","","","","","","","","","","","","","","","","","","","","","","","Money will be added to the pool for <span style='color:blue;'>DEMOCRATS</span>","","","","","","","attn_check","","","","","","","","","0"
"","survey-multi-choice-replacement","78","649205","0.0-40.0-0.0","86164235","wem/bandit_party_1","A191V7PT3DQKDP","either","3","3678","","","","","","","","","","","","","","","","","","","","","","","","Equal amounts of money will be added to the pool for <span style='color:blue;'>DEMOCRATS</span> and subtracted from the pool for <span style='color:red;'>REPUBLICANS</span>","","","","","","","attn_check","","","","","","","","","2"
"","survey-multi-choice-replacement","79","660581","0.0-41.0-0.0","86164235","wem/bandit_party_1","A191V7PT3DQKDP","either","3","10367","","","","","","","","","","","","","","","","","","","","","","","","No money will be added to either pool","","","","","","","attn_check","","","","","","","","","3"
"","bandit","80","666198","0.0-42.0-0.0","86164235","wem/bandit_party_1","A191V7PT3DQKDP","either","3","3108","","","","","","","0","0","1","","0.4870892339","0.2","0.6","0.4","0.8","0.4870892339","0.07685641067","0.1646489015","0.1426046982","","","","","","","","","","","","","","72","H","0","img/none_selected.jpg","","1","main_expt",""
"","bandit","81","668086","0.0-43.0-0.0","86164235","wem/bandit_party_1","A191V7PT3DQKDP","either","3","383","","","","","","","0","0","1","","0.08388143876","0.2","0.6","0.4","0.8","0.4875162112","0.08388143876","0.2180431119","0.1597004976","","","","","","","","","","","","","","74","J","1","","","2","main_expt",""
"","bandit","82","670254","0.0-44.0-0.0","86164235","wem/bandit_party_1","A191V7PT3DQKDP","either","3","661","","","","","","","0","0","1","","0.2294217256","0.2","0.6","0.4","0.8","0.4909945117","0.06528774038","0.2294217256","0.1381850853","","","","","","","","","","","","","","75","K","2","","","3","main_expt",""
"","bandit","83","672262","0.0-45.0-0.0","86164235","wem/bandit_party_1","A191V7PT3DQKDP","either","3","504","","","","","","","0","0","1","0.1787932262","","0.2","0.6","0.4","0.8","","","","","0.482579304","0.07987899881","0.2162119515","0.1787932262","","","","","","","","","","76","L","3","","","4","main_expt",""
"","bandit","84","674190","0.0-46.0-0.0","86164235","wem/bandit_party_1","A191V7PT3DQKDP","either","3","421","","","","","","","0","0","1","","0.4887913002","0.2","0.6","0.4","0.8","0.4887913002","0.0432391811","0.2246316054","0.1795032464","","","","","","","","","","","","","","72","H","0","img/none_selected.jpg","","5","main_expt",""
"","bandit","85","675985","0.0-47.0-0.0","86164235","wem/bandit_party_1","A191V7PT3DQKDP","either","3","290","","","","","","","0","0","1","","0.03467601655","0.2","0.6","0.4","0.8","0.4887860333","0.03467601655","0.2061018479","0.164375756","","","","","","","","","","","","","","74","J","1","","","6","main_expt",""
"","bandit","86","677799","0.0-48.0-0.0","86164235","wem/bandit_party_1","A191V7PT3DQKDP","either","3","308","","","","","","","0","0","1","","0.1795347326","0.2","0.6","0.4","0.8","0.4901971563","0.05033951668","0.1795347326","0.204957223","","","","","","","","","","","","","","75","K","2","","","7","main_expt",""
"","bandit","87","679638","0.0-49.0-0.0","86164235","wem/bandit_party_1","A191V7PT3DQKDP","either","3","333","","","","","","","0","0","1","","0.2162036531","0.2","0.6","0.4","0.8","0.4862230721","0.07676355645","0.1290452752","0.2162036531","","","","","","","","","","","","","","76","L","3","","","8","main_expt",""
"","bandit","88","681448","0.0-50.0-0.0","86164235","wem/bandit_party_1","A191V7PT3DQKDP","either","3","302","","","","","","","0","1","0","","0.4759730645","0.2","0.6","0.4","0.8","0.4759730645","0.08620859221","0.1559184374","0.2167418122","","","","","","","","","","","","","","72","H","0","img/none_selected.jpg","","9","main_expt",""
"","bandit","89","683240","0.0-51.0-0.0","86164235","wem/bandit_party_1","A191V7PT3DQKDP","either","3","283","","","","","","","1","0","0","0.1103839657","","0.2","0.6","0.4","0.8","","","","","0.4560980466","0.1103839657","0.1381514788","0.1607923637","","","","","","","","","","74","J","1","","","10","main_expt",""
"","bandit","90","685064","0.0-52.0-0.0","86164235","wem/bandit_party_1","A191V7PT3DQKDP","either","3","318","","","","","","","0","1","0","","0.1271140015","0.2","0.6","0.4","0.8","0.4775116046","0.1334948588","0.1271140015","0.1386410957","","","","","","","","","","","","","","75","K","2","","","11","main_expt",""
"","bandit","91","686882","0.0-53.0-0.0","86164235","wem/bandit_party_1","A191V7PT3DQKDP","either","3","312","","","","","","","0","0","1","0.1718380738","","0.2","0.6","0.4","0.8","","","","","0.4705073552","0.1535602519","0.1854664659","0.1718380738","","","","","","","","","","76","L","3","","","12","main_expt",""
"","bandit","92","688689","0.0-54.0-0.0","86164235","wem/bandit_party_1","A191V7PT3DQKDP","either","3","300","","","","","","","0","0","1","0.127854239","","0.2","0.6","0.4","0.8","","","","","0.4851887342","0.127854239","0.1869952656","0.1686303413","","","","","","","","","","74","J","1","","","13","main_expt",""
"","bandit","93","690535","0.0-55.0-0.0","86164235","wem/bandit_party_1","A191V7PT3DQKDP","either","3","340","","","","","","","0","0","1","0.1507911491","","0.2","0.6","0.4","0.8","","","","","0.4731273917","0.1507911491","0.2035171393","0.1460019496","","","","","","","","","","74","J","1","","","14","main_expt",""
"","bandit","94","692415","0.0-56.0-0.0","86164235","wem/bandit_party_1","A191V7PT3DQKDP","either","3","375","","","","","","","0","1","0","","0.4585867004","0.2","0.6","0.4","0.8","0.4585867004","0.1741212098","0.2800299461","0.1667614464","","","","","","","","","","","","","","72","H","0","img/none_selected.jpg","","15","main_expt",""
"","bandit","95","694232","0.0-57.0-0.0","86164235","wem/bandit_party_1","A191V7PT3DQKDP","either","3","310","","","","","","","0","0","1","","0.2725454461","0.2","0.6","0.4","0.8","0.4366533258","0.1918308831","0.2725454461","0.1973644546","","","","","","","","","","","","","","75","K","2","","","16","main_expt",""
"","bandit","96","696033","0.0-58.0-0.0","86164235","wem/bandit_party_1","A191V7PT3DQKDP","either","3","294","","","","","","","0","0","1","","0.4405228744","0.2","0.6","0.4","0.8","0.4405228744","0.1950212473","0.1570621471","0.1873415792","","","","","","","","","","","","","","72","H","0","img/none_selected.jpg","","17","main_expt",""
"","bandit","97","697866","0.0-59.0-0.0","86164235","wem/bandit_party_1","A191V7PT3DQKDP","either","3","326","","","","","","","0","0","1","","0.4678551263","0.2","0.6","0.4","0.8","0.4678551263","0.2094813194","0.1968188506","0.1875860444","","","","","","","","","","","","","","72","H","0","img/none_selected.jpg","","18","main_expt",""
"","bandit","98","699689","0.0-60.0-0.0","86164235","wem/bandit_party_1","A191V7PT3DQKDP","either","3","316","","","","","","","0","0","1","0.2628959394","","0.2","0.6","0.4","0.8","","","","","0.466140525","0.2628959394","0.2439518204","0.1988439388","","","","","","","","","","74","J","1","","","19","main_expt",""
"","bandit","99","701496","0.0-61.0-0.0","86164235","wem/bandit_party_1","A191V7PT3DQKDP","either","3","302","","","","","","","0","0","1","0.2806117898","","0.2","0.6","0.4","0.8","","","","","0.4094087999","0.2116504525","0.2806117898","0.1813993393","","","","","","","","","","75","K","2","","","20","main_expt",""
"","bandit","100","703312","0.0-62.0-0.0","86164235","wem/bandit_party_1","A191V7PT3DQKDP","either","3","309","","","","","","","0","0","1","0.2012004452","","0.2","0.6","0.4","0.8","","","","","0.4386974508","0.1904426465","0.2658005831","0.2012004452","","","","","","","","","","76","L","3","","","21","main_expt",""
"","bandit","101","705104","0.0-63.0-0.0","86164235","wem/bandit_party_1","A191V7PT3DQKDP","either","3","285","","","","","","","0","0","1","","0.4505723784","0.2","0.6","0.4","0.8","0.4505723784","0.1581796968","0.2774390086","0.1958646163","","","","","","","","","","","","","","72","H","0","img/none_selected.jpg","","22","main_expt",""
"","bandit","102","706888","0.0-64.0-0.0","86164235","wem/bandit_party_1","A191V7PT3DQKDP","either","3","278","","","","","","","0","0","1","0.2039009352","","0.2","0.6","0.4","0.8","","","","","0.4568000239","0.2039009352","0.2795917474","0.2626819079","","","","","","","","","","74","J","1","","","23","main_expt",""
"","bandit","103","708835","0.0-65.0-0.0","86164235","wem/bandit_party_1","A191V7PT3DQKDP","either","3","441","","","","","","","0","1","0","","0.4518339256","0.2","0.6","0.4","0.8","0.4518339256","0.228339491","0.2981059477","0.2906682881","","","","","","","","","","","","","","72","H","0","img/none_selected.jpg","","24","main_expt",""
"","bandit","104","710872","0.0-66.0-0.0","86164235","wem/bandit_party_1","A191V7PT3DQKDP","either","3","531","","","","","","","0","1","0","","0.3272059922","0.2","0.6","0.4","0.8","0.4120159309","0.2602465224","0.3272059922","0.3270173502","","","","","","","","","","","","","","75","K","2","","","25","main_expt",""
"","bandit","105","712704","0.0-67.0-0.0","86164235","wem/bandit_party_1","A191V7PT3DQKDP","either","3","327","","","","","","","0","0","1","","0.4134154185","0.2","0.6","0.4","0.8","0.4134154185","0.1939420306","0.3369826645","0.2951289915","","","","","","","","","","","","","","72","H","0","img/none_selected.jpg","","26","main_expt",""
"","bandit","106","714384","0.0-68.0-0.0","86164235","wem/bandit_party_1","A191V7PT3DQKDP","either","3","175","","","","","","","0","0","1","0.2387331149","","0.2","0.6","0.4","0.8","","","","","0.4031068294","0.2387331149","0.2531212506","0.3520126272","","","","","","","","","","74","J","1","","","27","main_expt",""
"","bandit","107","716136","0.0-69.0-0.0","86164235","wem/bandit_party_1","A191V7PT3DQKDP","either","3","245","","","","","","","0","0","1","0.2170461037","","0.2","0.6","0.4","0.8","","","","","0.4305883772","0.2183458617","0.2170461037","0.3369287003","","","","","","","","","","75","K","2","","","28","main_expt",""
"","bandit","108","717960","0.0-70.0-0.0","86164235","wem/bandit_party_1","A191V7PT3DQKDP","either","3","317","","","","","","","0","0","1","","0.4383329838","0.2","0.6","0.4","0.8","0.4383329838","0.2151501268","0.2346211465","0.3591799128","","","","","","","","","","","","","","72","H","0","img/none_selected.jpg","","29","main_expt",""
"","bandit","109","719770","0.0-71.0-0.0","86164235","wem/bandit_party_1","A191V7PT3DQKDP","either","3","305","","","","","","","0","0","1","","0.4233276099","0.2","0.6","0.4","0.8","0.4233276099","0.2267233056","0.2450860663","0.3324285477","","","","","","","","","","","","","","72","H","0","img/none_selected.jpg","","30","main_expt",""
"","bandit","110","721560","0.0-72.0-0.0","86164235","wem/bandit_party_1","A191V7PT3DQKDP","either","3","283","","","","","","","0","0","1","","0.4016185005","0.2","0.6","0.4","0.8","0.4016185005","0.2663701676","0.2141169407","0.327032362","","","","","","","","","","","","","","72","H","0","img/none_selected.jpg","","31","main_expt",""
"","bandit","111","723384","0.0-73.0-0.0","86164235","wem/bandit_party_1","A191V7PT3DQKDP","either","3","315","","","","","","","0","1","0","","0.275969473","0.2","0.6","0.4","0.8","0.4134940178","0.275969473","0.2347854155","0.3230905041","","","","","","","","","","","","","","74","J","1","","","32","main_expt",""
"","bandit","112","725127","0.0-74.0-0.0","86164235","wem/bandit_party_1","A191V7PT3DQKDP","either","3","238","","","","","","","0","0","1","","0.3365270118","0.2","0.6","0.4","0.8","0.4331174495","0.3365270118","0.246596708","0.2969008969","","","","","","","","","","","","","","74","J","1","","","33","main_expt",""
"","bandit","113","726927","0.0-75.0-0.0","86164235","wem/bandit_party_1","A191V7PT3DQKDP","either","3","295","","","","","","","0","0","1","","0.1914370393","0.2","0.6","0.4","0.8","0.4454497031","0.2916301021","0.1914370393","0.2536392951","","","","","","","","","","","","","","75","K","2","","","34","main_expt",""
"","bandit","114","728568","0.0-76.0-0.0","86164235","wem/bandit_party_1","A191V7PT3DQKDP","either","3","132","","","","","","","0","0","1","","0.1408207185","0.2","0.6","0.4","0.8","0.4419706984","0.3236538836","0.1408207185","0.2336030597","","","","","","","","","","","","","","75","K","2","","","35","main_expt",""
"","bandit","115","730386","0.0-77.0-0.0","86164235","wem/bandit_party_1","A191V7PT3DQKDP","either","3","311","","","","","","","0","0","1","0.3110392291","","0.2","0.6","0.4","0.8","","","","","0.4205940312","0.3317439785","0.09539735145","0.3110392291","","","","","","","","","","76","L","3","","","36","main_expt",""
"","bandit","116","733936","0.0-78.0-0.0","86164235","wem/bandit_party_1","A191V7PT3DQKDP","either","3","2043","","","","","","","0","0","1","0.3354302382","","0.2","0.6","0.4","0.8","","","","","0.4227305347","0.3620900841","0.08867332122","0.3354302382","","","","","","","","","","76","L","3","","","37","main_expt",""
"","bandit","117","736208","0.0-79.0-0.0","86164235","wem/bandit_party_1","A191V7PT3DQKDP","either","3","766","","","","","","","0","0","1","","0.3904174821","0.2","0.6","0.4","0.8","0.3904174821","0.3649119955","0.0804097964","0.3359947902","","","","","","","","","","","","","","72","H","0","img/none_selected.jpg","","38","main_expt",""
"","bandit","118","738056","0.0-80.0-0.0","86164235","wem/bandit_party_1","A191V7PT3DQKDP","either","3","341","","","","","","","0","0","1","0.3993258453","","0.2","0.6","0.4","0.8","","","","","0.3704092514","0.3993258453","0.1092906338","0.3719467902","","","","","","","","","","74","J","1","","","39","main_expt",""
"","bandit","119","739911","0.0-81.0-0.0","86164235","wem/bandit_party_1","A191V7PT3DQKDP","either","3","350","","","","","","","0","0","1","","0.3250394812","0.2","0.6","0.4","0.8","0.3250394812","0.43145226","0.08771014895","0.37180955","","","","","","","","","","","","","","72","H","0","img/none_selected.jpg","","40","main_expt",""
"","bandit","120","741764","0.0-82.0-0.0","86164235","wem/bandit_party_1","A191V7PT3DQKDP","either","3","344","","","","","","","0","0","1","","0.3925837484","0.2","0.6","0.4","0.8","0.3633775572","0.3925837484","0.1065106481","0.3972707938","","","","","","","","","","","","","","74","J","1","","","41","main_expt",""
"","bandit","121","743619","0.0-83.0-0.0","86164235","wem/bandit_party_1","A191V7PT3DQKDP","either","3","348","","","","","","","0","0","1","","0.0926848955","0.2","0.6","0.4","0.8","0.3708570881","0.4020613291","0.0926848955","0.3981555674","","","","","","","","","","","","","","75","K","2","","","42","main_expt",""
"","bandit","122","745474","0.0-84.0-0.0","86164235","wem/bandit_party_1","A191V7PT3DQKDP","either","3","348","","","","","","","0","0","1","0.3698022864","","0.2","0.6","0.4","0.8","","","","","0.3852030547","0.4199094288","0.09213729174","0.3698022864","","","","","","","","","","76","L","3","","","43","main_expt",""
"","bandit","123","747315","0.0-85.0-0.0","86164235","wem/bandit_party_1","A191V7PT3DQKDP","either","3","335","","","","","","","0","1","0","","0.3653477133","0.2","0.6","0.4","0.8","0.3653477133","0.4362917367","0.0950319608","0.3278340923","","","","","","","","","","","","","","72","H","0","img/none_selected.jpg","","44","main_expt",""
"","bandit","124","749147","0.0-86.0-0.0","86164235","wem/bandit_party_1","A191V7PT3DQKDP","either","3","324","","","","","","","0","1","0","","0.3423722135","0.2","0.6","0.4","0.8","0.3423722135","0.4310393502","0.07917944011","0.4004869948","","","","","","","","","","","","","","72","H","0","img/none_selected.jpg","","45","main_expt",""
"","bandit","125","750971","0.0-87.0-0.0","86164235","wem/bandit_party_1","A191V7PT3DQKDP","either","3","318","","","","","","","0","1","0","","0.2713785315","0.2","0.6","0.4","0.8","0.2713785315","0.4301719659","0.08528552535","0.4389658195","","","","","","","","","","","","","","72","H","0","img/none_selected.jpg","","46","main_expt",""
"","bandit","126","752780","0.0-88.0-0.0","86164235","wem/bandit_party_1","A191V7PT3DQKDP","either","3","303","","","","","","","0","1","0","","0.2675382036","0.2","0.6","0.4","0.8","0.2675382036","0.4274268526","0.08303267599","0.4294918489","","","","","","","","","","","","","","72","H","0","img/none_selected.jpg","","47","main_expt",""
"","bandit","127","754611","0.0-89.0-0.0","86164235","wem/bandit_party_1","A191V7PT3DQKDP","either","3","324","","","","","","","0","0","1","","0.3006553151","0.2","0.6","0.4","0.8","0.3006553151","0.4559220927","0.1183490009","0.3948346084","","","","","","","","","","","","","","72","H","0","img/none_selected.jpg","","48","main_expt",""
"","bandit","128","756410","0.0-90.0-0.0","86164235","wem/bandit_party_1","A191V7PT3DQKDP","either","3","293","","","","","","","0","0","1","0.4362936898","","0.2","0.6","0.4","0.8","","","","","0.2865645246","0.4362936898","0.09831357925","0.4226663974","","","","","","","","","","74","J","1","","","49","main_expt",""
"","bandit","129","758180","0.0-91.0-0.0","86164235","wem/bandit_party_1","A191V7PT3DQKDP","either","3","263","","","","","","","0","0","1","0.0896163698","","0.2","0.6","0.4","0.8","","","","","0.2842330123","0.4001593617","0.0896163698","0.3943232949","","","","","","","","","","75","K","2","","","50","main_expt",""
"","bandit","130","760010","0.0-92.0-0.0","86164235","wem/bandit_party_1","A191V7PT3DQKDP","either","3","322","","","","","","","0","0","1","0.3911898034","","0.2","0.6","0.4","0.8","","","","","0.2933637591","0.3737598101","0.08239790895","0.3911898034","","","","","","","","","","76","L","3","","","51","main_expt",""
"","bandit","131","761794","0.0-93.0-0.0","86164235","wem/bandit_party_1","A191V7PT3DQKDP","either","3","279","","","","","","","1","0","0","0.2802127762","","0.2","0.6","0.4","0.8","","","","","0.2802127762","0.3490564905","0.06509061927","0.3897106723","","","","","","","","","","72","H","0","img/none_selected.jpg","","52","main_expt",""
"","bandit","132","763533","0.0-94.0-0.0","86164235","wem/bandit_party_1","A191V7PT3DQKDP","either","3","232","","","","","","","1","0","0","0.2567133084","","0.2","0.6","0.4","0.8","","","","","0.2567133084","0.3606416198","0.05503049918","0.3977919118","","","","","","","","","","72","H","0","img/none_selected.jpg","","53","main_expt",""
"","bandit","133","766331","0.0-95.0-0.0","86164235","wem/bandit_party_1","A191V7PT3DQKDP","either","3","1291","","","","","","","0","0","1","0.304436262","","0.2","0.6","0.4","0.8","","","","","0.304436262","0.3920172378","0.06606451817","0.3803623479","","","","","","","","","","72","H","0","img/none_selected.jpg","","54","main_expt",""
"","bandit","134","767899","0.0-96.0-0.0","86164235","wem/bandit_party_1","A191V7PT3DQKDP","either","3","61","","","","","","","0","0","1","0.3841867886","","0.2","0.6","0.4","0.8","","","","","0.3050376594","0.3841867886","0.0812436444","0.3898030924","","","","","","","","","","74","J","1","","","55","main_expt",""
"","bandit","135","769522","0.0-97.0-0.0","86164235","wem/bandit_party_1","A191V7PT3DQKDP","either","3","117","","","","","","","0","0","1","0.05752214818","","0.2","0.6","0.4","0.8","","","","","0.2874076515","0.3752679739","0.05752214818","0.4332266089","","","","","","","","","","75","K","2","","","56","main_expt",""
"","bandit","136","771250","0.0-98.0-0.0","86164235","wem/bandit_party_1","A191V7PT3DQKDP","either","3","223","","","","","","","0","0","1","0.4598680415","","0.2","0.6","0.4","0.8","","","","","0.2633226407","0.3595388075","0.05957573693","0.4598680415","","","","","","","","","","76","L","3","","","57","main_expt",""
"","bandit","137","773783","0.0-99.0-0.0","86164235","wem/bandit_party_1","A191V7PT3DQKDP","either","3","1027","","","","","","","1","0","0","0.282557186","","0.2","0.6","0.4","0.8","","","","","0.282557186","0.2926617498","0.08347810371","0.4510058242","","","","","","","","","","72","H","0","img/none_selected.jpg","","58","main_expt",""
"","bandit","138","778066","0.0-100.0-0.0","86164235","wem/bandit_party_1","A191V7PT3DQKDP","either","3","2777","","","","","","","0","0","1","","0.2675679041","0.2","0.6","0.4","0.8","0.2675679041","0.2854140482","0.1166757522","0.4587464736","","","","","","","","","","","","","","72","H","0","img/none_selected.jpg","","59","main_expt",""
"","bandit","139","780811","0.0-101.0-0.0","86164235","wem/bandit_party_1","A191V7PT3DQKDP","either","3","1238","","","","","","","0","0","1","","0.2654645802","0.2","0.6","0.4","0.8","0.2654645802","0.2767785787","0.1223048521","0.4534111386","","","","","","","","","","","","","","72","H","0","img/none_selected.jpg","","60","main_expt",""
"","bandit","140","782611","0.0-102.0-0.0","86164235","wem/bandit_party_1","A191V7PT3DQKDP","either","3","294","","","","","","","1","0","0","0.2326588137","","0.2","0.6","0.4","0.8","","","","","0.2326588137","0.3110110239","0.1341525672","0.4581751116","","","","","","","","","","72","H","0","img/none_selected.jpg","","61","main_expt",""
"","bandit","141","784468","0.0-103.0-0.0","86164235","wem/bandit_party_1","A191V7PT3DQKDP","either","3","351","","","","","","","0","0","1","0.2430345153","","0.2","0.6","0.4","0.8","","","","","0.2430345153","0.2739379344","0.1748443247","0.4447189615","","","","","","","","","","72","H","0","img/none_selected.jpg","","62","main_expt",""
"","bandit","142","786283","0.0-104.0-0.0","86164235","wem/bandit_party_1","A191V7PT3DQKDP","either","3","308","","","","","","","0","0","1","","0.2682261916","0.2","0.6","0.4","0.8","0.2682261916","0.2518438402","0.1872250423","0.4351057758","","","","","","","","","","","","","","72","H","0","img/none_selected.jpg","","63","main_expt",""
"","bandit","143","788730","0.0-105.0-0.0","86164235","wem/bandit_party_1","A191V7PT3DQKDP","either","3","942","","","","","","","0","0","1","","0.216118181","0.2","0.6","0.4","0.8","0.3136585585","0.216118181","0.1592276408","0.4559228662","","","","","","","","","","","","","","74","J","1","","","64","main_expt",""
"","bandit","144","790859","0.0-106.0-0.0","86164235","wem/bandit_party_1","A191V7PT3DQKDP","either","3","622","","","","","","","0","1","0","","0.1881419285","0.2","0.6","0.4","0.8","0.3208042698","0.1961712117","0.1881419285","0.4526438492","","","","","","","","","","","","","","75","K","2","","","65","main_expt",""
"","bandit","145","792802","0.0-107.0-0.0","86164235","wem/bandit_party_1","A191V7PT3DQKDP","either","3","437","","","","","","","0","0","1","0.2075830042","","0.2","0.6","0.4","0.8","","","","","0.3550213758","0.1821057022","0.2075830042","0.4604690516","","","","","","","","","","75","K","2","","","66","main_expt",""
"","bandit","146","794636","0.0-108.0-0.0","86164235","wem/bandit_party_1","A191V7PT3DQKDP","either","3","329","","","","","","","0","0","1","","0.4479534522","0.2","0.6","0.4","0.8","0.2883445083","0.2221692745","0.210321401","0.4479534522","","","","","","","","","","","","","","76","L","3","","","67","main_expt",""
"","bandit","147","796571","0.0-109.0-0.0","86164235","wem/bandit_party_1","A191V7PT3DQKDP","either","3","428","","","","","","","0","1","0","","0.2492112051","0.2","0.6","0.4","0.8","0.2492112051","0.2385328342","0.1740681144","0.4420076102","","","","","","","","","","","","","","72","H","0","img/none_selected.jpg","","68","main_expt",""
"","bandit","148","798426","0.0-110.0-0.0","86164235","wem/bandit_party_1","A191V7PT3DQKDP","either","3","349","","","","","","","0","0","1","","0.1725364023","0.2","0.6","0.4","0.8","0.1725364023","0.2693988132","0.1495678232","0.3840886122","","","","","","","","","","","","","","72","H","0","img/none_selected.jpg","","69","main_expt",""
"","bandit","149","800276","0.0-111.0-0.0","86164235","wem/bandit_party_1","A191V7PT3DQKDP","either","3","340","","","","","","","0","1","0","","0.2633889128","0.2","0.6","0.4","0.8","0.2081322216","0.2633889128","0.1594524764","0.3764426572","","","","","","","","","","","","","","74","J","1","","","70","main_expt",""
"","bandit","150","802109","0.0-112.0-0.0","86164235","wem/bandit_party_1","A191V7PT3DQKDP","either","3","323","","","","","","","0","0","1","","0.1308665948","0.2","0.6","0.4","0.8","0.2222096595","0.2881785301","0.1308665948","0.3925575972","","","","","","","","","","","","","","75","K","2","","","71","main_expt",""
"","bandit","151","804786","0.0-113.0-0.0","86164235","wem/bandit_party_1","A191V7PT3DQKDP","either","3","325","","","","","","","0","0","1","","0.4055717031","0.2","0.6","0.4","0.8","0.2276413934","0.3496752211","0.1413665491","0.4055717031","","","","","","","","","","","","","","76","L","3","","","72","main_expt",""
"","bandit","152","808940","0.0-114.0-0.0","86164235","wem/bandit_party_1","A191V7PT3DQKDP","either","3","2648","","","","","","","0","0","1","","0.202726327","0.2","0.6","0.4","0.8","0.202726327","0.3662649551","0.1562096843","0.4313753627","","","","","","","","","","","","","","72","H","0","img/none_selected.jpg","","73","main_expt",""
"","bandit","153","810868","0.0-115.0-0.0","86164235","wem/bandit_party_1","A191V7PT3DQKDP","either","3","422","","","","","","","0","0","1","","0.3318597218","0.2","0.6","0.4","0.8","0.2465356434","0.3318597218","0.1601549975","0.4294283137","","","","","","","","","","","","","","74","J","1","","","74","main_expt",""
"","bandit","154","812676","0.0-116.0-0.0","86164235","wem/bandit_party_1","A191V7PT3DQKDP","either","3","299","","","","","","","0","0","1","0.1962365409","","0.2","0.6","0.4","0.8","","","","","0.2780880013","0.3129946244","0.1962365409","0.4114775526","","","","","","","","","","75","K","2","","","75","main_expt",""
"","bandit","155","831380","0.0-117.0-0.0","86164235","wem/bandit_party_1","A191V7PT3DQKDP","either","3","17197","","","","","","","0","0","1","","0.230570622","0.2","0.6","0.4","0.8","0.230570622","0.3299880354","0.2315068675","0.4038916894","","","","","","","","","","","","","","72","H","0","img/none_selected.jpg","","76","main_expt",""
"","bandit","156","833347","0.0-118.0-0.0","86164235","wem/bandit_party_1","A191V7PT3DQKDP","either","3","461","","","","","","","0","0","1","0.2704336052","","0.2","0.6","0.4","0.8","","","","","0.1747897532","0.2704336052","0.1749603823","0.4028298088","","","","","","","","","","74","J","1","","","77","main_expt",""
"","bandit","157","835133","0.0-119.0-0.0","86164235","wem/bandit_party_1","A191V7PT3DQKDP","either","3","279","","","","","","","1","0","0","0.2009150394","","0.2","0.6","0.4","0.8","","","","","0.2009150394","0.2489008917","0.2091975686","0.4004321452","","","","","","","","","","72","H","0","img/none_selected.jpg","","78","main_expt",""
"","bandit","158","836943","0.0-120.0-0.0","86164235","wem/bandit_party_1","A191V7PT3DQKDP","either","3","303","","","","","","","1","0","0","0.2090883318","","0.2","0.6","0.4","0.8","","","","","0.2090883318","0.2182462247","0.2699334682","0.3909827091","","","","","","","","","","72","H","0","img/none_selected.jpg","","79","main_expt",""
"","bandit","159","839786","0.0-121.0-0.0","86164235","wem/bandit_party_1","A191V7PT3DQKDP","either","3","340","","","","","","","0","1","0","","0.215522018","0.2","0.6","0.4","0.8","0.215522018","0.1591694045","0.2712134299","0.4289339141","","","","","","","","","","","","","","72","H","0","img/none_selected.jpg","","80","main_expt",""
"","bandit","160","843811","0.0-122.0-0.0","86164235","wem/bandit_party_1","A191V7PT3DQKDP","either","3","2520","","","","","","","0","0","1","","0.2655955182","0.2","0.6","0.4","0.8","0.2655955182","0.1661146317","0.2563236188","0.4256341571","","","","","","","","","","","","","","72","H","0","img/none_selected.jpg","","81","main_expt",""
"","bandit","161","845597","0.0-123.0-0.0","86164235","wem/bandit_party_1","A191V7PT3DQKDP","either","3","277","","","","","","","0","0","1","","0.2249160828","0.2","0.6","0.4","0.8","0.2642342948","0.2249160828","0.2474856626","0.4153375647","","","","","","","","","","","","","","74","J","1","","","82","main_expt",""
"","bandit","162","847116","0.0-124.0-0.0","86164235","wem/bandit_party_1","A191V7PT3DQKDP","either","3","10","","","","","","","0","0","1","","0.2615040017","0.2","0.6","0.4","0.8","0.2615040017","0.2194800234","0.2338037125","0.4239102097","","","","","","","","","","","","","","72","H","0","img/none_selected.jpg","","83","main_expt",""
"","bandit","163","848806","0.0-125.0-0.0","86164235","wem/bandit_party_1","A191V7PT3DQKDP","either","3","183","","","","","","","0","1","0","","0.2929655049","0.2","0.6","0.4","0.8","0.3136368113","0.2020024956","0.2929655049","0.4021041833","","","","","","","","","","","","","","75","K","2","","","84","main_expt",""
"","bandit","164","850555","0.0-126.0-0.0","86164235","wem/bandit_party_1","A191V7PT3DQKDP","either","3","244","","","","","","","0","0","1","","0.2755572306","0.2","0.6","0.4","0.8","0.2433538552","0.1639230135","0.2755572306","0.4322374594","","","","","","","","","","","","","","75","K","2","","","85","main_expt",""
"","bandit","165","852212","0.0-127.0-0.0","86164235","wem/bandit_party_1","A191V7PT3DQKDP","either","3","150","","","","","","","1","0","0","0.4247618508","","0.2","0.6","0.4","0.8","","","","","0.2583740773","0.1423092638","0.2706615249","0.4247618508","","","","","","","","","","76","L","3","","","86","main_expt",""
"","bandit","166","853972","0.0-128.0-0.0","86164235","wem/bandit_party_1","A191V7PT3DQKDP","either","3","254","","","","","","","0","0","1","0.4130492334","","0.2","0.6","0.4","0.8","","","","","0.2656778135","0.1623313408","0.3259805539","0.4130492334","","","","","","","","","","76","L","3","","","87","main_expt",""
"","bandit","167","855662","0.0-129.0-0.0","86164235","wem/bandit_party_1","A191V7PT3DQKDP","either","3","182","","","","","","","0","0","1","","0.2565525481","0.2","0.6","0.4","0.8","0.2565525481","0.1459946163","0.3471137027","0.3883747858","","","","","","","","","","","","","","72","H","0","img/none_selected.jpg","","88","main_expt",""
"","bandit","168","857420","0.0-130.0-0.0","86164235","wem/bandit_party_1","A191V7PT3DQKDP","either","3","251","","","","","","","0","0","1","0.1684807643","","0.2","0.6","0.4","0.8","","","","","0.2471999074","0.1684807643","0.3715311126","0.3950807547","","","","","","","","","","74","J","1","","","89","main_expt",""
"","bandit","169","859062","0.0-131.0-0.0","86164235","wem/bandit_party_1","A191V7PT3DQKDP","either","3","133","","","","","","","0","0","1","0.3571728809","","0.2","0.6","0.4","0.8","","","","","0.2204199549","0.1937692241","0.3571728809","0.420982679","","","","","","","","","","75","K","2","","","90","main_expt",""
"","bandit","170","860860","0.0-132.0-0.0","86164235","wem/bandit_party_1","A191V7PT3DQKDP","either","3","290","","","","","","","0","0","1","0.4012606491","","0.2","0.6","0.4","0.8","","","","","0.2013548925","0.1670397906","0.3348642023","0.4012606491","","","","","","","","","","76","L","3","","","91","main_expt",""
"","bandit","171","862559","0.0-133.0-0.0","86164235","wem/bandit_party_1","A191V7PT3DQKDP","either","3","189","","","","","","","0","0","1","","0.174921714","0.2","0.6","0.4","0.8","0.174921714","0.1936095216","0.3551195155","0.3950870333","","","","","","","","","","","","","","72","H","0","img/none_selected.jpg","","92","main_expt",""
"","bandit","172","864070","0.0-134.0-0.0","86164235","wem/bandit_party_1","A191V7PT3DQKDP","either","3","2","","","","","","","0","0","1","","0.2399824117","0.2","0.6","0.4","0.8","0.1972058505","0.2399824117","0.3494458231","0.3797372222","","","","","","","","","","","","","","74","J","1","","","93","main_expt",""
"","bandit","173","865582","0.0-135.0-0.0","86164235","wem/bandit_party_1","A191V7PT3DQKDP","either","3","5","","","","","","","0","0","1","","0.3759818745","0.2","0.6","0.4","0.8","0.2144007407","0.242536602","0.3759818745","0.3346339076","","","","","","","","","","","","","","75","K","2","","","94","main_expt",""
"","bandit","174","867150","0.0-136.0-0.0","86164235","wem/bandit_party_1","A191V7PT3DQKDP","either","3","60","","","","","","","0","0","1","","0.3433005441","0.2","0.6","0.4","0.8","0.2025691914","0.3081296623","0.3467088588","0.3433005441","","","","","","","","","","","","","","76","L","3","","","95","main_expt",""
"","bandit","175","868791","0.0-137.0-0.0","86164235","wem/bandit_party_1","A191V7PT3DQKDP","either","3","132","","","","","","","0","0","1","","0.1750118246","0.2","0.6","0.4","0.8","0.1750118246","0.371766452","0.3520186383","0.2900415689","","","","","","","","","","","","","","72","H","0","img/none_selected.jpg","","96","main_expt",""
"","bandit","176","870409","0.0-138.0-0.0","86164235","wem/bandit_party_1","A191V7PT3DQKDP","either","3","111","","","","","","","0","1","0","","0.3737721809","0.2","0.6","0.4","0.8","0.2433812568","0.3737721809","0.342216001","0.3136050561","","","","","","","","","","","","","","74","J","1","","","97","main_expt",""
"","bandit","177","872199","0.0-139.0-0.0","86164235","wem/bandit_party_1","A191V7PT3DQKDP","either","3","283","","","","","","","0","0","1","0.3662625892","","0.2","0.6","0.4","0.8","","","","","0.1834100281","0.3662625892","0.3775958225","0.3236610102","","","","","","","","","","74","J","1","","","98","main_expt",""
"","bandit","178","874184","0.0-140.0-0.0","86164235","wem/bandit_party_1","A191V7PT3DQKDP","either","3","478","","","","","","","1","0","0","0.3490624926","","0.2","0.6","0.4","0.8","","","","","0.146161558","0.3912879072","0.3490624926","0.3116662608","","","","","","","","","","75","K","2","","","99","main_expt",""
"","bandit","179","875967","0.0-141.0-0.0","86164235","wem/bandit_party_1","A191V7PT3DQKDP","either","3","277","","","","","","","1","0","0","0.3418910903","","0.2","0.6","0.4","0.8","","","","","0.1186266926","0.3916888764","0.3418910903","0.3806420769","","","","","","","","","","75","K","2","","","100","main_expt",""
"","bandit","180","877775","0.0-142.0-0.0","86164235","wem/bandit_party_1","A191V7PT3DQKDP","either","3","299","","","","","","","1","0","0","0.3544055354","","0.2","0.6","0.4","0.8","","","","","0.1467879228","0.3803758031","0.3544055354","0.3825052475","","","","","","","","","","75","K","2","","","101","main_expt",""
"","bandit","181","879543","0.0-143.0-0.0","86164235","wem/bandit_party_1","A191V7PT3DQKDP","either","3","259","","","","","","","0","0","1","","0.3580864163","0.2","0.6","0.4","0.8","0.1336514036","0.3685266224","0.3580864163","0.3799327693","","","","","","","","","","","","","","75","K","2","","","102","main_expt",""
"","bandit","182","881289","0.0-144.0-0.0","86164235","wem/bandit_party_1","A191V7PT3DQKDP","either","3","236","","","","","","","1","0","0","0.3502018886","","0.2","0.6","0.4","0.8","","","","","0.1325092095","0.3754978655","0.336528594","0.3502018886","","","","","","","","","","76","L","3","","","103","main_expt",""
"","bandit","183","883063","0.0-145.0-0.0","86164235","wem/bandit_party_1","A191V7PT3DQKDP","either","3","265","","","","","","","0","0","1","0.3443431466","","0.2","0.6","0.4","0.8","","","","","0.1162839287","0.4033056484","0.3190078166","0.3443431466","","","","","","","","","","76","L","3","","","104","main_expt",""
"","bandit","184","884654","0.0-146.0-0.0","86164235","wem/bandit_party_1","A191V7PT3DQKDP","either","3","85","","","","","","","0","0","1","","0.115620258","0.2","0.6","0.4","0.8","0.115620258","0.3617388181","0.3100940773","0.3551378046","","","","","","","","","","","","","","72","H","0","img/none_selected.jpg","","105","main_expt",""
"","bandit","185","886239","0.0-147.0-0.0","86164235","wem/bandit_party_1","A191V7PT3DQKDP","either","3","78","","","","","","","1","0","0","0.3656875331","","0.2","0.6","0.4","0.8","","","","","0.1102569517","0.3656875331","0.2964842485","0.3177956882","","","","","","","","","","74","J","1","","","106","main_expt",""
"","bandit","186","888031","0.0-148.0-0.0","86164235","wem/bandit_party_1","A191V7PT3DQKDP","either","3","284","","","","","","","0","0","1","0.3478183852","","0.2","0.6","0.4","0.8","","","","","0.110599846","0.3478183852","0.3224579283","0.3463124521","","","","","","","","","","74","J","1","","","107","main_expt",""
"","bandit","187","889775","0.0-149.0-0.0","86164235","wem/bandit_party_1","A191V7PT3DQKDP","either","3","237","","","","","","","0","0","1","","0.3715517583","0.2","0.6","0.4","0.8","0.1647947233","0.3715517583","0.3365568187","0.330790185","","","","","","","","","","","","","","74","J","1","","","108","main_expt",""
"","bandit","188","891853","0.0-150.0-0.0","86164235","wem/bandit_party_1","A191V7PT3DQKDP","either","3","569","","","","","","","0","0","1","","0.3200824859","0.2","0.6","0.4","0.8","0.146095753","0.3713851569","0.3200824859","0.3259779601","","","","","","","","","","","","","","75","K","2","","","109","main_expt",""
"","bandit","189","893407","0.0-151.0-0.0","86164235","wem/bandit_party_1","A191V7PT3DQKDP","either","3","44","","","","","","","0","0","1","0.3169053314","","0.2","0.6","0.4","0.8","","","","","0.1691954855","0.3401672382","0.3179471713","0.3169053314","","","","","","","","","","76","L","3","","","110","main_expt",""
"","bandit","190","895455","0.0-152.0-0.0","86164235","wem/bandit_party_1","A191V7PT3DQKDP","either","3","540","","","","","","","0","0","1","","0.1690298198","0.2","0.6","0.4","0.8","0.1690298198","0.3242328008","0.3168158386","0.342138516","","","","","","","","","","","","","","72","H","0","img/none_selected.jpg","","111","main_expt",""
"","bandit","191","897327","0.0-153.0-0.0","86164235","wem/bandit_party_1","A191V7PT3DQKDP","either","3","363","","","","","","","1","0","0","0.2991119965","","0.2","0.6","0.4","0.8","","","","","0.2196992501","0.2991119965","0.3551606626","0.3597886873","","","","","","","","","","74","J","1","","","112","main_expt",""
"","bandit","192","899174","0.0-154.0-0.0","86164235","wem/bandit_party_1","A191V7PT3DQKDP","either","3","339","","","","","","","0","0","1","0.3364281798","","0.2","0.6","0.4","0.8","","","","","0.2723467559","0.3364281798","0.3615444015","0.3580549124","","","","","","","","","","74","J","1","","","113","main_expt",""
"","bandit","193","901022","0.0-155.0-0.0","86164235","wem/bandit_party_1","A191V7PT3DQKDP","either","3","339","","","","","","","1","0","0","0.3495122724","","0.2","0.6","0.4","0.8","","","","","0.2470985199","0.3495122724","0.4043222556","0.3556181037","","","","","","","","","","74","J","1","","","114","main_expt",""
"","bandit","194","902809","0.0-156.0-0.0","86164235","wem/bandit_party_1","A191V7PT3DQKDP","either","3","280","","","","","","","0","0","1","0.324938203","","0.2","0.6","0.4","0.8","","","","","0.2482590513","0.324938203","0.4179696435","0.3489042174","","","","","","","","","","74","J","1","","","115","main_expt",""
"","bandit","195","904639","0.0-157.0-0.0","86164235","wem/bandit_party_1","A191V7PT3DQKDP","either","3","323","","","","","","","0","0","1","0.3227512736","","0.2","0.6","0.4","0.8","","","","","0.1992012358","0.3227512736","0.4324393975","0.3466245191","","","","","","","","","","74","J","1","","","116","main_expt",""
"","bandit","196","906447","0.0-158.0-0.0","86164235","wem/bandit_party_1","A191V7PT3DQKDP","either","3","302","","","","","","","0","1","0","","0.4290779421","0.2","0.6","0.4","0.8","0.216355905","0.2585209305","0.4290779421","0.3581754781","","","","","","","","","","","","","","75","K","2","","","117","main_expt",""
"","bandit","197","908256","0.0-159.0-0.0","86164235","wem/bandit_party_1","A191V7PT3DQKDP","either","3","301","","","","","","","1","0","0","0.4459264202","","0.2","0.6","0.4","0.8","","","","","0.1715453935","0.2817260076","0.4459264202","0.283939031","","","","","","","","","","75","K","2","","","118","main_expt",""
"","bandit","198","910047","0.0-160.0-0.0","86164235","wem/bandit_party_1","A191V7PT3DQKDP","either","3","282","","","","","","","1","0","0","0.436995295","","0.2","0.6","0.4","0.8","","","","","0.1843456939","0.328214026","0.436995295","0.2992634423","","","","","","","","","","75","K","2","","","119","main_expt",""
"","bandit","199","911816","0.0-161.0-0.0","86164235","wem/bandit_party_1","A191V7PT3DQKDP","either","3","259","","","","","","","0","1","0","","0.4151314625","0.2","0.6","0.4","0.8","0.1848061615","0.3355603121","0.4151314625","0.1878150733","","","","","","","","","","","","","","75","K","2","","","120","main_expt",""
"","bandit","200","913561","0.0-162.0-0.0","86164235","wem/bandit_party_1","A191V7PT3DQKDP","either","3","236","","","","","","","1","0","0","0.4384064527","","0.2","0.6","0.4","0.8","","","","","0.1679578636","0.3829587724","0.4384064527","0.1447458933","","","","","","","","","","75","K","2","","","121","main_expt",""
"","bandit","201","915350","0.0-163.0-0.0","86164235","wem/bandit_party_1","A191V7PT3DQKDP","either","3","282","","","","","","","0","1","0","","0.4417589501","0.2","0.6","0.4","0.8","0.197295971","0.3995678287","0.4417589501","0.1176060398","","","","","","","","","","","","","","75","K","2","","","122","main_expt",""
"","bandit","202","917134","0.0-164.0-0.0","86164235","wem/bandit_party_1","A191V7PT3DQKDP","either","3","275","","","","","","","0","0","1","","0.4017154396","0.2","0.6","0.4","0.8","0.2184653352","0.3656739583","0.4017154396","0.1097677055","","","","","","","","","","","","","","75","K","2","","","123","main_expt",""
"","bandit","203","918910","0.0-165.0-0.0","86164235","wem/bandit_party_1","A191V7PT3DQKDP","either","3","270","","","","","","","0","1","0","","0.3619070526","0.2","0.6","0.4","0.8","0.2147868977","0.3862549257","0.3619070526","0.08048168986","","","","","","","","","","","","","","75","K","2","","","124","main_expt",""
"","bandit","204","920704","0.0-166.0-0.0","86164235","wem/bandit_party_1","A191V7PT3DQKDP","either","3","285","","","","","","","0","0","1","","0.3567490645","0.2","0.6","0.4","0.8","0.1667936559","0.3593796239","0.3567490645","0.07842900555","","","","","","","","","","","","","","75","K","2","","","125","main_expt",""
"","bandit","205","922471","0.0-167.0-0.0","86164235","wem/bandit_party_1","A191V7PT3DQKDP","either","3","259","","","","","","","0","0","1","","0.3558473019","0.2","0.6","0.4","0.8","0.1453295256","0.3413194209","0.3558473019","0.08318363027","","","","","","","","","","","","","","75","K","2","","","126","main_expt",""
"","bandit","206","924243","0.0-168.0-0.0","86164235","wem/bandit_party_1","A191V7PT3DQKDP","either","3","266","","","","","","","0","0","1","0.06812438963","","0.2","0.6","0.4","0.8","","","","","0.1635755653","0.3369929262","0.3543069734","0.06812438963","","","","","","","","","","76","L","3","","","127","main_expt",""
"","bandit","207","926376","0.0-169.0-0.0","86164235","wem/bandit_party_1","A191V7PT3DQKDP","either","3","626","","","","","","","0","0","1","","0.1872639566","0.2","0.6","0.4","0.8","0.1872639566","0.2922989636","0.3328374851","0.08303766286","","","","","","","","","","","","","","72","H","0","img/none_selected.jpg","","128","main_expt",""
"","bandit","208","928201","0.0-170.0-0.0","86164235","wem/bandit_party_1","A191V7PT3DQKDP","either","3","316","","","","","","","0","0","1","","0.3095146075","0.2","0.6","0.4","0.8","0.2032718864","0.3095146075","0.3238683282","0.09047360051","","","","","","","","","","","","","","74","J","1","","","129","main_expt",""
"","bandit","209","929984","0.0-171.0-0.0","86164235","wem/bandit_party_1","A191V7PT3DQKDP","either","3","277","","","","","","","0","0","1","0.2750329062","","0.2","0.6","0.4","0.8","","","","","0.2025864764","0.3068425872","0.2750329062","0.131542256","","","","","","","","","","75","K","2","","","130","main_expt",""
"","bandit","210","931760","0.0-172.0-0.0","86164235","wem/bandit_party_1","A191V7PT3DQKDP","either","3","268","","","","","","","0","0","1","0.1492019489","","0.2","0.6","0.4","0.8","","","","","0.2158584071","0.3112504131","0.2751886228","0.1492019489","","","","","","","","","","76","L","3","","","131","main_expt",""
"","bandit","211","933520","0.0-173.0-0.0","86164235","wem/bandit_party_1","A191V7PT3DQKDP","either","3","253","","","","","","","0","0","1","","0.2105840197","0.2","0.6","0.4","0.8","0.2105840197","0.3595653039","0.2729729886","0.1571188116","","","","","","","","","","","","","","72","H","0","img/none_selected.jpg","","132","main_expt",""
"","bandit","212","935259","0.0-174.0-0.0","86164235","wem/bandit_party_1","A191V7PT3DQKDP","either","3","231","","","","","","","0","1","0","","0.3873527377","0.2","0.6","0.4","0.8","0.2328486735","0.3873527377","0.3248088544","0.2021073832","","","","","","","","","","","","","","74","J","1","","","133","main_expt",""
"","bandit","213","937104","0.0-175.0-0.0","86164235","wem/bandit_party_1","A191V7PT3DQKDP","either","3","337","","","","","","","0","1","0","","0.3973884711","0.2","0.6","0.4","0.8","0.2589092944","0.3973884711","0.3596446835","0.2693148074","","","","","","","","","","","","","","74","J","1","","","134","main_expt",""
"","bandit","214","938889","0.0-176.0-0.0","86164235","wem/bandit_party_1","A191V7PT3DQKDP","either","3","277","","","","","","","0","0","1","0.4080523157","","0.2","0.6","0.4","0.8","","","","","0.2637326353","0.4080523157","0.318377279","0.2625780805","","","","","","","","","","74","J","1","","","135","main_expt",""
"","bandit","215","940705","0.0-177.0-0.0","86164235","wem/bandit_party_1","A191V7PT3DQKDP","either","3","308","","","","","","","0","0","1","0.4176503084","","0.2","0.6","0.4","0.8","","","","","0.2718680576","0.4176503084","0.3160887017","0.2981707722","","","","","","","","","","74","J","1","","","136","main_expt",""
"","bandit","216","942424","0.0-178.0-0.0","86164235","wem/bandit_party_1","A191V7PT3DQKDP","either","3","213","","","","","","","0","0","1","","0.2883225013","0.2","0.6","0.4","0.8","0.2919957672","0.3859803947","0.2883225013","0.3148158286","","","","","","","","","","","","","","75","K","2","","","137","main_expt",""
"","bandit","217","943960","0.0-179.0-0.0","86164235","wem/bandit_party_1","A191V7PT3DQKDP","either","3","28","","","","","","","0","0","1","","0.3111523267","0.2","0.6","0.4","0.8","0.3193993407","0.358492916","0.3009152141","0.3111523267","","","","","","","","","","","","","","76","L","3","","","138","main_expt",""
"","bandit","218","945626","0.0-180.0-0.0","86164235","wem/bandit_party_1","A191V7PT3DQKDP","either","3","160","","","","","","","0","1","0","","0.3404434035","0.2","0.6","0.4","0.8","0.3404434035","0.3608756281","0.293720077","0.3034593298","","","","","","","","","","","","","","72","H","0","img/none_selected.jpg","","139","main_expt",""
"","bandit","219","947400","0.0-181.0-0.0","86164235","wem/bandit_party_1","A191V7PT3DQKDP","either","3","266","","","","","","","0","0","1","","0.3278052243","0.2","0.6","0.4","0.8","0.3278052243","0.3421836092","0.286059761","0.2507495005","","","","","","","","","","","","","","72","H","0","img/none_selected.jpg","","140","main_expt",""
"","bandit","220","949232","0.0-182.0-0.0","86164235","wem/bandit_party_1","A191V7PT3DQKDP","either","3","323","","","","","","","0","0","1","0.3737340371","","0.2","0.6","0.4","0.8","","","","","0.3038906839","0.3737340371","0.2931724706","0.2220694513","","","","","","","","","","74","J","1","","","141","main_expt",""
"","bandit","221","950904","0.0-183.0-0.0","86164235","wem/bandit_party_1","A191V7PT3DQKDP","either","3","164","","","","","","","1","0","0","0.2182180164","","0.2","0.6","0.4","0.8","","","","","0.2924195757","0.3461121542","0.2182180164","0.2119249064","","","","","","","","","","75","K","2","","","142","main_expt",""
"","bandit","222","952672","0.0-184.0-0.0","86164235","wem/bandit_party_1","A191V7PT3DQKDP","either","3","261","","","","","","","0","0","1","","0.2015475508","0.2","0.6","0.4","0.8","0.2816149275","0.3305931074","0.2015475508","0.2665135591","","","","","","","","","","","","","","75","K","2","","","143","main_expt",""
"","bandit","223","954352","0.0-185.0-0.0","86164235","wem/bandit_party_1","A191V7PT3DQKDP","either","3","173","","","","","","","0","0","1","","0.2074070562","0.2","0.6","0.4","0.8","0.2355525614","0.3561039987","0.2074070562","0.2854155153","","","","","","","","","","","","","","75","K","2","","","144","main_expt",""
"","bandit","224","955915","0.0-186.0-0.0","86164235","wem/bandit_party_1","A191V7PT3DQKDP","either","3","55","","","","","","","1","0","0","0.2521048148","","0.2","0.6","0.4","0.8","","","","","0.2185662272","0.3648023512","0.1415368311","0.2521048148","","","","","","","","","","76","L","3","","","145","main_expt",""
"","bandit","225","958480","0.0-187.0-0.0","86164235","wem/bandit_party_1","A191V7PT3DQKDP","either","3","1058","","","","","","","1","0","0","0.2209315791","","0.2","0.6","0.4","0.8","","","","","0.2209315791","0.3450315","0.1549520657","0.2321266643","","","","","","","","","","72","H","0","img/none_selected.jpg","","146","main_expt",""
"","bandit","226","960296","0.0-188.0-0.0","86164235","wem/bandit_party_1","A191V7PT3DQKDP","either","3","310","","","","","","","0","0","1","","0.2889766311","0.2","0.6","0.4","0.8","0.2889766311","0.2720321141","0.1469310363","0.3159383216","","","","","","","","","","","","","","72","H","0","img/none_selected.jpg","","147","main_expt",""
"","bandit","227","961992","0.0-189.0-0.0","86164235","wem/bandit_party_1","A191V7PT3DQKDP","either","3","187","","","","","","","0","0","1","","0.2859466156","0.2","0.6","0.4","0.8","0.2859466156","0.2598972664","0.1332828417","0.2673485129","","","","","","","","","","","","","","72","H","0","img/none_selected.jpg","","148","main_expt",""
"","bandit","228","963760","0.0-190.0-0.0","86164235","wem/bandit_party_1","A191V7PT3DQKDP","either","3","261","","","","","","","0","0","1","0.2343157719","","0.2","0.6","0.4","0.8","","","","","0.2588478233","0.2343157719","0.1102010463","0.3348600541","","","","","","","","","","74","J","1","","","149","main_expt",""
"","bandit","229","965544","0.0-191.0-0.0","86164235","wem/bandit_party_1","A191V7PT3DQKDP","either","3","276","","","","","","","0","0","1","","0.1356103494","0.2","0.6","0.4","0.8","0.2224653457","0.2451363599","0.1356103494","0.3659656834","","","","","","","","","","","","","","75","K","2","","","150","main_expt",""
"","bandit","230","967314","0.0-192.0-0.0","86164235","wem/bandit_party_1","A191V7PT3DQKDP","either","3","263","","","","","","","1","0","0","0.36397653","","0.2","0.6","0.4","0.8","","","","","0.2387237716","0.2053737132","0.1621229287","0.36397653","","","","","","","","","","76","L","3","","","151","main_expt",""
"","bandit","231","969105","0.0-193.0-0.0","86164235","wem/bandit_party_1","A191V7PT3DQKDP","either","3","283","","","","","","","0","0","1","","0.3710672623","0.2","0.6","0.4","0.8","0.2519133504","0.2396242378","0.1412745606","0.3710672623","","","","","","","","","","","","","","76","L","3","","","152","main_expt",""
"","bandit","232","970888","0.0-194.0-0.0","86164235","wem/bandit_party_1","A191V7PT3DQKDP","either","3","275","","","","","","","0","0","1","0.3828607765","","0.2","0.6","0.4","0.8","","","","","0.3078499427","0.2923277395","0.1707580034","0.3828607765","","","","","","","","","","76","L","3","","","153","main_expt",""
"","bandit","233","972687","0.0-195.0-0.0","86164235","wem/bandit_party_1","A191V7PT3DQKDP","either","3","292","","","","","","","0","1","0","","0.3283820497","0.2","0.6","0.4","0.8","0.3283820497","0.3166515581","0.1717455462","0.3526468527","","","","","","","","","","","","","","72","H","0","img/none_selected.jpg","","154","main_expt",""
"","bandit","234","974456","0.0-196.0-0.0","86164235","wem/bandit_party_1","A191V7PT3DQKDP","either","3","258","","","","","","","0","1","0","","0.3303057687","0.2","0.6","0.4","0.8","0.3303057687","0.3194616596","0.1785539081","0.3865981945","","","","","","","","","","","","","","72","H","0","img/none_selected.jpg","","155","main_expt",""
"","bandit","235","976232","0.0-197.0-0.0","86164235","wem/bandit_party_1","A191V7PT3DQKDP","either","3","268","","","","","","","0","1","0","","0.3178912443","0.2","0.6","0.4","0.8","0.3178912443","0.3767011333","0.2175815231","0.4328422877","","","","","","","","","","","","","","72","H","0","img/none_selected.jpg","","156","main_expt",""
"","bandit","236","978019","0.0-198.0-0.0","86164235","wem/bandit_party_1","A191V7PT3DQKDP","either","3","278","","","","","","","0","1","0","","0.3236874272","0.2","0.6","0.4","0.8","0.3236874272","0.3853144204","0.216674397","0.4224906378","","","","","","","","","","","","","","72","H","0","img/none_selected.jpg","","157","main_expt",""
"","bandit","237","979800","0.0-199.0-0.0","86164235","wem/bandit_party_1","A191V7PT3DQKDP","either","3","274","","","","","","","0","1","0","","0.3731337511","0.2","0.6","0.4","0.8","0.3731337511","0.3519128793","0.2184316938","0.4428847078","","","","","","","","","","","","","","72","H","0","img/none_selected.jpg","","158","main_expt",""
"","bandit","238","981592","0.0-200.0-0.0","86164235","wem/bandit_party_1","A191V7PT3DQKDP","either","3","284","","","","","","","1","0","0","0.3758107074","","0.2","0.6","0.4","0.8","","","","","0.3758107074","0.3255157266","0.2603966468","0.4498083842","","","","","","","","","","72","H","0","img/none_selected.jpg","","159","main_expt",""
"","bandit","239","983427","0.0-201.0-0.0","86164235","wem/bandit_party_1","A191V7PT3DQKDP","either","3","323","","","","","","","0","0","1","","0.3494215766","0.2","0.6","0.4","0.8","0.3494215766","0.379238532","0.2242017374","0.4319550234","","","","","","","","","","","","","","72","H","0","img/none_selected.jpg","","160","main_expt",""
"","bandit","240","985211","0.0-202.0-0.0","86164235","wem/bandit_party_1","A191V7PT3DQKDP","either","3","277","","","","","","","0","0","1","","0.3327111917","0.2","0.6","0.4","0.8","0.3327111917","0.3776335756","0.2014027125","0.4417514389","","","","","","","","","","","","","","72","H","0","img/none_selected.jpg","","161","main_expt",""
"","bandit","241","987011","0.0-203.0-0.0","86164235","wem/bandit_party_1","A191V7PT3DQKDP","either","3","290","","","","","","","0","0","1","0.2955751891","","0.2","0.6","0.4","0.8","","","","","0.3171011618","0.2955751891","0.2038621466","0.4081293495","","","","","","","","","","74","J","1","","","162","main_expt",""
"","bandit","242","988748","0.0-204.0-0.0","86164235","wem/bandit_party_1","A191V7PT3DQKDP","either","3","230","","","","","","","0","0","1","","0.1238136799","0.2","0.6","0.4","0.8","0.364183239","0.30851492","0.1238136799","0.4265776113","","","","","","","","","","","","","","75","K","2","","","163","main_expt",""
"","bandit","243","990522","0.0-205.0-0.0","86164235","wem/bandit_party_1","A191V7PT3DQKDP","either","3","263","","","","","","","0","0","1","0.427472809","","0.2","0.6","0.4","0.8","","","","","0.3917374524","0.3074756362","0.1104941302","0.427472809","","","","","","","","","","76","L","3","","","164","main_expt",""
"","bandit","244","992235","0.0-206.0-0.0","86164235","wem/bandit_party_1","A191V7PT3DQKDP","either","3","202","","","","","","","0","1","0","","0.3629360172","0.2","0.6","0.4","0.8","0.3629360172","0.2743039079","0.1099358877","0.4016343469","","","","","","","","","","","","","","72","H","0","img/none_selected.jpg","","165","main_expt",""
"","bandit","245","994019","0.0-207.0-0.0","86164235","wem/bandit_party_1","A191V7PT3DQKDP","either","3","276","","","","","","","1","0","0","0.3697042915","","0.2","0.6","0.4","0.8","","","","","0.3697042915","0.2900226329","0.08082918558","0.3578169927","","","","","","","","","","72","H","0","img/none_selected.jpg","","166","main_expt",""
"","bandit","246","995747","0.0-208.0-0.0","86164235","wem/bandit_party_1","A191V7PT3DQKDP","either","3","221","","","","","","","0","0","1","","0.3626443337","0.2","0.6","0.4","0.8","0.3626443337","0.3444017494","0.08539074978","0.3346076013","","","","","","","","","","","","","","72","H","0","img/none_selected.jpg","","167","main_expt",""
"","bandit","247","997499","0.0-209.0-0.0","86164235","wem/bandit_party_1","A191V7PT3DQKDP","either","3","244","","","","","","","0","1","0","","0.3488380128","0.2","0.6","0.4","0.8","0.3488380128","0.3934904689","0.1307687804","0.36326211","","","","","","","","","","","","","","72","H","0","img/none_selected.jpg","","168","main_expt",""
"","bandit","248","999292","0.0-210.0-0.0","86164235","wem/bandit_party_1","A191V7PT3DQKDP","either","3","283","","","","","","","0","0","1","0.3338465455","","0.2","0.6","0.4","0.8","","","","","0.3338465455","0.3712778229","0.09435724838","0.3389060657","","","","","","","","","","72","H","0","img/none_selected.jpg","","169","main_expt",""
"","bandit","249","1001124","0.0-211.0-0.0","86164235","wem/bandit_party_1","A191V7PT3DQKDP","either","3","323","","","","","","","0","0","1","","0.3675902536","0.2","0.6","0.4","0.8","0.3675902536","0.3348119161","0.09371103674","0.3820287301","","","","","","","","","","","","","","72","H","0","img/none_selected.jpg","","170","main_expt",""
"","bandit","250","1002722","0.0-212.0-0.0","86164235","wem/bandit_party_1","A191V7PT3DQKDP","either","3","91","","","","","","","0","0","1","","0.3697689907","0.2","0.6","0.4","0.8","0.3663425941","0.3697689907","0.0912992704","0.3738350687","","","","","","","","","","","","","","74","J","1","","","171","main_expt",""
"","bandit","251","1004523","0.0-213.0-0.0","86164235","wem/bandit_party_1","A191V7PT3DQKDP","either","3","290","","","","","","","0","1","0","","0.1053216192","0.2","0.6","0.4","0.8","0.3571019768","0.3438364448","0.1053216192","0.3449486646","","","","","","","","","","","","","","75","K","2","","","172","main_expt",""
"","bandit","252","1006323","0.0-214.0-0.0","86164235","wem/bandit_party_1","A191V7PT3DQKDP","either","3","292","","","","","","","0","0","1","","0.1119971747","0.2","0.6","0.4","0.8","0.383943734","0.4064517123","0.1119971747","0.3754463001","","","","","","","","","","","","","","75","K","2","","","173","main_expt",""
"","bandit","253","1008082","0.0-215.0-0.0","86164235","wem/bandit_party_1","A191V7PT3DQKDP","either","3","250","","","","","","","0","0","1","","0.1049574405","0.2","0.6","0.4","0.8","0.378453819","0.4266345201","0.1049574405","0.3983783957","","","","","","","","","","","","","","75","K","2","","","174","main_expt",""
"","bandit","254","1009837","0.0-216.0-0.0","86164235","wem/bandit_party_1","A191V7PT3DQKDP","either","3","246","","","","","","","0","0","1","0.4176958341","","0.2","0.6","0.4","0.8","","","","","0.3577460836","0.4413212306","0.07351671593","0.4176958341","","","","","","","","","","76","L","3","","","175","main_expt",""
"","bandit","255","1011627","0.0-217.0-0.0","86164235","wem/bandit_party_1","A191V7PT3DQKDP","either","3","283","","","","","","","0","1","0","","0.3346789668","0.2","0.6","0.4","0.8","0.3346789668","0.438548454","0.06097876817","0.4336280271","","","","","","","","","","","","","","72","H","0","img/none_selected.jpg","","176","main_expt",""
"","bandit","256","1013435","0.0-218.0-0.0","86164235","wem/bandit_party_1","A191V7PT3DQKDP","either","3","299","","","","","","","0","1","0","","0.3720341948","0.2","0.6","0.4","0.8","0.3720341948","0.4350726265","0.05873143133","0.3863917124","","","","","","","","","","","","","","72","H","0","img/none_selected.jpg","","177","main_expt",""
"","bandit","257","1015347","0.0-219.0-0.0","86164235","wem/bandit_party_1","A191V7PT3DQKDP","either","3","404","","","","","","","0","0","1","","0.4243236705","0.2","0.6","0.4","0.8","0.4243236705","0.4029859975","0.07829718294","0.3826512014","","","","","","","","","","","","","","72","H","0","img/none_selected.jpg","","178","main_expt",""
"","bandit","258","1017003","0.0-220.0-0.0","86164235","wem/bandit_party_1","A191V7PT3DQKDP","either","3","148","","","","","","","0","0","1","","0.4396564102","0.2","0.6","0.4","0.8","0.4396564102","0.3738585124","0.05868413977","0.3681046487","","","","","","","","","","","","","","72","H","0","img/none_selected.jpg","","179","main_expt",""
"","bandit","259","1018668","0.0-221.0-0.0","86164235","wem/bandit_party_1","A191V7PT3DQKDP","either","3","157","","","","","","","0","0","1","0.3884150149","","0.2","0.6","0.4","0.8","","","","","0.4501825932","0.3884150149","0.04540529238","0.374340785","","","","","","","","","","74","J","1","","","180","main_expt",""
"","bandit","260","1020372","0.0-222.0-0.0","86164235","wem/bandit_party_1","A191V7PT3DQKDP","either","3","196","","","","","","","0","0","1","0.04810206047","","0.2","0.6","0.4","0.8","","","","","0.4527537228","0.3977335033","0.04810206047","0.3844034803","","","","","","","","","","75","K","2","","","181","main_expt",""
"","bandit","261","1022026","0.0-223.0-0.0","86164235","wem/bandit_party_1","A191V7PT3DQKDP","either","3","146","","","","","","","0","1","0","","0.3569363444","0.2","0.6","0.4","0.8","0.4733821952","0.4194204302","0.0564969073","0.3569363444","","","","","","","","","","","","","","76","L","3","","","182","main_expt",""
"","bandit","262","1023803","0.0-224.0-0.0","86164235","wem/bandit_party_1","A191V7PT3DQKDP","either","3","267","","","","","","","0","0","1","0.3930074682","","0.2","0.6","0.4","0.8","","","","","0.4741352064","0.4050300101","0.06674959941","0.3930074682","","","","","","","","","","76","L","3","","","183","main_expt",""
"","bandit","263","1025554","0.0-225.0-0.0","86164235","wem/bandit_party_1","A191V7PT3DQKDP","either","3","243","","","","","","","0","0","1","0.4105724965","","0.2","0.6","0.4","0.8","","","","","0.4835015011","0.4272992256","0.05730522946","0.4105724965","","","","","","","","","","76","L","3","","","184","main_expt",""
"","bandit","264","1027099","0.0-226.0-0.0","86164235","wem/bandit_party_1","A191V7PT3DQKDP","either","3","37","","","","","","","0","0","1","","0.4907566516","0.2","0.6","0.4","0.8","0.4907566516","0.4213026748","0.0759668512","0.4230276401","","","","","","","","","","","","","","72","H","0","img/none_selected.jpg","","185","main_expt",""
"","bandit","265","1028836","0.0-227.0-0.0","86164235","wem/bandit_party_1","A191V7PT3DQKDP","either","3","225","","","","","","","0","0","1","","0.3729626057","0.2","0.6","0.4","0.8","0.4777100538","0.3729626057","0.0736669194","0.4243078066","","","","","","","","","","","","","","74","J","1","","","186","main_expt",""
"","bandit","266","1030620","0.0-228.0-0.0","86164235","wem/bandit_party_1","A191V7PT3DQKDP","either","3","277","","","","","","","0","0","1","","0.1020870739","0.2","0.6","0.4","0.8","0.4751658893","0.4022080601","0.1020870739","0.419104652","","","","","","","","","","","","","","75","K","2","","","187","main_expt",""
"","bandit","267","1032299","0.0-229.0-0.0","86164235","wem/bandit_party_1","A191V7PT3DQKDP","either","3","169","","","","","","","0","0","1","0.3917910895","","0.2","0.6","0.4","0.8","","","","","0.4711403756","0.4218987807","0.110066606","0.3917910895","","","","","","","","","","76","L","3","","","188","main_expt",""
"","bandit","268","1033971","0.0-230.0-0.0","86164235","wem/bandit_party_1","A191V7PT3DQKDP","either","3","163","","","","","","","0","1","0","","0.4848283219","0.2","0.6","0.4","0.8","0.4848283219","0.4284519853","0.1616324423","0.3696037293","","","","","","","","","","","","","","72","H","0","img/none_selected.jpg","","189","main_expt",""
"","bandit","269","1035746","0.0-231.0-0.0","86164235","wem/bandit_party_1","A191V7PT3DQKDP","either","3","268","","","","","","","0","1","0","","0.4906713727","0.2","0.6","0.4","0.8","0.4906713727","0.4104863902","0.1401199573","0.3722688899","","","","","","","","","","","","","","72","H","0","img/none_selected.jpg","","190","main_expt",""
"","bandit","270","1037556","0.0-232.0-0.0","86164235","wem/bandit_party_1","A191V7PT3DQKDP","either","3","299","","","","","","","0","0","1","0.4944082075","","0.2","0.6","0.4","0.8","","","","","0.4944082075","0.4071825693","0.1782786715","0.3956575009","","","","","","","","","","72","H","0","img/none_selected.jpg","","191","main_expt",""
"","bandit","271","1039338","0.0-233.0-0.0","86164235","wem/bandit_party_1","A191V7PT3DQKDP","either","3","272","","","","","","","0","0","1","","0.4922337742","0.2","0.6","0.4","0.8","0.4922337742","0.4172763132","0.203517815","0.3843500594","","","","","","","","","","","","","","72","H","0","img/none_selected.jpg","","192","main_expt",""
"","bandit","272","1041091","0.0-234.0-0.0","86164235","wem/bandit_party_1","A191V7PT3DQKDP","either","3","244","","","","","","","1","0","0","0.3965334946","","0.2","0.6","0.4","0.8","","","","","0.4887356563","0.3965334946","0.172030281","0.3801723293","","","","","","","","","","74","J","1","","","193","main_expt",""
"","bandit","273","1042875","0.0-235.0-0.0","86164235","wem/bandit_party_1","A191V7PT3DQKDP","either","3","275","","","","","","","0","0","1","0.383316574","","0.2","0.6","0.4","0.8","","","","","0.4850955297","0.383316574","0.1813301739","0.3871645121","","","","","","","","","","74","J","1","","","194","main_expt",""
"","bandit","274","1044549","0.0-236.0-0.0","86164235","wem/bandit_party_1","A191V7PT3DQKDP","either","3","162","","","","","","","1","0","0","0.3965345796","","0.2","0.6","0.4","0.8","","","","","0.4848341758","0.3965345796","0.2284295163","0.3633903175","","","","","","","","","","74","J","1","","","195","main_expt",""
"","bandit","275","1046349","0.0-237.0-0.0","86164235","wem/bandit_party_1","A191V7PT3DQKDP","either","3","291","","","","","","","1","0","0","0.3978469093","","0.2","0.6","0.4","0.8","","","","","0.490049139","0.3978469093","0.2501246714","0.3811675741","","","","","","","","","","74","J","1","","","196","main_expt",""
"","bandit","276","1048245","0.0-238.0-0.0","86164235","wem/bandit_party_1","A191V7PT3DQKDP","either","3","387","","","","","","","0","0","1","","0.3172926233","0.2","0.6","0.4","0.8","0.4912643012","0.3172926233","0.3150809007","0.3487868089","","","","","","","","","","","","","","74","J","1","","","197","main_expt",""
"","bandit","277","1050093","0.0-239.0-0.0","86164235","wem/bandit_party_1","A191V7PT3DQKDP","either","3","338","","","","","","","0","0","1","0.3113170709","","0.2","0.6","0.4","0.8","","","","","0.4793615714","0.3113170709","0.3442077965","0.2986771554","","","","","","","","","","74","J","1","","","198","main_expt",""
"","bandit","278","1051896","0.0-240.0-0.0","86164235","wem/bandit_party_1","A191V7PT3DQKDP","either","3","294","","","","","","","0","0","1","","0.3675051223","0.2","0.6","0.4","0.8","0.4661622676","0.3066116159","0.3675051223","0.3481418533","","","","","","","","","","","","","","75","K","2","","","199","main_expt",""
"","bandit","279","1053708","0.0-241.0-0.0","86164235","wem/bandit_party_1","A191V7PT3DQKDP","either","3","302","","","","","","","0","0","1","","0.353319573","0.2","0.6","0.4","0.8","0.4479238565","0.2521122026","0.3044821291","0.353319573","","","","","","","","","","","","","","76","L","3","","","200","main_expt",""
"","bandit","280","1055436","0.0-242.0-0.0","86164235","wem/bandit_party_1","A191V7PT3DQKDP","either","3","218","","","","","","","0","1","0","","0.4429166455","0.2","0.6","0.4","0.8","0.4429166455","0.2679963248","0.3013824411","0.3676338631","","","","","","","","","","","","","","72","H","0","img/none_selected.jpg","","201","main_expt",""
"","bandit","281","1057260","0.0-243.0-0.0","86164235","wem/bandit_party_1","A191V7PT3DQKDP","either","3","312","","","","","","","0","1","0","","0.442820363","0.2","0.6","0.4","0.8","0.442820363","0.2076546236","0.3001954661","0.311657493","","","","","","","","","","","","","","72","H","0","img/none_selected.jpg","","202","main_expt",""
"","bandit","282","1059060","0.0-244.0-0.0","86164235","wem/bandit_party_1","A191V7PT3DQKDP","either","3","290","","","","","","","0","0","1","","0.4539008368","0.2","0.6","0.4","0.8","0.4539008368","0.1881707852","0.3189156814","0.3364041998","","","","","","","","","","","","","","72","H","0","img/none_selected.jpg","","203","main_expt",""
"","bandit","283","1060893","0.0-245.0-0.0","86164235","wem/bandit_party_1","A191V7PT3DQKDP","either","3","320","","","","","","","0","1","0","","0.4163307037","0.2","0.6","0.4","0.8","0.4163307037","0.2057853427","0.3162062407","0.3148670147","","","","","","","","","","","","","","72","H","0","img/none_selected.jpg","","204","main_expt",""
"","bandit","284","1062758","0.0-246.0-0.0","86164235","wem/bandit_party_1","A191V7PT3DQKDP","either","3","357","","","","","","","0","0","1","","0.4045388199","0.2","0.6","0.4","0.8","0.4045388199","0.2564451259","0.347278619","0.3293187519","","","","","","","","","","","","","","72","H","0","img/none_selected.jpg","","205","main_expt",""
"","bandit","285","1064565","0.0-247.0-0.0","86164235","wem/bandit_party_1","A191V7PT3DQKDP","either","3","300","","","","","","","0","1","0","","0.4083422121","0.2","0.6","0.4","0.8","0.4083422121","0.3082896296","0.2970129147","0.2705077244","","","","","","","","","","","","","","72","H","0","img/none_selected.jpg","","206","main_expt",""
"","bandit","286","1066357","0.0-248.0-0.0","86164235","wem/bandit_party_1","A191V7PT3DQKDP","either","3","283","","","","","","","0","0","1","","0.4033585138","0.2","0.6","0.4","0.8","0.4033585138","0.3235103938","0.3331481178","0.3083591011","","","","","","","","","","","","","","72","H","0","img/none_selected.jpg","","207","main_expt",""
"","bandit","287","1068101","0.0-249.0-0.0","86164235","wem/bandit_party_1","A191V7PT3DQKDP","either","3","234","","","","","","","0","0","1","0.3753320851","","0.2","0.6","0.4","0.8","","","","","0.3753320851","0.3563539536","0.3195917859","0.2489273718","","","","","","","","","","72","H","0","img/none_selected.jpg","","208","main_expt",""
"","bandit","288","1069917","0.0-250.0-0.0","86164235","wem/bandit_party_1","A191V7PT3DQKDP","either","3","307","","","","","","","0","0","1","","0.3864970555","0.2","0.6","0.4","0.8","0.3864970555","0.3821305916","0.3642345195","0.2224321457","","","","","","","","","","","","","","72","H","0","img/none_selected.jpg","","209","main_expt",""
"","bandit","289","1071732","0.0-251.0-0.0","86164235","wem/bandit_party_1","A191V7PT3DQKDP","either","3","308","","","","","","","1","0","0","0.4067483812","","0.2","0.6","0.4","0.8","","","","","0.3894881908","0.4067483812","0.3518797164","0.2184729634","","","","","","","","","","74","J","1","","","210","main_expt",""
"","bandit","290","1073519","0.0-252.0-0.0","86164235","wem/bandit_party_1","A191V7PT3DQKDP","either","3","279","","","","","","","0","1","0","","0.376825818","0.2","0.6","0.4","0.8","0.4052823736","0.376825818","0.3781537602","0.2178464352","","","","","","","","","","","","","","74","J","1","","","211","main_expt",""
"","bandit","291","1075308","0.0-253.0-0.0","86164235","wem/bandit_party_1","A191V7PT3DQKDP","either","3","280","","","","","","","0","0","1","0.3481764155","","0.2","0.6","0.4","0.8","","","","","0.3783189977","0.3481764155","0.3773353051","0.1644702768","","","","","","","","","","74","J","1","","","212","main_expt",""
"","bandit","292","1077084","0.0-254.0-0.0","86164235","wem/bandit_party_1","A191V7PT3DQKDP","either","3","266","","","","","","","1","0","0","0.3239198888","","0.2","0.6","0.4","0.8","","","","","0.3804187243","0.3239198888","0.3448860985","0.1271660564","","","","","","","","","","74","J","1","","","213","main_expt",""
"","bandit","293","1078949","0.0-255.0-0.0","86164235","wem/bandit_party_1","A191V7PT3DQKDP","either","3","354","","","","","","","0","0","1","","0.3592643085","0.2","0.6","0.4","0.8","0.3964056757","0.3592643085","0.3622000499","0.1368129038","","","","","","","","","","","","","","74","J","1","","","214","main_expt",""
"","bandit","294","1080669","0.0-256.0-0.0","86164235","wem/bandit_party_1","A191V7PT3DQKDP","either","3","209","","","","","","","0","0","1","0.3482739819","","0.2","0.6","0.4","0.8","","","","","0.3939862607","0.3482739819","0.3408682726","0.07615368859","","","","","","","","","","74","J","1","","","215","main_expt",""
"","bandit","295","1082444","0.0-257.0-0.0","86164235","wem/bandit_party_1","A191V7PT3DQKDP","either","3","265","","","","","","","0","1","0","","0.328819006","0.2","0.6","0.4","0.8","0.4062496234","0.2972527025","0.328819006","0.07711559412","","","","","","","","","","","","","","75","K","2","","","216","main_expt",""
"","bandit","296","1084254","0.0-258.0-0.0","86164235","wem/bandit_party_1","A191V7PT3DQKDP","either","3","298","","","","","","","0","0","1","0.3229374792","","0.2","0.6","0.4","0.8","","","","","0.3440498305","0.2850944341","0.3229374792","0.07728173513","","","","","","","","","","75","K","2","","","217","main_expt",""
"","bandit","297","1085988","0.0-259.0-0.0","86164235","wem/bandit_party_1","A191V7PT3DQKDP","either","3","224","","","","","","","0","0","1","","0.3616220652","0.2","0.6","0.4","0.8","0.3198020565","0.2483413171","0.3616220652","0.07919919155","","","","","","","","","","","","","","75","K","2","","","218","main_expt",""
"","bandit","298","1087628","0.0-260.0-0.0","86164235","wem/bandit_party_1","A191V7PT3DQKDP","either","3","132","","","","","","","1","0","0","0.1270410367","","0.2","0.6","0.4","0.8","","","","","0.3078290176","0.2680513607","0.3591176528","0.1270410367","","","","","","","","","","76","L","3","","","219","main_expt",""
"","bandit","299","1089468","0.0-261.0-0.0","86164235","wem/bandit_party_1","A191V7PT3DQKDP","either","3","331","","","","","","","0","0","1","0.1117499599","","0.2","0.6","0.4","0.8","","","","","0.2961895162","0.304668496","0.2758994579","0.1117499599","","","","","","","","","","76","L","3","","","220","main_expt",""
"","bandit","300","1091164","0.0-262.0-0.0","86164235","wem/bandit_party_1","A191V7PT3DQKDP","either","3","184","","","","","","","0","0","1","0.1186324211","","0.2","0.6","0.4","0.8","","","","","0.2658603678","0.2773284289","0.3119987931","0.1186324211","","","","","","","","","","76","L","3","","","221","main_expt",""
"","bandit","301","1092884","0.0-263.0-0.0","86164235","wem/bandit_party_1","A191V7PT3DQKDP","either","3","210","","","","","","","0","1","0","","0.274695037","0.2","0.6","0.4","0.8","0.274695037","0.2152506718","0.3106374463","0.1141050397","","","","","","","","","","","","","","72","H","0","img/none_selected.jpg","","222","main_expt",""
"","bandit","302","1094695","0.0-264.0-0.0","86164235","wem/bandit_party_1","A191V7PT3DQKDP","either","3","300","","","","","","","0","1","0","","0.2210940289","0.2","0.6","0.4","0.8","0.2210940289","0.2445797097","0.3131570504","0.1007228699","","","","","","","","","","","","","","72","H","0","img/none_selected.jpg","","223","main_expt",""
"","bandit","303","1096445","0.0-265.0-0.0","86164235","wem/bandit_party_1","A191V7PT3DQKDP","either","3","239","","","","","","","0","0","1","","0.1843933297","0.2","0.6","0.4","0.8","0.1843933297","0.2559263424","0.3025994915","0.1380584308","","","","","","","","","","","","","","72","H","0","img/none_selected.jpg","","224","main_expt",""
"","bandit","304","1098222","0.0-266.0-0.0","86164235","wem/bandit_party_1","A191V7PT3DQKDP","either","3","265","","","","","","","0","0","1","","0.212211923","0.2","0.6","0.4","0.8","0.212211923","0.2702522324","0.2994132709","0.1393521225","","","","","","","","","","","","","","72","H","0","img/none_selected.jpg","","225","main_expt",""
"","bandit","305","1099925","0.0-267.0-0.0","86164235","wem/bandit_party_1","A191V7PT3DQKDP","either","3","195","","","","","","","0","0","1","0.2646860425","","0.2","0.6","0.4","0.8","","","","","0.2315036379","0.2646860425","0.2866794375","0.2094269877","","","","","","","","","","74","J","1","","","226","main_expt",""
"","bandit","306","1101692","0.0-268.0-0.0","86164235","wem/bandit_party_1","A191V7PT3DQKDP","either","3","258","","","","","","","0","0","1","0.269556559","","0.2","0.6","0.4","0.8","","","","","0.2646353212","0.269556559","0.2299222882","0.2959232149","","","","","","","","","","74","J","1","","","227","main_expt",""
"","bandit","307","1103469","0.0-269.0-0.0","86164235","wem/bandit_party_1","A191V7PT3DQKDP","either","3","269","","","","","","","0","1","0","","0.2991813551","0.2","0.6","0.4","0.8","0.2443517867","0.2498152532","0.2991813551","0.374355758","","","","","","","","","","","","","","75","K","2","","","228","main_expt",""
"","bandit","308","1105234","0.0-270.0-0.0","86164235","wem/bandit_party_1","A191V7PT3DQKDP","either","3","253","","","","","","","0","1","0","","0.3295538921","0.2","0.6","0.4","0.8","0.2569692975","0.2495566458","0.3295538921","0.3876740502","","","","","","","","","","","","","","75","K","2","","","229","main_expt",""
"","bandit","309","1107015","0.0-271.0-0.0","86164235","wem/bandit_party_1","A191V7PT3DQKDP","either","3","271","","","","","","","0","0","1","","0.2713593359","0.2","0.6","0.4","0.8","0.2490290172","0.2134382902","0.2713593359","0.3341674595","","","","","","","","","","","","","","75","K","2","","","230","main_expt",""
"","bandit","310","1108664","0.0-272.0-0.0","86164235","wem/bandit_party_1","A191V7PT3DQKDP","either","3","138","","","","","","","0","0","1","","0.2746975787","0.2","0.6","0.4","0.8","0.2368643707","0.2099205747","0.2746975787","0.3558281537","","","","","","","","","","","","","","75","K","2","","","231","main_expt",""
"","bandit","311","1110360","0.0-273.0-0.0","86164235","wem/bandit_party_1","A191V7PT3DQKDP","either","3","185","","","","","","","0","0","1","0.3293076861","","0.2","0.6","0.4","0.8","","","","","0.2857324616","0.1598609145","0.2817934899","0.3293076861","","","","","","","","","","76","L","3","","","232","main_expt",""
"","bandit","312","1112175","0.0-274.0-0.0","86164235","wem/bandit_party_1","A191V7PT3DQKDP","either","3","303","","","","","","","0","0","1","","0.226619475","0.2","0.6","0.4","0.8","0.226619475","0.1472569172","0.3139736629","0.3271309306","","","","","","","","","","","","","","72","H","0","img/none_selected.jpg","","233","main_expt",""
"","bandit","313","1113841","0.0-275.0-0.0","86164235","wem/bandit_party_1","A191V7PT3DQKDP","either","3","154","","","","","","","0","0","1","0.1123375355","","0.2","0.6","0.4","0.8","","","","","0.2448251662","0.1123375355","0.3332560948","0.3510228885","","","","","","","","","","74","J","1","","","234","main_expt",""
