"consent","trial_type","trial_index","time_elapsed","internal_node_id","subjID","study","MID","cond","drift","rt","responses","button_pressed","key_press","like","value","connected","gems","bombs","no_reward","GemPrChosen","BombPrChosen","GainOverPainPr_0","GainOverPainPr_1","GainOverPainPr_2","GainOverPainPr_3","LosePr_0","LosePr_1","LosePr_2","LosePr_3","WinPr_0","WinPr_1","WinPr_2","WinPr_3","Q0","Q1","Q2","gender","age","ethnicity","label","expt_phase","target","respCharCode","respKey","respChoiceNum","respChoice","practice","trial_counter","trial_label","Q0_index","view_history"
"GDM/GDM_behavioral_consent_30min_online.html","consent","0","14838","0.0-0.0","86971418","wem/bandit_party_1","A1KLWHCGSS8WXD","either","1","","","","","","","","","","","","","","","","","","","","","","","","","","","","","","","","","","","","","","","","","",""
"","survey-text","1","22545","0.0-1.0","86971418","wem/bandit_party_1","A1KLWHCGSS8WXD","either","1","6672","{""Q0"":""A1KLWHCGSS8WXD""}","","","","","","","","","","","","","","","","","","","","","","","","","","","","","","","","","","","","","","","",""
"","button-response","2","25710","0.0-2.0","86971418","wem/bandit_party_1","A1KLWHCGSS8WXD","either","1","2130","","1","","","","","","","","","","","","","","","","","","","","","","","","","","","","","","","","","","","","","","",""
"","text-replacement","3","37645","0.0-3.0","86971418","wem/bandit_party_1","A1KLWHCGSS8WXD","either","1","10925","","","32","","","","","","","","","","","","","","","","","","","","","","","","","","","","","","","","","","","","","",""
"","text-replacement","4","46534","0.0-4.0","86971418","wem/bandit_party_1","A1KLWHCGSS8WXD","either","1","8877","","","32","","","","","","","","","","","","","","","","","","","","","","","","","","","","","","","","","","","","","",""
"","identification","5","60724","0.0-6.0-0.0","86971418","wem/bandit_party_1","A1KLWHCGSS8WXD","either","1","14119","","","","5","5","3","","","","","","","","","","","","","","","","","","","","","","","","pre","identification_pre","the Democratic Party","","","","","","","","",""
"","identification","6","68452","0.0-6.0-1.0","86971418","wem/bandit_party_1","A1KLWHCGSS8WXD","either","1","6662","","","","0","0","0","","","","","","","","","","","","","","","","","","","","","","","","pre","identification_pre","the Republican party","","","","","","","","",""
"","text-replacement","7","75097","0.0-7.0","86971418","wem/bandit_party_1","A1KLWHCGSS8WXD","either","1","5630","","","32","","","","","","","","","","","","","","","","","","","","","","","","","","","","","","","","","","","","","",""
"","text-replacement","8","86331","0.0-8.0","86971418","wem/bandit_party_1","A1KLWHCGSS8WXD","either","1","11222","","","32","","","","","","","","","","","","","","","","","","","","","","","","","","","","","","","","","","","","","",""
"","text-replacement","9","111073","0.0-9.0","86971418","wem/bandit_party_1","A1KLWHCGSS8WXD","either","1","24730","","","32","","","","","","","","","","","","","","","","","","","","","","","","","","","","","","","","","","","","","",""
"","text-replacement","10","113661","0.0-10.0","86971418","wem/bandit_party_1","A1KLWHCGSS8WXD","either","1","2576","","","32","","","","","","","","","","","","","","","","","","","","","","","","","","","","","","","","","","","","","",""
"","text-replacement","11","115014","0.0-11.0","86971418","wem/bandit_party_1","A1KLWHCGSS8WXD","either","1","1345","","","32","","","","","","","","","","","","","","","","","","","","","","","","","","","","","","","","","","","","","",""
"","bandit","12","119327","0.0-12.0-0.0","86971418","wem/bandit_party_1","A1KLWHCGSS8WXD","either","1","2769","","","","","","","0","0","1","0","0","","","","","0","","","","0","","","","","","","","","","","","","74","J","0","img/none_selected_demo.jpg","true","0","","",""
"","bandit","13","121580","0.0-13.0-0.0","86971418","wem/bandit_party_1","A1KLWHCGSS8WXD","either","1","723","","","","","","","0","0","1","0","0","","","","","0","","","","0","","","","","","","","","","","","","75","K","0","img/none_selected_demo.jpg","true","0","","",""
"","text-replacement","14","132651","0.0-14.0","86971418","wem/bandit_party_1","A1KLWHCGSS8WXD","either","1","11065","","","32","","","","","","","","","","","","","","","","","","","","","","","","","","","","","","","","","","","","","",""
"","text-replacement","15","139010","0.0-15.0","86971418","wem/bandit_party_1","A1KLWHCGSS8WXD","either","1","6355","","","32","","","","","","","","","","","","","","","","","","","","","","","","","","","","","","","","","","","","","",""
"","text-replacement","16","143968","0.0-16.0","86971418","wem/bandit_party_1","A1KLWHCGSS8WXD","either","1","4946","","","32","","","","","","","","","","","","","","","","","","","","","","","","","","","","","","","","","","","","","",""
"","text-replacement","17","146470","0.0-17.0","86971418","wem/bandit_party_1","A1KLWHCGSS8WXD","either","1","2498","","","32","","","","","","","","","","","","","","","","","","","","","","","","","","","","","","","","","","","","","",""
"","bandit","18","153879","0.0-18.0-0.0","86971418","wem/bandit_party_1","A1KLWHCGSS8WXD","either","1","5893","","","","","","","0","1","0","","0.8","0.5","0.5","","","0.8","0.2","","","","","","","","","","","","","","","","74","J","0","img/none_selected_demo.jpg","true","0","80_20_practice","",""
"","bandit","19","159543","0.0-18.0-1.0","86971418","wem/bandit_party_1","A1KLWHCGSS8WXD","either","1","4135","","","","","","","0","0","1","","0.2","0.5","0.5","","","0.8","0.2","","","","","","","","","","","","","","","","75","K","1","","true","0","80_20_practice","",""
"","bandit","20","163056","0.0-18.0-2.0","86971418","wem/bandit_party_1","A1KLWHCGSS8WXD","either","1","1983","","","","","","","1","0","0","0.8","","0.5","0.5","","","","","","","0.8","0.2","","","","","","","","","","","","74","J","0","img/none_selected_demo.jpg","true","0","80_20_practice","",""
"","bandit","21","165838","0.0-18.0-3.0","86971418","wem/bandit_party_1","A1KLWHCGSS8WXD","either","1","1251","","","","","","","1","0","0","0.2","","0.5","0.5","","","","","","","0.8","0.2","","","","","","","","","","","","75","K","1","","true","0","80_20_practice","",""
"","bandit","22","168097","0.0-18.0-4.0","86971418","wem/bandit_party_1","A1KLWHCGSS8WXD","either","1","722","","","","","","","0","0","1","","0.2","0.5","0.5","","","0.8","0.2","","","","","","","","","","","","","","","","75","K","1","","true","0","80_20_practice","",""
"","bandit","23","169935","0.0-18.0-5.0","86971418","wem/bandit_party_1","A1KLWHCGSS8WXD","either","1","307","","","","","","","0","1","0","","0.8","0.5","0.5","","","0.8","0.2","","","","","","","","","","","","","","","","74","J","0","img/none_selected_demo.jpg","true","0","80_20_practice","",""
"","bandit","24","172242","0.0-18.0-6.0","86971418","wem/bandit_party_1","A1KLWHCGSS8WXD","either","1","778","","","","","","","0","1","0","","0.8","0.5","0.5","","","0.8","0.2","","","","","","","","","","","","","","","","74","J","0","img/none_selected_demo.jpg","true","0","80_20_practice","",""
"","bandit","25","174388","0.0-18.0-7.0","86971418","wem/bandit_party_1","A1KLWHCGSS8WXD","either","1","621","","","","","","","0","0","1","0.2","","0.5","0.5","","","","","","","0.8","0.2","","","","","","","","","","","","75","K","1","","true","0","80_20_practice","",""
"","bandit","26","176983","0.0-18.0-8.0","86971418","wem/bandit_party_1","A1KLWHCGSS8WXD","either","1","1064","","","","","","","0","1","0","","0.2","0.5","0.5","","","0.8","0.2","","","","","","","","","","","","","","","","75","K","1","","true","0","80_20_practice","",""
"","bandit","27","179554","0.0-18.0-9.0","86971418","wem/bandit_party_1","A1KLWHCGSS8WXD","either","1","1043","","","","","","","0","1","0","","0.8","0.5","0.5","","","0.8","0.2","","","","","","","","","","","","","","","","74","J","0","img/none_selected_demo.jpg","true","0","80_20_practice","",""
"","bandit","28","181572","0.0-18.0-10.0","86971418","wem/bandit_party_1","A1KLWHCGSS8WXD","either","1","489","","","","","","","1","0","0","0.8","","0.5","0.5","","","","","","","0.8","0.2","","","","","","","","","","","","74","J","0","img/none_selected_demo.jpg","true","0","80_20_practice","",""
"","bandit","29","183412","0.0-18.0-11.0","86971418","wem/bandit_party_1","A1KLWHCGSS8WXD","either","1","308","","","","","","","0","0","1","","0.2","0.5","0.5","","","0.8","0.2","","","","","","","","","","","","","","","","75","K","1","","true","0","80_20_practice","",""
"","bandit","30","185647","0.0-18.0-12.0","86971418","wem/bandit_party_1","A1KLWHCGSS8WXD","either","1","706","","","","","","","0","0","1","0.2","","0.5","0.5","","","","","","","0.8","0.2","","","","","","","","","","","","75","K","1","","true","0","80_20_practice","",""
"","bandit","31","187311","0.0-18.0-13.0","86971418","wem/bandit_party_1","A1KLWHCGSS8WXD","either","1","134","","","","","","","0","1","0","","0.2","0.5","0.5","","","0.8","0.2","","","","","","","","","","","","","","","","75","K","1","","true","0","80_20_practice","",""
"","bandit","32","189931","0.0-18.0-14.0","86971418","wem/bandit_party_1","A1KLWHCGSS8WXD","either","1","1090","","","","","","","0","1","0","","0.8","0.5","0.5","","","0.8","0.2","","","","","","","","","","","","","","","","74","J","0","img/none_selected_demo.jpg","true","0","80_20_practice","",""
"","bandit","33","193052","0.0-18.0-15.0","86971418","wem/bandit_party_1","A1KLWHCGSS8WXD","either","1","1587","","","","","","","0","1","0","","0.8","0.5","0.5","","","0.8","0.2","","","","","","","","","","","","","","","","74","J","0","img/none_selected_demo.jpg","true","0","80_20_practice","",""
"","bandit","34","195862","0.0-18.0-16.0","86971418","wem/bandit_party_1","A1KLWHCGSS8WXD","either","1","1274","","","","","","","0","1","0","","0.8","0.5","0.5","","","0.8","0.2","","","","","","","","","","","","","","","","74","J","0","img/none_selected_demo.jpg","true","0","80_20_practice","",""
"","bandit","35","198425","0.0-18.0-17.0","86971418","wem/bandit_party_1","A1KLWHCGSS8WXD","either","1","1034","","","","","","","0","0","1","","0.2","0.5","0.5","","","0.8","0.2","","","","","","","","","","","","","","","","75","K","1","","true","0","80_20_practice","",""
"","bandit","36","201006","0.0-18.0-18.0","86971418","wem/bandit_party_1","A1KLWHCGSS8WXD","either","1","1050","","","","","","","0","0","1","0.2","","0.5","0.5","","","","","","","0.8","0.2","","","","","","","","","","","","75","K","1","","true","0","80_20_practice","",""
"","bandit","37","203505","0.0-18.0-19.0","86971418","wem/bandit_party_1","A1KLWHCGSS8WXD","either","1","962","","","","","","","0","0","1","","0.2","0.5","0.5","","","0.8","0.2","","","","","","","","","","","","","","","","75","K","1","","true","0","80_20_practice","",""
"","text-replacement","38","208843","0.0-19.0","86971418","wem/bandit_party_1","A1KLWHCGSS8WXD","either","1","5325","","","32","","","","","","","","","","","","","","","","","","","","","","","","","","","","","","","","","","","","","",""
"","bandit","39","213582","0.0-20.0-0.0","86971418","wem/bandit_party_1","A1KLWHCGSS8WXD","either","1","3211","","","","","","","1","0","0","1","0","","","","","0","1","","","1","0","","","","","","","","","","","","74","J","0","img/none_selected_demo.jpg","true","0","","",""
"","text-replacement","40","218355","0.0-21.0","86971418","wem/bandit_party_1","A1KLWHCGSS8WXD","either","1","4760","","","32","","","","","","","","","","","","","","","","","","","","","","","","","","","","","","","","","","","","","",""
"","text-replacement","41","222784","0.0-22.0","86971418","wem/bandit_party_1","A1KLWHCGSS8WXD","either","1","4413","","","32","","","","","","","","","","","","","","","","","","","","","","","","","","","","","","","","","","","","","",""
"","text-replacement","42","226879","0.0-23.0","86971418","wem/bandit_party_1","A1KLWHCGSS8WXD","either","1","4083","","","32","","","","","","","","","","","","","","","","","","","","","","","","","","","","","","","","","","","","","",""
"","text-replacement","43","230717","0.0-24.0","86971418","wem/bandit_party_1","A1KLWHCGSS8WXD","either","1","3824","","","32","","","","","","","","","","","","","","","","","","","","","","","","","","","","","","","","","","","","","",""
"","text-replacement","44","236879","0.0-25.0","86971418","wem/bandit_party_1","A1KLWHCGSS8WXD","either","1","6150","","","32","","","","","","","","","","","","","","","","","","","","","","","","","","","","","","","","","","","","","",""
"","text-replacement","45","240264","0.0-26.0","86971418","wem/bandit_party_1","A1KLWHCGSS8WXD","either","1","3370","","","32","","","","","","","","","","","","","","","","","","","","","","","","","","","","","","","","","","","","","",""
"","text-replacement","46","243974","0.0-27.0","86971418","wem/bandit_party_1","A1KLWHCGSS8WXD","either","1","3701","","","32","","","","","","","","","","","","","","","","","","","","","","","","","","","","","","","","","","","","","",""
"","text-replacement","47","246543","0.0-28.0","86971418","wem/bandit_party_1","A1KLWHCGSS8WXD","either","1","2557","","","32","","","","","","","","","","","","","","","","","","","","","","","","","","","","","","","","","","","","","",""
"","text-replacement","48","249209","0.0-29.0","86971418","wem/bandit_party_1","A1KLWHCGSS8WXD","either","1","2650","","","32","","","","","","","","","","","","","","","","","","","","","","","","","","","","","","","","","","","","","",""
"","text-replacement","49","250596","0.0-30.0","86971418","wem/bandit_party_1","A1KLWHCGSS8WXD","either","1","1376","","","32","","","","","","","","","","","","","","","","","","","","","","","","","","","","","","","","","","","","","",""
"","text-replacement","50","251670","0.0-31.0","86971418","wem/bandit_party_1","A1KLWHCGSS8WXD","either","1","1060","","","32","","","","","","","","","","","","","","","","","","","","","","","","","","","","","","","","","","","","","",""
"","bandit","51","257065","0.0-32.0-0.0","86971418","wem/bandit_party_1","A1KLWHCGSS8WXD","either","1","3861","","","","","","","0","1","0","","0.8","0.5","0.5","0.5","0.5","0.8","0.2","0.6","0.2","","","","","","","","","","","","","","72","H","0","img/none_selected.jpg","true","0","full_practice","",""
"","bandit","52","259093","0.0-32.0-1.0","86971418","wem/bandit_party_1","A1KLWHCGSS8WXD","either","1","494","","","","","","","0","1","0","","0.2","0.5","0.5","0.5","0.5","0.8","0.2","0.6","0.2","","","","","","","","","","","","","","74","J","1","","true","0","full_practice","",""
"","bandit","53","263545","0.0-32.0-2.0","86971418","wem/bandit_party_1","A1KLWHCGSS8WXD","either","1","2916","","","","","","","0","0","1","","0.6","0.5","0.5","0.5","0.5","0.8","0.2","0.6","0.2","","","","","","","","","","","","","","75","K","2","","true","0","full_practice","",""
"","bandit","54","265534","0.0-32.0-3.0","86971418","wem/bandit_party_1","A1KLWHCGSS8WXD","either","1","453","","","","","","","0","0","1","0.2","","0.5","0.5","0.5","0.5","","","","","0.8","0.2","0.6","0.2","","","","","","","","","","76","L","3","","true","0","full_practice","",""
"","bandit","55","268847","0.0-32.0-4.0","86971418","wem/bandit_party_1","A1KLWHCGSS8WXD","either","1","1775","","","","","","","0","1","0","","0.2","0.5","0.5","0.5","0.5","0.8","0.2","0.6","0.2","","","","","","","","","","","","","","74","J","1","","true","0","full_practice","",""
"","bandit","56","270841","0.0-32.0-5.0","86971418","wem/bandit_party_1","A1KLWHCGSS8WXD","either","1","463","","","","","","","0","1","0","","0.2","0.5","0.5","0.5","0.5","0.8","0.2","0.6","0.2","","","","","","","","","","","","","","74","J","1","","true","0","full_practice","",""
"","bandit","57","272887","0.0-32.0-6.0","86971418","wem/bandit_party_1","A1KLWHCGSS8WXD","either","1","510","","","","","","","0","1","0","","0.2","0.5","0.5","0.5","0.5","0.8","0.2","0.6","0.2","","","","","","","","","","","","","","74","J","1","","true","0","full_practice","",""
"","bandit","58","274722","0.0-32.0-7.0","86971418","wem/bandit_party_1","A1KLWHCGSS8WXD","either","1","297","","","","","","","0","0","1","","0.2","0.5","0.5","0.5","0.5","0.8","0.2","0.6","0.2","","","","","","","","","","","","","","74","J","1","","true","0","full_practice","",""
"","bandit","59","276582","0.0-32.0-8.0","86971418","wem/bandit_party_1","A1KLWHCGSS8WXD","either","1","325","","","","","","","1","0","0","0.8","","0.5","0.5","0.5","0.5","","","","","0.8","0.2","0.6","0.2","","","","","","","","","","72","H","0","img/none_selected.jpg","true","0","full_practice","",""
"","bandit","60","278324","0.0-32.0-9.0","86971418","wem/bandit_party_1","A1KLWHCGSS8WXD","either","1","215","","","","","","","1","0","0","0.8","","0.5","0.5","0.5","0.5","","","","","0.8","0.2","0.6","0.2","","","","","","","","","","72","H","0","img/none_selected.jpg","true","0","full_practice","",""
"","bandit","61","280208","0.0-32.0-10.0","86971418","wem/bandit_party_1","A1KLWHCGSS8WXD","either","1","348","","","","","","","0","1","0","","0.8","0.5","0.5","0.5","0.5","0.8","0.2","0.6","0.2","","","","","","","","","","","","","","72","H","0","img/none_selected.jpg","true","0","full_practice","",""
"","bandit","62","282047","0.0-32.0-11.0","86971418","wem/bandit_party_1","A1KLWHCGSS8WXD","either","1","307","","","","","","","0","1","0","","0.8","0.5","0.5","0.5","0.5","0.8","0.2","0.6","0.2","","","","","","","","","","","","","","72","H","0","img/none_selected.jpg","true","0","full_practice","",""
"","bandit","63","283915","0.0-32.0-12.0","86971418","wem/bandit_party_1","A1KLWHCGSS8WXD","either","1","332","","","","","","","0","0","1","","0.8","0.5","0.5","0.5","0.5","0.8","0.2","0.6","0.2","","","","","","","","","","","","","","72","H","0","img/none_selected.jpg","true","0","full_practice","",""
"","bandit","64","285712","0.0-32.0-13.0","86971418","wem/bandit_party_1","A1KLWHCGSS8WXD","either","1","259","","","","","","","0","0","1","","0.6","0.5","0.5","0.5","0.5","0.8","0.2","0.6","0.2","","","","","","","","","","","","","","75","K","2","","true","0","full_practice","",""
"","bandit","65","287571","0.0-32.0-14.0","86971418","wem/bandit_party_1","A1KLWHCGSS8WXD","either","1","318","","","","","","","0","0","1","0.2","","0.5","0.5","0.5","0.5","","","","","0.8","0.2","0.6","0.2","","","","","","","","","","76","L","3","","true","0","full_practice","",""
"","bandit","66","291091","0.0-32.0-15.0","86971418","wem/bandit_party_1","A1KLWHCGSS8WXD","either","1","1983","","","","","","","0","1","0","","0.6","0.5","0.5","0.5","0.5","0.8","0.2","0.6","0.2","","","","","","","","","","","","","","75","K","2","","true","0","full_practice","",""
"","bandit","67","292993","0.0-32.0-16.0","86971418","wem/bandit_party_1","A1KLWHCGSS8WXD","either","1","365","","","","","","","1","0","0","0.6","","0.5","0.5","0.5","0.5","","","","","0.8","0.2","0.6","0.2","","","","","","","","","","75","K","2","","true","0","full_practice","",""
"","bandit","68","294789","0.0-32.0-17.0","86971418","wem/bandit_party_1","A1KLWHCGSS8WXD","either","1","262","","","","","","","0","0","1","0.6","","0.5","0.5","0.5","0.5","","","","","0.8","0.2","0.6","0.2","","","","","","","","","","75","K","2","","true","0","full_practice","",""
"","bandit","69","297257","0.0-32.0-18.0","86971418","wem/bandit_party_1","A1KLWHCGSS8WXD","either","1","929","","","","","","","0","0","1","0.2","","0.5","0.5","0.5","0.5","","","","","0.8","0.2","0.6","0.2","","","","","","","","","","76","L","3","","true","0","full_practice","",""
"","bandit","70","298977","0.0-32.0-19.0","86971418","wem/bandit_party_1","A1KLWHCGSS8WXD","either","1","189","","","","","","","0","0","1","","0.2","0.5","0.5","0.5","0.5","0.8","0.2","0.6","0.2","","","","","","","","","","","","","","76","L","3","","true","0","full_practice","",""
"","text","71","303874","0.0-33.0","86971418","wem/bandit_party_1","A1KLWHCGSS8WXD","either","1","4841","","","32","","","","","","","","","","","","","","","","","","","","","","","","","","","","","","","","","","","","","",""
"","text-replacement","72","322661","0.0-34.0","86971418","wem/bandit_party_1","A1KLWHCGSS8WXD","either","1","17764","","","32","","","","","","","","","","","","","","","","","","","","","","","","","","","","","","","","","","","","","",""
"","text-replacement","73","334964","0.0-35.0","86971418","wem/bandit_party_1","A1KLWHCGSS8WXD","either","1","12288","","","32","","","","","","","","","","","","","","","","","","","","","","","","","","","","","","","","","","","","","",""
"","text-replacement","74","338644","0.0-36.0","86971418","wem/bandit_party_1","A1KLWHCGSS8WXD","either","1","3655","","","32","","","","","","","","","","","","","","","","","","","","","","","","","","","","","","","","","","","","","",""
"","text-replacement","75","342593","0.0-37.0","86971418","wem/bandit_party_1","A1KLWHCGSS8WXD","either","1","3933","","","32","","","","","","","","","","","","","","","","","","","","","","","","","","","","","","","","","","","","","",""
"","text-replacement","76","346561","0.0-38.0","86971418","wem/bandit_party_1","A1KLWHCGSS8WXD","either","1","3948","","","32","","","","","","","","","","","","","","","","","","","","","","","","","","","","","","","","","","","","","",""
"","survey-multi-choice-replacement","77","358127","0.0-39.0-0.0","86971418","wem/bandit_party_1","A1KLWHCGSS8WXD","either","1","11518","","","","","","","","","","","","","","","","","","","","","","","","Money will be added to the pool for <span style='color:blue;'>DEMOCRATS</span>","","","","","","","attn_check","","","","","","","","","0",""
"","survey-multi-choice-replacement","78","364742","0.0-40.0-0.0","86971418","wem/bandit_party_1","A1KLWHCGSS8WXD","either","1","5555","","","","","","","","","","","","","","","","","","","","","","","","Money will be added to the pool for <span style='color:blue;'>DEMOCRATS</span>","","","","","","","attn_check","","","","","","","","","0",""
"","instructions","79","367373","0.0-40.0-1.0-0.0","86971418","wem/bandit_party_1","A1KLWHCGSS8WXD","either","1","1610","","","","","","","","","","","","","","","","","","","","","","","","","","","","","","","","","","","","","","","","","[{""page_index"":0,""viewing_time"":1606}]"
"","survey-multi-choice-replacement","80","373405","0.0-40.1-0.1","86971418","wem/bandit_party_1","A1KLWHCGSS8WXD","either","1","4991","","","","","","","","","","","","","","","","","","","","","","","","Equal amounts of money will be added to the pool for <span style='color:blue;'>DEMOCRATS</span> and subtracted from the pool for <span style='color:red;'>REPUBLICANS</span>","","","","","","","attn_check","","","","","","","","","2",""
"","survey-multi-choice-replacement","81","378107","0.0-41.0-0.0","86971418","wem/bandit_party_1","A1KLWHCGSS8WXD","either","1","3645","","","","","","","","","","","","","","","","","","","","","","","","No money will be added to either pool","","","","","","","attn_check","","","","","","","","","3",""
"","bandit","82","382907","0.0-42.0-0.0","86971418","wem/bandit_party_1","A1KLWHCGSS8WXD","either","1","2242","","","","","","","0","0","1","0.0798457429","","0.4","0.2","0.8","0.6","","","","","0.0798457429","0.02943109976","0.4269289603","0.3592836462","","","","","","","","","","72","H","0","img/none_selected.jpg","","1","main_expt","",""
"","bandit","83","388039","0.0-43.0-0.0","86971418","wem/bandit_party_1","A1KLWHCGSS8WXD","either","1","3595","","","","","","","0","0","1","0.06336112212","","0.4","0.2","0.8","0.6","","","","","0.07621336767","0.06336112212","0.4660243271","0.3454903542","","","","","","","","","","74","J","1","","","2","main_expt","",""
"","bandit","84","392346","0.0-44.0-0.0","86971418","wem/bandit_party_1","A1KLWHCGSS8WXD","either","1","2763","","","","","","","1","0","0","0.4738503749","","0.4","0.2","0.8","0.6","","","","","0.07476295528","0.07335687118","0.4738503749","0.2941512374","","","","","","","","","","75","K","2","","","3","main_expt","",""
"","bandit","85","397049","0.0-45.0-0.0","86971418","wem/bandit_party_1","A1KLWHCGSS8WXD","either","1","3166","","","","","","","0","0","1","0.2851241965","","0.4","0.2","0.8","0.6","","","","","0.06526985361","0.06156305515","0.4618500418","0.2851241965","","","","","","","","","","76","L","3","","","4","main_expt","",""
"","bandit","86","399268","0.0-46.0-0.0","86971418","wem/bandit_party_1","A1KLWHCGSS8WXD","either","1","679","","","","","","","0","0","1","","0.4488935273","0.4","0.2","0.8","0.6","0.05487735528","0.08141194251","0.4488935273","0.3172925843","","","","","","","","","","","","","","75","K","2","","","5","main_expt","",""
"","bandit","87","401435","0.0-47.0-0.0","86971418","wem/bandit_party_1","A1KLWHCGSS8WXD","either","1","622","","","","","","","0","0","1","0.4437832297","","0.4","0.2","0.8","0.6","","","","","0.04340015571","0.1104821702","0.4437832297","0.3319153021","","","","","","","","","","75","K","2","","","6","main_expt","",""
"","bandit","88","403613","0.0-48.0-0.0","86971418","wem/bandit_party_1","A1KLWHCGSS8WXD","either","1","624","","","","","","","0","0","1","","0.04575060371","0.4","0.2","0.8","0.6","0.04575060371","0.1191408541","0.4310077805","0.3553039772","","","","","","","","","","","","","","72","H","0","img/none_selected.jpg","","7","main_expt","",""
"","bandit","89","406113","0.0-49.0-0.0","86971418","wem/bandit_party_1","A1KLWHCGSS8WXD","either","1","965","","","","","","","0","0","1","","0.1517570037","0.4","0.2","0.8","0.6","0.06112087539","0.1517570037","0.4480386191","0.3868093767","","","","","","","","","","","","","","74","J","1","","","8","main_expt","",""
"","bandit","90","408122","0.0-50.0-0.0","86971418","wem/bandit_party_1","A1KLWHCGSS8WXD","either","1","465","","","","","","","0","0","1","0.4460224538","","0.4","0.2","0.8","0.6","","","","","0.07854191076","0.1738087075","0.4460224538","0.3754406694","","","","","","","","","","75","K","2","","","9","main_expt","",""
"","bandit","91","409768","0.0-51.0-0.0","86971418","wem/bandit_party_1","A1KLWHCGSS8WXD","either","1","107","","","","","","","0","0","1","","0.3537433427","0.4","0.2","0.8","0.6","0.06865483858","0.2033535465","0.3954493452","0.3537433427","","","","","","","","","","","","","","76","L","3","","","10","main_expt","",""
"","bandit","92","411831","0.0-52.0-0.0","86971418","wem/bandit_party_1","A1KLWHCGSS8WXD","either","1","519","","","","","","","0","0","1","0.05083805298","","0.4","0.2","0.8","0.6","","","","","0.05083805298","0.1751631116","0.4064238371","0.3793358735","","","","","","","","","","72","H","0","img/none_selected.jpg","","11","main_expt","",""
"","bandit","93","413744","0.0-53.0-0.0","86971418","wem/bandit_party_1","A1KLWHCGSS8WXD","either","1","370","","","","","","","0","0","1","","0.1787487179","0.4","0.2","0.8","0.6","0.1038792476","0.1787487179","0.3800839449","0.3800428212","","","","","","","","","","","","","","74","J","1","","","12","main_expt","",""
"","bandit","94","415707","0.0-54.0-0.0","86971418","wem/bandit_party_1","A1KLWHCGSS8WXD","either","1","423","","","","","","","1","0","0","0.3866628193","","0.4","0.2","0.8","0.6","","","","","0.1197284353","0.1794712961","0.3866628193","0.3647981021","","","","","","","","","","75","K","2","","","13","main_expt","",""
"","bandit","95","417573","0.0-55.0-0.0","86971418","wem/bandit_party_1","A1KLWHCGSS8WXD","either","1","327","","","","","","","0","0","1","0.326509825","","0.4","0.2","0.8","0.6","","","","","0.135681701","0.2482140722","0.326509825","0.3646471907","","","","","","","","","","75","K","2","","","14","main_expt","",""
"","bandit","96","419670","0.0-56.0-0.0","86971418","wem/bandit_party_1","A1KLWHCGSS8WXD","either","1","555","","","","","","","1","0","0","0.3549291363","","0.4","0.2","0.8","0.6","","","","","0.125153919","0.2859415589","0.2428529647","0.3549291363","","","","","","","","","","76","L","3","","","15","main_expt","",""
"","bandit","97","421406","0.0-57.0-0.0","86971418","wem/bandit_party_1","A1KLWHCGSS8WXD","either","1","201","","","","","","","1","0","0","0.3727350689","","0.4","0.2","0.8","0.6","","","","","0.1096891688","0.26587149","0.2332962783","0.3727350689","","","","","","","","","","76","L","3","","","16","main_expt","",""
"","bandit","98","423234","0.0-58.0-0.0","86971418","wem/bandit_party_1","A1KLWHCGSS8WXD","either","1","295","","","","","","","0","0","1","0.3112083829","","0.4","0.2","0.8","0.6","","","","","0.1051581447","0.2776265896","0.2271032234","0.3112083829","","","","","","","","","","76","L","3","","","17","main_expt","",""
"","bandit","99","425300","0.0-59.0-0.0","86971418","wem/bandit_party_1","A1KLWHCGSS8WXD","either","1","516","","","","","","","0","0","1","0.1701710303","","0.4","0.2","0.8","0.6","","","","","0.1437943492","0.3223387563","0.1701710303","0.2403081055","","","","","","","","","","75","K","2","","","18","main_expt","",""
"","bandit","100","426997","0.0-60.0-0.0","86971418","wem/bandit_party_1","A1KLWHCGSS8WXD","either","1","152","","","","","","","0","0","1","","0.3192918255","0.4","0.2","0.8","0.6","0.1405615485","0.3192918255","0.2070198111","0.2377482675","","","","","","","","","","","","","","74","J","1","","","19","main_expt","",""
"","bandit","101","429127","0.0-61.0-0.0","86971418","wem/bandit_party_1","A1KLWHCGSS8WXD","either","1","590","","","","","","","0","0","1","0.1063334751","","0.4","0.2","0.8","0.6","","","","","0.1063334751","0.2739159796","0.2412547966","0.2607530295","","","","","","","","","","72","H","0","img/none_selected.jpg","","20","main_expt","",""
"","bandit","102","430931","0.0-62.0-0.0","86971418","wem/bandit_party_1","A1KLWHCGSS8WXD","either","1","261","","","","","","","0","0","1","","0.07848250716","0.4","0.2","0.8","0.6","0.07848250716","0.2454385858","0.2184758186","0.2919400674","","","","","","","","","","","","","","72","H","0","img/none_selected.jpg","","21","main_expt","",""
"","bandit","103","432630","0.0-63.0-0.0","86971418","wem/bandit_party_1","A1KLWHCGSS8WXD","either","1","159","","","","","","","0","0","1","","0.2340842041","0.4","0.2","0.8","0.6","0.1005082742","0.2340842041","0.1849325376","0.2995681058","","","","","","","","","","","","","","74","J","1","","","22","main_expt","",""
"","bandit","104","434720","0.0-64.0-0.0","86971418","wem/bandit_party_1","A1KLWHCGSS8WXD","either","1","544","","","","","","","0","1","0","","0.1521197653","0.4","0.2","0.8","0.6","0.0792694407","0.1840173947","0.1521197653","0.292554742","","","","","","","","","","","","","","75","K","2","","","23","main_expt","",""
"","bandit","105","436537","0.0-65.0-0.0","86971418","wem/bandit_party_1","A1KLWHCGSS8WXD","either","1","278","","","","","","","0","0","1","0.1759403195","","0.4","0.2","0.8","0.6","","","","","0.07358699385","0.1745529383","0.1759403195","0.3616894364","","","","","","","","","","75","K","2","","","24","main_expt","",""
"","bandit","106","438345","0.0-66.0-0.0","86971418","wem/bandit_party_1","A1KLWHCGSS8WXD","either","1","266","","","","","","","0","0","1","0.09479311865","","0.4","0.2","0.8","0.6","","","","","0.142208116","0.1756582033","0.09479311865","0.3575757263","","","","","","","","","","75","K","2","","","25","main_expt","",""
"","bandit","107","440225","0.0-67.0-0.0","86971418","wem/bandit_party_1","A1KLWHCGSS8WXD","either","1","335","","","","","","","0","0","1","0.08156123497","","0.4","0.2","0.8","0.6","","","","","0.1245113583","0.2086365416","0.08156123497","0.3635346368","","","","","","","","","","75","K","2","","","26","main_expt","",""
"","bandit","108","441964","0.0-68.0-0.0","86971418","wem/bandit_party_1","A1KLWHCGSS8WXD","either","1","200","","","","","","","1","0","0","0.4109801844","","0.4","0.2","0.8","0.6","","","","","0.118364605","0.2139763749","0.1102307873","0.4109801844","","","","","","","","","","76","L","3","","","27","main_expt","",""
"","bandit","109","443789","0.0-69.0-0.0","86971418","wem/bandit_party_1","A1KLWHCGSS8WXD","either","1","273","","","","","","","1","0","0","0.3772962545","","0.4","0.2","0.8","0.6","","","","","0.1105930361","0.1613483267","0.08274430796","0.3772962545","","","","","","","","","","76","L","3","","","28","main_expt","",""
"","bandit","110","445595","0.0-70.0-0.0","86971418","wem/bandit_party_1","A1KLWHCGSS8WXD","either","1","284","","","","","","","1","0","0","0.3875745016","","0.4","0.2","0.8","0.6","","","","","0.1118713044","0.1712488152","0.1086911099","0.3875745016","","","","","","","","","","76","L","3","","","29","main_expt","",""
"","bandit","111","447437","0.0-71.0-0.0","86971418","wem/bandit_party_1","A1KLWHCGSS8WXD","either","1","299","","","","","","","0","0","1","","0.3780019893","0.4","0.2","0.8","0.6","0.1914750456","0.1675524316","0.1116575632","0.3780019893","","","","","","","","","","","","","","76","L","3","","","30","main_expt","",""
"","bandit","112","450108","0.0-72.0-0.0","86971418","wem/bandit_party_1","A1KLWHCGSS8WXD","either","1","1131","","","","","","","0","0","1","0.2367730164","","0.4","0.2","0.8","0.6","","","","","0.2367730164","0.140325158","0.07828091442","0.416860241","","","","","","","","","","72","H","0","img/none_selected.jpg","","31","main_expt","",""
"","bandit","113","451936","0.0-73.0-0.0","86971418","wem/bandit_party_1","A1KLWHCGSS8WXD","either","1","289","","","","","","","0","0","1","0.1553940025","","0.4","0.2","0.8","0.6","","","","","0.2109574779","0.1553940025","0.07550395781","0.4242573056","","","","","","","","","","74","J","1","","","32","main_expt","",""
"","bandit","114","453733","0.0-74.0-0.0","86971418","wem/bandit_party_1","A1KLWHCGSS8WXD","either","1","251","","","","","","","0","0","1","","0.1445529326","0.4","0.2","0.8","0.6","0.2005542758","0.1925614924","0.1445529326","0.4185546122","","","","","","","","","","","","","","75","K","2","","","33","main_expt","",""
"","bandit","115","455309","0.0-75.0-0.0","86971418","wem/bandit_party_1","A1KLWHCGSS8WXD","either","1","31","","","","","","","0","0","1","0.4268308419","","0.4","0.2","0.8","0.6","","","","","0.180377021","0.2150530123","0.1091775744","0.4268308419","","","","","","","","","","76","L","3","","","34","main_expt","",""
"","bandit","116","457250","0.0-76.0-0.0","86971418","wem/bandit_party_1","A1KLWHCGSS8WXD","either","1","393","","","","","","","0","0","1","0.2111187229","","0.4","0.2","0.8","0.6","","","","","0.2111187229","0.2688968874","0.1297995116","0.4265642185","","","","","","","","","","72","H","0","img/none_selected.jpg","","35","main_expt","",""
"","bandit","117","458825","0.0-77.0-0.0","86971418","wem/bandit_party_1","A1KLWHCGSS8WXD","either","1","27","","","","","","","0","0","1","0.2977459964","","0.4","0.2","0.8","0.6","","","","","0.2119332756","0.2977459964","0.09468550628","0.4066287969","","","","","","","","","","74","J","1","","","36","main_expt","",""
"","bandit","118","460373","0.0-78.0-0.0","86971418","wem/bandit_party_1","A1KLWHCGSS8WXD","either","1","8","","","","","","","0","0","1","","0.09396978408","0.4","0.2","0.8","0.6","0.2256131965","0.2684429955","0.09396978408","0.4611471687","","","","","","","","","","","","","","75","K","2","","","37","main_expt","",""
"","bandit","119","463083","0.0-79.0-0.0","86971418","wem/bandit_party_1","A1KLWHCGSS8WXD","either","1","1162","","","","","","","1","0","0","0.4482708269","","0.4","0.2","0.8","0.6","","","","","0.1975147253","0.2490186117","0.1062257399","0.4482708269","","","","","","","","","","76","L","3","","","38","main_expt","",""
"","bandit","120","464990","0.0-80.0-0.0","86971418","wem/bandit_party_1","A1KLWHCGSS8WXD","either","1","358","","","","","","","0","0","1","","0.4402774387","0.4","0.2","0.8","0.6","0.1595648847","0.2548033483","0.09676453159","0.4402774387","","","","","","","","","","","","","","76","L","3","","","39","main_expt","",""
"","bandit","121","466925","0.0-81.0-0.0","86971418","wem/bandit_party_1","A1KLWHCGSS8WXD","either","1","417","","","","","","","1","0","0","0.4385128538","","0.4","0.2","0.8","0.6","","","","","0.1626610004","0.2688720753","0.08197179495","0.4385128538","","","","","","","","","","76","L","3","","","40","main_expt","",""
"","bandit","122","468974","0.0-82.0-0.0","86971418","wem/bandit_party_1","A1KLWHCGSS8WXD","either","1","497","","","","","","","1","0","0","0.4380640779","","0.4","0.2","0.8","0.6","","","","","0.1982402655","0.297778532","0.14416382","0.4380640779","","","","","","","","","","76","L","3","","","41","main_expt","",""
"","bandit","123","470739","0.0-83.0-0.0","86971418","wem/bandit_party_1","A1KLWHCGSS8WXD","either","1","239","","","","","","","0","0","1","","0.4265224768","0.4","0.2","0.8","0.6","0.1863610343","0.2449207522","0.1070927036","0.4265224768","","","","","","","","","","","","","","76","L","3","","","42","main_expt","",""
"","bandit","124","472744","0.0-84.0-0.0","86971418","wem/bandit_party_1","A1KLWHCGSS8WXD","either","1","459","","","","","","","0","0","1","","0.2418389683","0.4","0.2","0.8","0.6","0.2418389683","0.2457567503","0.1214526226","0.435880106","","","","","","","","","","","","","","72","H","0","img/none_selected.jpg","","43","main_expt","",""
"","bandit","125","474768","0.0-85.0-0.0","86971418","wem/bandit_party_1","A1KLWHCGSS8WXD","either","1","480","","","","","","","0","1","0","","0.2432732657","0.4","0.2","0.8","0.6","0.1943491227","0.2432732657","0.1450738833","0.4450576882","","","","","","","","","","","","","","74","J","1","","","44","main_expt","",""
"","bandit","126","476654","0.0-86.0-0.0","86971418","wem/bandit_party_1","A1KLWHCGSS8WXD","either","1","338","","","","","","","0","0","1","","0.2656772236","0.4","0.2","0.8","0.6","0.1543250971","0.2656772236","0.09632230927","0.4382030275","","","","","","","","","","","","","","74","J","1","","","45","main_expt","",""
"","bandit","127","478506","0.0-87.0-0.0","86971418","wem/bandit_party_1","A1KLWHCGSS8WXD","either","1","303","","","","","","","0","1","0","","0.2432112423","0.4","0.2","0.8","0.6","0.09719433791","0.2432112423","0.103211431","0.4412369426","","","","","","","","","","","","","","74","J","1","","","46","main_expt","",""
"","bandit","128","480433","0.0-88.0-0.0","86971418","wem/bandit_party_1","A1KLWHCGSS8WXD","either","1","377","","","","","","","0","0","1","","0.2992745976","0.4","0.2","0.8","0.6","0.1228880329","0.2992745976","0.09916324924","0.4588863431","","","","","","","","","","","","","","74","J","1","","","47","main_expt","",""
"","bandit","129","482085","0.0-89.0-0.0","86971418","wem/bandit_party_1","A1KLWHCGSS8WXD","either","1","104","","","","","","","0","0","1","","0.2594611615","0.4","0.2","0.8","0.6","0.1068532567","0.2594611615","0.1090242341","0.4408788818","","","","","","","","","","","","","","74","J","1","","","48","main_expt","",""
"","bandit","130","483991","0.0-90.0-0.0","86971418","wem/bandit_party_1","A1KLWHCGSS8WXD","either","1","353","","","","","","","0","0","1","0.1265186769","","0.4","0.2","0.8","0.6","","","","","0.1044048509","0.2767916858","0.1265186769","0.4232064109","","","","","","","","","","75","K","2","","","49","main_expt","",""
"","bandit","131","485879","0.0-91.0-0.0","86971418","wem/bandit_party_1","A1KLWHCGSS8WXD","either","1","341","","","","","","","0","0","1","0.4210883962","","0.4","0.2","0.8","0.6","","","","","0.1072026782","0.2762534014","0.1397440907","0.4210883962","","","","","","","","","","76","L","3","","","50","main_expt","",""
"","bandit","132","488151","0.0-92.0-0.0","86971418","wem/bandit_party_1","A1KLWHCGSS8WXD","either","1","717","","","","","","","0","0","1","","0.1287882573","0.4","0.2","0.8","0.6","0.1287882573","0.3379376541","0.153600331","0.4225635581","","","","","","","","","","","","","","72","H","0","img/none_selected.jpg","","51","main_expt","",""
"","bandit","133","490038","0.0-93.0-0.0","86971418","wem/bandit_party_1","A1KLWHCGSS8WXD","either","1","336","","","","","","","0","0","1","0.3395267946","","0.4","0.2","0.8","0.6","","","","","0.1298059469","0.3395267946","0.1718407591","0.4146237098","","","","","","","","","","74","J","1","","","52","main_expt","",""
"","bandit","134","491837","0.0-94.0-0.0","86971418","wem/bandit_party_1","A1KLWHCGSS8WXD","either","1","244","","","","","","","1","0","0","0.1945727614","","0.4","0.2","0.8","0.6","","","","","0.07423060895","0.29674647","0.1945727614","0.3763623321","","","","","","","","","","75","K","2","","","53","main_expt","",""
"","bandit","135","493826","0.0-95.0-0.0","86971418","wem/bandit_party_1","A1KLWHCGSS8WXD","either","1","443","","","","","","","0","0","1","0.2450542523","","0.4","0.2","0.8","0.6","","","","","0.08562383645","0.3372955831","0.2450542523","0.3289081181","","","","","","","","","","75","K","2","","","54","main_expt","",""
"","bandit","136","495580","0.0-96.0-0.0","86971418","wem/bandit_party_1","A1KLWHCGSS8WXD","either","1","210","","","","","","","1","0","0","0.2547241938","","0.4","0.2","0.8","0.6","","","","","0.0757818623","0.3506099842","0.2547241938","0.3025984711","","","","","","","","","","75","K","2","","","55","main_expt","",""
"","bandit","137","497388","0.0-97.0-0.0","86971418","wem/bandit_party_1","A1KLWHCGSS8WXD","either","1","262","","","","","","","0","0","1","0.2595112895","","0.4","0.2","0.8","0.6","","","","","0.09897923035","0.3418029788","0.2595112895","0.2921333137","","","","","","","","","","75","K","2","","","56","main_expt","",""
"","bandit","138","499199","0.0-98.0-0.0","86971418","wem/bandit_party_1","A1KLWHCGSS8WXD","either","1","269","","","","","","","0","0","1","0.3317177772","","0.4","0.2","0.8","0.6","","","","","0.1160875525","0.3162475816","0.2610276213","0.3317177772","","","","","","","","","","76","L","3","","","57","main_expt","",""
"","bandit","139","501284","0.0-99.0-0.0","86971418","wem/bandit_party_1","A1KLWHCGSS8WXD","either","1","531","","","","","","","0","0","1","","0.1134641846","0.4","0.2","0.8","0.6","0.1134641846","0.3269881105","0.2354201416","0.3240244649","","","","","","","","","","","","","","72","H","0","img/none_selected.jpg","","58","main_expt","",""
"","bandit","140","503388","0.0-100.0-0.0","86971418","wem/bandit_party_1","A1KLWHCGSS8WXD","either","1","558","","","","","","","0","0","1","","0.2901324944","0.4","0.2","0.8","0.6","0.1177083384","0.2901324944","0.2346370837","0.2988076671","","","","","","","","","","","","","","74","J","1","","","59","main_expt","",""
"","bandit","141","504957","0.0-101.0-0.0","86971418","wem/bandit_party_1","A1KLWHCGSS8WXD","either","1","50","","","","","","","0","0","1","0.2315637733","","0.4","0.2","0.8","0.6","","","","","0.1125723432","0.289588464","0.2315637733","0.3096792726","","","","","","","","","","75","K","2","","","60","main_expt","",""
"","bandit","142","507032","0.0-102.0-0.0","86971418","wem/bandit_party_1","A1KLWHCGSS8WXD","either","1","525","","","","","","","0","0","1","","0.2821336973","0.4","0.2","0.8","0.6","0.09911093426","0.2782845563","0.2599537756","0.2821336973","","","","","","","","","","","","","","76","L","3","","","61","main_expt","",""
"","bandit","143","509397","0.0-103.0-0.0","86971418","wem/bandit_party_1","A1KLWHCGSS8WXD","either","1","811","","","","","","","0","0","1","","0.09440438105","0.4","0.2","0.8","0.6","0.09440438105","0.3165490401","0.2594941563","0.2414244345","","","","","","","","","","","","","","72","H","0","img/none_selected.jpg","","62","main_expt","",""
"","bandit","144","512174","0.0-104.0-0.0","86971418","wem/bandit_party_1","A1KLWHCGSS8WXD","either","1","1224","","","","","","","0","0","1","","0.3034564924","0.4","0.2","0.8","0.6","0.1015409351","0.3034564924","0.2660839385","0.213639373","","","","","","","","","","","","","","74","J","1","","","63","main_expt","",""
"","bandit","145","515282","0.0-105.0-0.0","86971418","wem/bandit_party_1","A1KLWHCGSS8WXD","either","1","1555","","","","","","","1","0","0","0.2426585031","","0.4","0.2","0.8","0.6","","","","","0.07049798599","0.2506654962","0.2426585031","0.1876308072","","","","","","","","","","75","K","2","","","64","main_expt","",""
"","bandit","146","517684","0.0-106.0-0.0","86971418","wem/bandit_party_1","A1KLWHCGSS8WXD","either","1","849","","","","","","","0","0","1","0.2581047566","","0.4","0.2","0.8","0.6","","","","","0.05735603507","0.253414466","0.2581047566","0.1841803182","","","","","","","","","","75","K","2","","","65","main_expt","",""
"","bandit","147","519696","0.0-107.0-0.0","86971418","wem/bandit_party_1","A1KLWHCGSS8WXD","either","1","464","","","","","","","0","0","1","0.2872127433","","0.4","0.2","0.8","0.6","","","","","0.0621258055","0.2836500186","0.2872127433","0.187417598","","","","","","","","","","75","K","2","","","66","main_expt","",""
"","bandit","148","522291","0.0-108.0-0.0","86971418","wem/bandit_party_1","A1KLWHCGSS8WXD","either","1","1048","","","","","","","0","0","1","","0.1395950637","0.4","0.2","0.8","0.6","0.06966106928","0.3217852231","0.3232337643","0.1395950637","","","","","","","","","","","","","","76","L","3","","","67","main_expt","",""
"","bandit","149","524981","0.0-109.0-0.0","86971418","wem/bandit_party_1","A1KLWHCGSS8WXD","either","1","1135","","","","","","","0","0","1","","0.09965709916","0.4","0.2","0.8","0.6","0.09965709916","0.3574581916","0.3376006622","0.1363519197","","","","","","","","","","","","","","72","H","0","img/none_selected.jpg","","68","main_expt","",""
"","bandit","150","527139","0.0-110.0-0.0","86971418","wem/bandit_party_1","A1KLWHCGSS8WXD","either","1","607","","","","","","","0","0","1","","0.3884563005","0.4","0.2","0.8","0.6","0.1428217854","0.3884563005","0.2917609244","0.1117144852","","","","","","","","","","","","","","74","J","1","","","69","main_expt","",""
"","bandit","151","529048","0.0-111.0-0.0","86971418","wem/bandit_party_1","A1KLWHCGSS8WXD","either","1","358","","","","","","","0","0","1","","0.2218665627","0.4","0.2","0.8","0.6","0.1866845388","0.3920047773","0.2218665627","0.09667493602","","","","","","","","","","","","","","75","K","2","","","70","main_expt","",""
"","bandit","152","532686","0.0-112.0-0.0","86971418","wem/bandit_party_1","A1KLWHCGSS8WXD","either","1","2110","","","","","","","1","0","0","0.09186933139","","0.4","0.2","0.8","0.6","","","","","0.1702545286","0.4066376731","0.2409383839","0.09186933139","","","","","","","","","","76","L","3","","","71","main_expt","",""
"","bandit","153","534757","0.0-113.0-0.0","86971418","wem/bandit_party_1","A1KLWHCGSS8WXD","either","1","514","","","","","","","0","0","1","","0.09472009463","0.4","0.2","0.8","0.6","0.1836279043","0.3443789926","0.1920783453","0.09472009463","","","","","","","","","","","","","","76","L","3","","","72","main_expt","",""
"","bandit","154","536612","0.0-114.0-0.0","86971418","wem/bandit_party_1","A1KLWHCGSS8WXD","either","1","302","","","","","","","0","0","1","0.1167805336","","0.4","0.2","0.8","0.6","","","","","0.1644348242","0.3227553012","0.1905254877","0.1167805336","","","","","","","","","","76","L","3","","","73","main_expt","",""
"","bandit","155","538687","0.0-115.0-0.0","86971418","wem/bandit_party_1","A1KLWHCGSS8WXD","either","1","518","","","","","","","0","0","1","","0.1833421201","0.4","0.2","0.8","0.6","0.1833421201","0.3336652139","0.184198213","0.1465151254","","","","","","","","","","","","","","72","H","0","img/none_selected.jpg","","74","main_expt","",""
"","bandit","156","540941","0.0-116.0-0.0","86971418","wem/bandit_party_1","A1KLWHCGSS8WXD","either","1","706","","","","","","","0","0","1","","0.2890150868","0.4","0.2","0.8","0.6","0.1519653276","0.2890150868","0.1881920243","0.123285719","","","","","","","","","","","","","","74","J","1","","","75","main_expt","",""
"","bandit","157","542943","0.0-117.0-0.0","86971418","wem/bandit_party_1","A1KLWHCGSS8WXD","either","1","454","","","","","","","0","0","1","","0.1988930589","0.4","0.2","0.8","0.6","0.1506622639","0.2673490463","0.1988930589","0.1392606081","","","","","","","","","","","","","","75","K","2","","","76","main_expt","",""
"","bandit","158","544505","0.0-118.0-0.0","86971418","wem/bandit_party_1","A1KLWHCGSS8WXD","either","1","8","","","","","","","0","1","0","","0.099337717","0.4","0.2","0.8","0.6","0.1860897766","0.2858541315","0.2255968657","0.099337717","","","","","","","","","","","","","","76","L","3","","","77","main_expt","",""
"","bandit","159","546763","0.0-119.0-0.0","86971418","wem/bandit_party_1","A1KLWHCGSS8WXD","either","1","709","","","","","","","0","0","1","0.09666605973","","0.4","0.2","0.8","0.6","","","","","0.1618556875","0.2639968829","0.1917014014","0.09666605973","","","","","","","","","","76","L","3","","","78","main_expt","",""
"","bandit","160","548683","0.0-120.0-0.0","86971418","wem/bandit_party_1","A1KLWHCGSS8WXD","either","1","381","","","","","","","0","0","1","0.09639353985","","0.4","0.2","0.8","0.6","","","","","0.1976853889","0.2304888896","0.2092129429","0.09639353985","","","","","","","","","","76","L","3","","","79","main_expt","",""
"","bandit","161","550803","0.0-121.0-0.0","86971418","wem/bandit_party_1","A1KLWHCGSS8WXD","either","1","572","","","","","","","0","0","1","","0.09566996791","0.4","0.2","0.8","0.6","0.2198838985","0.1991809665","0.1974306726","0.09566996791","","","","","","","","","","","","","","76","L","3","","","80","main_expt","",""
"","bandit","162","552798","0.0-122.0-0.0","86971418","wem/bandit_party_1","A1KLWHCGSS8WXD","either","1","439","","","","","","","0","0","1","","0.2167005254","0.4","0.2","0.8","0.6","0.2167005254","0.1627434897","0.1414754506","0.07958501382","","","","","","","","","","","","","","72","H","0","img/none_selected.jpg","","81","main_expt","",""
"","bandit","163","554785","0.0-123.0-0.0","86971418","wem/bandit_party_1","A1KLWHCGSS8WXD","either","1","437","","","","","","","0","1","0","","0.1624637972","0.4","0.2","0.8","0.6","0.2527486409","0.1624637972","0.1422587364","0.08833774835","","","","","","","","","","","","","","74","J","1","","","82","main_expt","",""
"","bandit","164","556806","0.0-124.0-0.0","86971418","wem/bandit_party_1","A1KLWHCGSS8WXD","either","1","465","","","","","","","0","0","1","","0.1900332","0.4","0.2","0.8","0.6","0.2569721607","0.1900332","0.1079415531","0.09109006352","","","","","","","","","","","","","","74","J","1","","","83","main_expt","",""
"","bandit","165","558721","0.0-125.0-0.0","86971418","wem/bandit_party_1","A1KLWHCGSS8WXD","either","1","363","","","","","","","0","0","1","","0.1705646391","0.4","0.2","0.8","0.6","0.2535394321","0.1705646391","0.07696487024","0.05321730921","","","","","","","","","","","","","","74","J","1","","","84","main_expt","",""
"","bandit","166","560731","0.0-126.0-0.0","86971418","wem/bandit_party_1","A1KLWHCGSS8WXD","either","1","451","","","","","","","0","1","0","","0.2053302659","0.4","0.2","0.8","0.6","0.2255799186","0.2053302659","0.08313016423","0.03321009489","","","","","","","","","","","","","","74","J","1","","","85","main_expt","",""
"","bandit","167","562883","0.0-127.0-0.0","86971418","wem/bandit_party_1","A1KLWHCGSS8WXD","either","1","596","","","","","","","0","1","0","","0.2128685413","0.4","0.2","0.8","0.6","0.2197080914","0.2128685413","0.102083396","0.04864990798","","","","","","","","","","","","","","74","J","1","","","86","main_expt","",""
"","bandit","168","564864","0.0-128.0-0.0","86971418","wem/bandit_party_1","A1KLWHCGSS8WXD","either","1","419","","","","","","","0","0","1","","0.213778815","0.4","0.2","0.8","0.6","0.2230338057","0.213778815","0.09067070718","0.07919268752","","","","","","","","","","","","","","74","J","1","","","87","main_expt","",""
"","bandit","169","566782","0.0-129.0-0.0","86971418","wem/bandit_party_1","A1KLWHCGSS8WXD","either","1","356","","","","","","","0","0","1","","0.2102340809","0.4","0.2","0.8","0.6","0.2484269739","0.2102340809","0.1421970704","0.05835116993","","","","","","","","","","","","","","74","J","1","","","88","main_expt","",""
"","bandit","170","568634","0.0-130.0-0.0","86971418","wem/bandit_party_1","A1KLWHCGSS8WXD","either","1","297","","","","","","","0","1","0","","0.1809358483","0.4","0.2","0.8","0.6","0.2733562597","0.1809358483","0.219142046","0.05115519592","","","","","","","","","","","","","","74","J","1","","","89","main_expt","",""
"","bandit","171","570655","0.0-131.0-0.0","86971418","wem/bandit_party_1","A1KLWHCGSS8WXD","either","1","463","","","","","","","0","0","1","","0.1293356972","0.4","0.2","0.8","0.6","0.2973868449","0.1293356972","0.2806923657","0.07819273649","","","","","","","","","","","","","","74","J","1","","","90","main_expt","",""
"","bandit","172","572506","0.0-132.0-0.0","86971418","wem/bandit_party_1","A1KLWHCGSS8WXD","either","1","297","","","","","","","0","0","1","0.1136224352","","0.4","0.2","0.8","0.6","","","","","0.3067689268","0.1136224352","0.2819660137","0.05564661524","","","","","","","","","","74","J","1","","","91","main_expt","",""
"","bandit","173","574372","0.0-133.0-0.0","86971418","wem/bandit_party_1","A1KLWHCGSS8WXD","either","1","322","","","","","","","0","0","1","","0.07539152519","0.4","0.2","0.8","0.6","0.2719776188","0.07539152519","0.3370305887","0.05914103421","","","","","","","","","","","","","","74","J","1","","","92","main_expt","",""
"","bandit","174","576426","0.0-134.0-0.0","86971418","wem/bandit_party_1","A1KLWHCGSS8WXD","either","1","505","","","","","","","0","0","1","0.3722719914","","0.4","0.2","0.8","0.6","","","","","0.3081791896","0.08243558305","0.3722719914","0.03944324463","","","","","","","","","","75","K","2","","","93","main_expt","",""
"","bandit","175","579402","0.0-135.0-0.0","86971418","wem/bandit_party_1","A1KLWHCGSS8WXD","either","1","1419","","","","","","","0","0","1","0.3840030774","","0.4","0.2","0.8","0.6","","","","","0.356667856","0.09807673793","0.3840030774","0.05023017475","","","","","","","","","","75","K","2","","","94","main_expt","",""
"","bandit","176","581509","0.0-136.0-0.0","86971418","wem/bandit_party_1","A1KLWHCGSS8WXD","either","1","555","","","","","","","1","0","0","0.4050844552","","0.4","0.2","0.8","0.6","","","","","0.3300765204","0.09746204728","0.4050844552","0.07311956304","","","","","","","","","","75","K","2","","","95","main_expt","",""
"","bandit","177","583492","0.0-137.0-0.0","86971418","wem/bandit_party_1","A1KLWHCGSS8WXD","either","1","432","","","","","","","0","0","1","0.4081076376","","0.4","0.2","0.8","0.6","","","","","0.3642735905","0.08559835745","0.4081076376","0.09573717159","","","","","","","","","","75","K","2","","","96","main_expt","",""
"","bandit","178","585469","0.0-138.0-0.0","86971418","wem/bandit_party_1","A1KLWHCGSS8WXD","either","1","417","","","","","","","1","0","0","0.4142780263","","0.4","0.2","0.8","0.6","","","","","0.3885664579","0.0732645996","0.4142780263","0.1235519285","","","","","","","","","","75","K","2","","","97","main_expt","",""
"","bandit","179","588158","0.0-139.0-0.0","86971418","wem/bandit_party_1","A1KLWHCGSS8WXD","either","1","1146","","","","","","","0","0","1","0.4131193208","","0.4","0.2","0.8","0.6","","","","","0.4162912028","0.05343209845","0.4131193208","0.1274282425","","","","","","","","","","75","K","2","","","98","main_expt","",""
"","bandit","180","590227","0.0-140.0-0.0","86971418","wem/bandit_party_1","A1KLWHCGSS8WXD","either","1","511","","","","","","","0","0","1","","0.1457321849","0.4","0.2","0.8","0.6","0.4074153657","0.05144299931","0.428944851","0.1457321849","","","","","","","","","","","","","","76","L","3","","","99","main_expt","",""
"","bandit","181","592354","0.0-141.0-0.0","86971418","wem/bandit_party_1","A1KLWHCGSS8WXD","either","1","572","","","","","","","0","0","1","","0.1492128348","0.4","0.2","0.8","0.6","0.3349137267","0.03934302155","0.4279797645","0.1492128348","","","","","","","","","","","","","","76","L","3","","","100","main_expt","",""
"","bandit","182","595156","0.0-142.0-0.0","86971418","wem/bandit_party_1","A1KLWHCGSS8WXD","either","1","1251","","","","","","","0","0","1","0.125019219","","0.4","0.2","0.8","0.6","","","","","0.2732947861","0.05783306622","0.4189249443","0.125019219","","","","","","","","","","76","L","3","","","101","main_expt","",""
"","bandit","183","597076","0.0-143.0-0.0","86971418","wem/bandit_party_1","A1KLWHCGSS8WXD","either","1","361","","","","","","","0","0","1","","0.2584454073","0.4","0.2","0.8","0.6","0.2584454073","0.06484492547","0.4279241466","0.1008510245","","","","","","","","","","","","","","72","H","0","img/none_selected.jpg","","102","main_expt","",""
"","bandit","184","599577","0.0-144.0-0.0","86971418","wem/bandit_party_1","A1KLWHCGSS8WXD","either","1","942","","","","","","","0","1","0","","0.2143891894","0.4","0.2","0.8","0.6","0.2143891894","0.0701259157","0.419390052","0.1087281004","","","","","","","","","","","","","","72","H","0","img/none_selected.jpg","","103","main_expt","",""
"","bandit","185","601956","0.0-145.0-0.0","86971418","wem/bandit_party_1","A1KLWHCGSS8WXD","either","1","820","","","","","","","0","0","1","","0.1354346047","0.4","0.2","0.8","0.6","0.1354346047","0.06922647753","0.3761202226","0.143855427","","","","","","","","","","","","","","72","H","0","img/none_selected.jpg","","104","main_expt","",""
"","bandit","186","603983","0.0-146.0-0.0","86971418","wem/bandit_party_1","A1KLWHCGSS8WXD","either","1","466","","","","","","","1","0","0","0.1615963473","","0.4","0.2","0.8","0.6","","","","","0.1615963473","0.07802312096","0.4229881466","0.1606853024","","","","","","","","","","72","H","0","img/none_selected.jpg","","105","main_expt","",""
"","bandit","187","606318","0.0-147.0-0.0","86971418","wem/bandit_party_1","A1KLWHCGSS8WXD","either","1","760","","","","","","","0","0","1","","0.1738621023","0.4","0.2","0.8","0.6","0.1738621023","0.08930313369","0.4110558218","0.1612939645","","","","","","","","","","","","","","72","H","0","img/none_selected.jpg","","106","main_expt","",""
"","bandit","188","608471","0.0-148.0-0.0","86971418","wem/bandit_party_1","A1KLWHCGSS8WXD","either","1","602","","","","","","","0","0","1","0.1799671425","","0.4","0.2","0.8","0.6","","","","","0.1799671425","0.1397733654","0.4176599015","0.1778053335","","","","","","","","","","72","H","0","img/none_selected.jpg","","107","main_expt","",""
"","bandit","189","610545","0.0-149.0-0.0","86971418","wem/bandit_party_1","A1KLWHCGSS8WXD","either","1","514","","","","","","","0","0","1","","0.1844274074","0.4","0.2","0.8","0.6","0.1844274074","0.1505899732","0.4210396584","0.1826465361","","","","","","","","","","","","","","72","H","0","img/none_selected.jpg","","108","main_expt","",""
"","bandit","190","612649","0.0-150.0-0.0","86971418","wem/bandit_party_1","A1KLWHCGSS8WXD","either","1","555","","","","","","","0","0","1","","0.1162436109","0.4","0.2","0.8","0.6","0.1702708828","0.1162436109","0.4328015469","0.1737022726","","","","","","","","","","","","","","74","J","1","","","109","main_expt","",""
"","bandit","191","615247","0.0-151.0-0.0","86971418","wem/bandit_party_1","A1KLWHCGSS8WXD","either","1","1053","","","","","","","0","0","1","","0.08267976014","0.4","0.2","0.8","0.6","0.1964407335","0.08267976014","0.4495585744","0.1658344406","","","","","","","","","","","","","","74","J","1","","","110","main_expt","",""
"","bandit","192","617256","0.0-152.0-0.0","86971418","wem/bandit_party_1","A1KLWHCGSS8WXD","either","1","453","","","","","","","1","0","0","0.4237631325","","0.4","0.2","0.8","0.6","","","","","0.1777579569","0.09389793805","0.4237631325","0.240619448","","","","","","","","","","75","K","2","","","111","main_expt","",""
"","bandit","193","619335","0.0-153.0-0.0","86971418","wem/bandit_party_1","A1KLWHCGSS8WXD","either","1","527","","","","","","","1","0","0","0.4521571561","","0.4","0.2","0.8","0.6","","","","","0.1395994444","0.07903418564","0.4521571561","0.1927397719","","","","","","","","","","75","K","2","","","112","main_expt","",""
"","bandit","194","621250","0.0-154.0-0.0","86971418","wem/bandit_party_1","A1KLWHCGSS8WXD","either","1","356","","","","","","","1","0","0","0.4350762846","","0.4","0.2","0.8","0.6","","","","","0.1205999431","0.05501139052","0.4350762846","0.234725565","","","","","","","","","","75","K","2","","","113","main_expt","",""
"","bandit","195","623321","0.0-155.0-0.0","86971418","wem/bandit_party_1","A1KLWHCGSS8WXD","either","1","521","","","","","","","0","0","1","0.4315824664","","0.4","0.2","0.8","0.6","","","","","0.09123355482","0.07627702456","0.4315824664","0.1950215869","","","","","","","","","","75","K","2","","","114","main_expt","",""
"","bandit","196","625415","0.0-156.0-0.0","86971418","wem/bandit_party_1","A1KLWHCGSS8WXD","either","1","540","","","","","","","0","0","1","0.4127349624","","0.4","0.2","0.8","0.6","","","","","0.09554471192","0.03985247356","0.4127349624","0.2575833325","","","","","","","","","","75","K","2","","","115","main_expt","",""
"","bandit","197","627709","0.0-157.0-0.0","86971418","wem/bandit_party_1","A1KLWHCGSS8WXD","either","1","732","","","","","","","0","0","1","0.2296468005","","0.4","0.2","0.8","0.6","","","","","0.1942182492","0.0683792979","0.4468356006","0.2296468005","","","","","","","","","","76","L","3","","","116","main_expt","",""
"","bandit","198","629616","0.0-158.0-0.0","86971418","wem/bandit_party_1","A1KLWHCGSS8WXD","either","1","352","","","","","","","0","0","1","","0.2816483341","0.4","0.2","0.8","0.6","0.2208250117","0.03956212276","0.4458703805","0.2816483341","","","","","","","","","","","","","","76","L","3","","","117","main_expt","",""
"","bandit","199","631441","0.0-159.0-0.0","86971418","wem/bandit_party_1","A1KLWHCGSS8WXD","either","1","268","","","","","","","1","0","0","0.2626769985","","0.4","0.2","0.8","0.6","","","","","0.1687975443","0.04459229253","0.4500370674","0.2626769985","","","","","","","","","","76","L","3","","","118","main_expt","",""
"","bandit","200","633612","0.0-160.0-0.0","86971418","wem/bandit_party_1","A1KLWHCGSS8WXD","either","1","609","","","","","","","0","0","1","0.2418090277","","0.4","0.2","0.8","0.6","","","","","0.1546105485","0.03386957434","0.4704359259","0.2418090277","","","","","","","","","","76","L","3","","","119","main_expt","",""
"","bandit","201","636046","0.0-161.0-0.0","86971418","wem/bandit_party_1","A1KLWHCGSS8WXD","either","1","891","","","","","","","0","0","1","0.2603236095","","0.4","0.2","0.8","0.6","","","","","0.143668411","0.03305427522","0.4578798539","0.2603236095","","","","","","","","","","76","L","3","","","120","main_expt","",""
"","bandit","202","637990","0.0-162.0-0.0","86971418","wem/bandit_party_1","A1KLWHCGSS8WXD","either","1","402","","","","","","","0","0","1","","0.1098317425","0.4","0.2","0.8","0.6","0.1098317425","0.03146098963","0.4591190262","0.2381785671","","","","","","","","","","","","","","72","H","0","img/none_selected.jpg","","121","main_expt","",""
"","bandit","203","640332","0.0-163.0-0.0","86971418","wem/bandit_party_1","A1KLWHCGSS8WXD","either","1","780","","","","","","","0","0","1","","0.1097832873","0.4","0.2","0.8","0.6","0.1097832873","0.02311797033","0.4643737298","0.2388462554","","","","","","","","","","","","","","72","H","0","img/none_selected.jpg","","122","main_expt","",""
"","bandit","204","642911","0.0-164.0-0.0","86971418","wem/bandit_party_1","A1KLWHCGSS8WXD","either","1","1014","","","","","","","0","0","1","0.1145900252","","0.4","0.2","0.8","0.6","","","","","0.1145900252","0.0171261738","0.451586091","0.2079929623","","","","","","","","","","72","H","0","img/none_selected.jpg","","123","main_expt","",""
"","bandit","205","646217","0.0-165.0-0.0","86971418","wem/bandit_party_1","A1KLWHCGSS8WXD","either","1","1746","","","","","","","0","0","1","","0.1137783892","0.4","0.2","0.8","0.6","0.1137783892","0.03468299263","0.4456906556","0.2148400852","","","","","","","","","","","","","","72","H","0","img/none_selected.jpg","","124","main_expt","",""
"","bandit","206","648545","0.0-166.0-0.0","86971418","wem/bandit_party_1","A1KLWHCGSS8WXD","either","1","778","","","","","","","0","0","1","","0.145605256","0.4","0.2","0.8","0.6","0.145605256","0.02544516396","0.4240876494","0.2185056602","","","","","","","","","","","","","","72","H","0","img/none_selected.jpg","","125","main_expt","",""
"","bandit","207","650898","0.0-167.0-0.0","86971418","wem/bandit_party_1","A1KLWHCGSS8WXD","either","1","797","","","","","","","0","0","1","","0.03059506073","0.4","0.2","0.8","0.6","0.1443839055","0.03059506073","0.4008501573","0.2152323899","","","","","","","","","","","","","","74","J","1","","","126","main_expt","",""
"","bandit","208","652935","0.0-168.0-0.0","86971418","wem/bandit_party_1","A1KLWHCGSS8WXD","either","1","466","","","","","","","0","0","1","","0.0339638967","0.4","0.2","0.8","0.6","0.1434222382","0.0339638967","0.4066073101","0.1699446714","","","","","","","","","","","","","","74","J","1","","","127","main_expt","",""
"","bandit","209","655353","0.0-169.0-0.0","86971418","wem/bandit_party_1","A1KLWHCGSS8WXD","either","1","862","","","","","","","1","0","0","0.02632978063","","0.4","0.2","0.8","0.6","","","","","0.1412168693","0.02632978063","0.4270302575","0.1299446217","","","","","","","","","","74","J","1","","","128","main_expt","",""
"","bandit","210","657611","0.0-170.0-0.0","86971418","wem/bandit_party_1","A1KLWHCGSS8WXD","either","1","700","","","","","","","0","0","1","","0.02640977482","0.4","0.2","0.8","0.6","0.1086871361","0.02640977482","0.4401824822","0.1299487573","","","","","","","","","","","","","","74","J","1","","","129","main_expt","",""
"","bandit","211","659797","0.0-171.0-0.0","86971418","wem/bandit_party_1","A1KLWHCGSS8WXD","either","1","632","","","","","","","0","0","1","","0.03646961518","0.4","0.2","0.8","0.6","0.1672766288","0.03646961518","0.4160959849","0.1172580566","","","","","","","","","","","","","","74","J","1","","","130","main_expt","",""
"","bandit","212","662111","0.0-172.0-0.0","86971418","wem/bandit_party_1","A1KLWHCGSS8WXD","either","1","754","","","","","","","0","0","1","","0.02171712127","0.4","0.2","0.8","0.6","0.157110596","0.02171712127","0.4374535298","0.1289979545","","","","","","","","","","","","","","74","J","1","","","131","main_expt","",""
"","bandit","213","664521","0.0-173.0-0.0","86971418","wem/bandit_party_1","A1KLWHCGSS8WXD","either","1","845","","","","","","","0","0","1","","0.01004766493","0.4","0.2","0.8","0.6","0.1338697581","0.01004766493","0.4382483821","0.1243754988","","","","","","","","","","","","","","74","J","1","","","132","main_expt","",""
"","bandit","214","666783","0.0-174.0-0.0","86971418","wem/bandit_party_1","A1KLWHCGSS8WXD","either","1","713","","","","","","","0","0","1","","0.005153708139","0.4","0.2","0.8","0.6","0.1101669797","0.005153708139","0.3913946914","0.1189203389","","","","","","","","","","","","","","74","J","1","","","133","main_expt","",""
"","bandit","215","670384","0.0-175.0-0.0","86971418","wem/bandit_party_1","A1KLWHCGSS8WXD","either","1","2036","","","","","","","0","0","1","0.01308543257","","0.4","0.2","0.8","0.6","","","","","0.060775537","0.01308543257","0.4280120537","0.07075860378","","","","","","","","","","74","J","1","","","134","main_expt","",""
"","bandit","216","672214","0.0-176.0-0.0","86971418","wem/bandit_party_1","A1KLWHCGSS8WXD","either","1","268","","","","","","","0","0","1","","0.4385213509","0.4","0.2","0.8","0.6","0.0714416082","0.02634180281","0.4385213509","0.1073185777","","","","","","","","","","","","","","75","K","2","","","135","main_expt","",""
"","bandit","217","675503","0.0-177.0-0.0","86971418","wem/bandit_party_1","A1KLWHCGSS8WXD","either","1","1722","","","","","","","1","0","0","0.4605212521","","0.4","0.2","0.8","0.6","","","","","0.1115096907","0.04122629063","0.4605212521","0.1001442491","","","","","","","","","","75","K","2","","","136","main_expt","",""
"","bandit","218","677975","0.0-178.0-0.0","86971418","wem/bandit_party_1","A1KLWHCGSS8WXD","either","1","917","","","","","","","1","0","0","0.4729500637","","0.4","0.2","0.8","0.6","","","","","0.1307091067","0.05517648788","0.4729500637","0.1736681681","","","","","","","","","","75","K","2","","","137","main_expt","",""
"","bandit","219","680564","0.0-179.0-0.0","86971418","wem/bandit_party_1","A1KLWHCGSS8WXD","either","1","1023","","","","","","","0","0","1","0.4705425907","","0.4","0.2","0.8","0.6","","","","","0.1289533412","0.05929415862","0.4705425907","0.1839908368","","","","","","","","","","75","K","2","","","138","main_expt","",""
"","bandit","220","684767","0.0-180.0-0.0","86971418","wem/bandit_party_1","A1KLWHCGSS8WXD","either","1","2632","","","","","","","0","0","1","","0.465423541","0.4","0.2","0.8","0.6","0.1215972271","0.05470710098","0.465423541","0.1500833973","","","","","","","","","","","","","","75","K","2","","","139","main_expt","",""
"","bandit","221","687289","0.0-181.0-0.0","86971418","wem/bandit_party_1","A1KLWHCGSS8WXD","either","1","977","","","","","","","0","0","1","","0.1158179575","0.4","0.2","0.8","0.6","0.1158179575","0.06062538604","0.4486857012","0.1718879457","","","","","","","","","","","","","","72","H","0","img/none_selected.jpg","","140","main_expt","",""
"","bandit","222","689487","0.0-182.0-0.0","86971418","wem/bandit_party_1","A1KLWHCGSS8WXD","either","1","641","","","","","","","0","0","1","","0.05819772386","0.4","0.2","0.8","0.6","0.08691297649","0.05819772386","0.4053061298","0.2025036279","","","","","","","","","","","","","","74","J","1","","","141","main_expt","",""
"","bandit","223","691375","0.0-183.0-0.0","86971418","wem/bandit_party_1","A1KLWHCGSS8WXD","either","1","317","","","","","","","0","0","1","","0.1872564568","0.4","0.2","0.8","0.6","0.1425267255","0.05329701838","0.3989731656","0.1872564568","","","","","","","","","","","","","","76","L","3","","","142","main_expt","",""
"","bandit","224","693332","0.0-184.0-0.0","86971418","wem/bandit_party_1","A1KLWHCGSS8WXD","either","1","414","","","","","","","1","0","0","0.3783570596","","0.4","0.2","0.8","0.6","","","","","0.1425141192","0.06209903385","0.3783570596","0.1676641842","","","","","","","","","","75","K","2","","","143","main_expt","",""
"","bandit","225","695570","0.0-185.0-0.0","86971418","wem/bandit_party_1","A1KLWHCGSS8WXD","either","1","673","","","","","","","1","0","0","0.3485663762","","0.4","0.2","0.8","0.6","","","","","0.1362652721","0.06954729647","0.3485663762","0.1502987652","","","","","","","","","","75","K","2","","","144","main_expt","",""
"","bandit","226","697851","0.0-186.0-0.0","86971418","wem/bandit_party_1","A1KLWHCGSS8WXD","either","1","725","","","","","","","0","0","1","0.3534190037","","0.4","0.2","0.8","0.6","","","","","0.1335650053","0.062760129","0.3534190037","0.1050568962","","","","","","","","","","75","K","2","","","145","main_expt","",""
"","bandit","227","700450","0.0-187.0-0.0","86971418","wem/bandit_party_1","A1KLWHCGSS8WXD","either","1","1034","","","","","","","0","0","1","0.1392461982","","0.4","0.2","0.8","0.6","","","","","0.1392461982","0.05014677947","0.342282706","0.1266784727","","","","","","","","","","72","H","0","img/none_selected.jpg","","146","main_expt","",""
"","bandit","228","702342","0.0-188.0-0.0","86971418","wem/bandit_party_1","A1KLWHCGSS8WXD","either","1","338","","","","","","","0","0","1","","0.04801868921","0.4","0.2","0.8","0.6","0.1060810453","0.04801868921","0.3497384939","0.1121887101","","","","","","","","","","","","","","74","J","1","","","147","main_expt","",""
"","bandit","229","704362","0.0-189.0-0.0","86971418","wem/bandit_party_1","A1KLWHCGSS8WXD","either","1","462","","","","","","","0","0","1","0.3507348305","","0.4","0.2","0.8","0.6","","","","","0.1076054289","0.05298179562","0.3507348305","0.1050077765","","","","","","","","","","75","K","2","","","148","main_expt","",""
"","bandit","230","706500","0.0-190.0-0.0","86971418","wem/bandit_party_1","A1KLWHCGSS8WXD","either","1","571","","","","","","","0","0","1","","0.08725679698","0.4","0.2","0.8","0.6","0.09143227578","0.05271587927","0.306786392","0.08725679698","","","","","","","","","","","","","","76","L","3","","","149","main_expt","",""
"","bandit","231","708307","0.0-191.0-0.0","86971418","wem/bandit_party_1","A1KLWHCGSS8WXD","either","1","239","","","","","","","0","0","1","0.08361181256","","0.4","0.2","0.8","0.6","","","","","0.08361181256","0.06153260368","0.3289077467","0.04813781364","","","","","","","","","","72","H","0","img/none_selected.jpg","","150","main_expt","",""
"","bandit","232","710158","0.0-192.0-0.0","86971418","wem/bandit_party_1","A1KLWHCGSS8WXD","either","1","286","","","","","","","0","0","1","","0.07716317934","0.4","0.2","0.8","0.6","0.1038450747","0.07716317934","0.2844912386","0.04690393958","","","","","","","","","","","","","","74","J","1","","","151","main_expt","",""
"","bandit","233","712006","0.0-193.0-0.0","86971418","wem/bandit_party_1","A1KLWHCGSS8WXD","either","1","276","","","","","","","0","0","1","0.3221551402","","0.4","0.2","0.8","0.6","","","","","0.1311897928","0.08370894892","0.3221551402","0.05051779207","","","","","","","","","","75","K","2","","","152","main_expt","",""
"","bandit","234","713848","0.0-194.0-0.0","86971418","wem/bandit_party_1","A1KLWHCGSS8WXD","either","1","283","","","","","","","0","1","0","","0.0417019452","0.4","0.2","0.8","0.6","0.1106636196","0.06235129306","0.288581716","0.0417019452","","","","","","","","","","","","","","76","L","3","","","153","main_expt","",""
"","bandit","235","715893","0.0-195.0-0.0","86971418","wem/bandit_party_1","A1KLWHCGSS8WXD","either","1","479","","","","","","","0","0","1","","0.04565059468","0.4","0.2","0.8","0.6","0.08044616817","0.08808261531","0.3674714493","0.04565059468","","","","","","","","","","","","","","76","L","3","","","154","main_expt","",""
"","bandit","236","717850","0.0-196.0-0.0","86971418","wem/bandit_party_1","A1KLWHCGSS8WXD","either","1","394","","","","","","","0","0","1","","0.0249337719","0.4","0.2","0.8","0.6","0.09849608375","0.08415746701","0.3836765626","0.0249337719","","","","","","","","","","","","","","76","L","3","","","155","main_expt","",""
"","bandit","237","720191","0.0-197.0-0.0","86971418","wem/bandit_party_1","A1KLWHCGSS8WXD","either","1","779","","","","","","","0","0","1","0.0207568711","","0.4","0.2","0.8","0.6","","","","","0.0679626842","0.1363215429","0.3499766022","0.0207568711","","","","","","","","","","76","L","3","","","156","main_expt","",""
"","bandit","238","722494","0.0-198.0-0.0","86971418","wem/bandit_party_1","A1KLWHCGSS8WXD","either","1","742","","","","","","","0","0","1","","0.01044871803","0.4","0.2","0.8","0.6","0.06316877849","0.176329139","0.3083455354","0.01044871803","","","","","","","","","","","","","","76","L","3","","","157","main_expt","",""
"","bandit","239","724673","0.0-199.0-0.0","86971418","wem/bandit_party_1","A1KLWHCGSS8WXD","either","1","609","","","","","","","0","0","1","","0.06381796224","0.4","0.2","0.8","0.6","0.06381796224","0.2239815039","0.2780985587","0.008486032171","","","","","","","","","","","","","","72","H","0","img/none_selected.jpg","","158","main_expt","",""
"","bandit","240","726865","0.0-200.0-0.0","86971418","wem/bandit_party_1","A1KLWHCGSS8WXD","either","1","618","","","","","","","0","1","0","","0.1754735631","0.4","0.2","0.8","0.6","0.09986374221","0.1754735631","0.2721424699","0.006770001311","","","","","","","","","","","","","","74","J","1","","","159","main_expt","",""
"","bandit","241","728771","0.0-201.0-0.0","86971418","wem/bandit_party_1","A1KLWHCGSS8WXD","either","1","341","","","","","","","0","0","1","","0.1820859676","0.4","0.2","0.8","0.6","0.08334790929","0.1820859676","0.3005636977","0.005009972043","","","","","","","","","","","","","","74","J","1","","","160","main_expt","",""
"","bandit","242","730703","0.0-202.0-0.0","86971418","wem/bandit_party_1","A1KLWHCGSS8WXD","either","1","368","","","","","","","0","1","0","","0.1771527669","0.4","0.2","0.8","0.6","0.1094566723","0.1771527669","0.2481613967","0.003825417776","","","","","","","","","","","","","","74","J","1","","","161","main_expt","",""
"","bandit","243","732879","0.0-203.0-0.0","86971418","wem/bandit_party_1","A1KLWHCGSS8WXD","either","1","621","","","","","","","0","1","0","","0.209245514","0.4","0.2","0.8","0.6","0.1287108975","0.209245514","0.2040880477","0.006458278423","","","","","","","","","","","","","","74","J","1","","","162","main_expt","",""
"","bandit","244","735314","0.0-204.0-0.0","86971418","wem/bandit_party_1","A1KLWHCGSS8WXD","either","1","844","","","","","","","0","0","1","","0.1864252411","0.4","0.2","0.8","0.6","0.1811808859","0.1864252411","0.256608811","0.01344146107","","","","","","","","","","","","","","74","J","1","","","163","main_expt","",""
"","bandit","245","737643","0.0-205.0-0.0","86971418","wem/bandit_party_1","A1KLWHCGSS8WXD","either","1","757","","","","","","","0","0","1","","0.1662237337","0.4","0.2","0.8","0.6","0.1374611454","0.1662237337","0.2798468236","0.004940614731","","","","","","","","","","","","","","74","J","1","","","164","main_expt","",""
"","bandit","246","740202","0.0-206.0-0.0","86971418","wem/bandit_party_1","A1KLWHCGSS8WXD","either","1","996","","","","","","","0","0","1","0.2689568899","","0.4","0.2","0.8","0.6","","","","","0.1640313333","0.1375661656","0.2689568899","0.007349038951","","","","","","","","","","75","K","2","","","165","main_expt","",""
"","bandit","247","742954","0.0-207.0-0.0","86971418","wem/bandit_party_1","A1KLWHCGSS8WXD","either","1","1173","","","","","","","1","0","0","0.2786045926","","0.4","0.2","0.8","0.6","","","","","0.20052236","0.1416727521","0.2786045926","0.005679103294","","","","","","","","","","75","K","2","","","166","main_expt","",""
"","bandit","248","746922","0.0-208.0-0.0","86971418","wem/bandit_party_1","A1KLWHCGSS8WXD","either","1","2404","","","","","","","0","0","1","","0.2507583434","0.4","0.2","0.8","0.6","0.1945206589","0.1497541138","0.2507583434","0.004037182679","","","","","","","","","","","","","","75","K","2","","","167","main_expt","",""
"","bandit","249","749611","0.0-209.0-0.0","86971418","wem/bandit_party_1","A1KLWHCGSS8WXD","either","1","1163","","","","","","","1","0","0","0.1827624484","","0.4","0.2","0.8","0.6","","","","","0.1902154162","0.1761460581","0.1827624484","0.007111326723","","","","","","","","","","75","K","2","","","168","main_expt","",""
"","bandit","250","751889","0.0-210.0-0.0","86971418","wem/bandit_party_1","A1KLWHCGSS8WXD","either","1","716","","","","","","","1","0","0","0.1558723634","","0.4","0.2","0.8","0.6","","","","","0.1931964682","0.2248215173","0.1558723634","0.01708305062","","","","","","","","","","75","K","2","","","169","main_expt","",""
"","bandit","251","753986","0.0-211.0-0.0","86971418","wem/bandit_party_1","A1KLWHCGSS8WXD","either","1","531","","","","","","","0","0","1","0.1757164868","","0.4","0.2","0.8","0.6","","","","","0.236179436","0.2503105048","0.1757164868","0.02105388628","","","","","","","","","","75","K","2","","","170","main_expt","",""
"","bandit","252","756224","0.0-212.0-0.0","86971418","wem/bandit_party_1","A1KLWHCGSS8WXD","either","1","665","","","","","","","0","0","1","0.1985597056","","0.4","0.2","0.8","0.6","","","","","0.2229285478","0.2515708499","0.1985597056","0.01477187034","","","","","","","","","","75","K","2","","","171","main_expt","",""
"","bandit","253","758443","0.0-213.0-0.0","86971418","wem/bandit_party_1","A1KLWHCGSS8WXD","either","1","658","","","","","","","0","0","1","0.00639283578","","0.4","0.2","0.8","0.6","","","","","0.1805811295","0.2601117771","0.1725269859","0.00639283578","","","","","","","","","","76","L","3","","","172","main_expt","",""
"","bandit","254","760446","0.0-214.0-0.0","86971418","wem/bandit_party_1","A1KLWHCGSS8WXD","either","1","425","","","","","","","0","0","1","","0.008503536177","0.4","0.2","0.8","0.6","0.2203049146","0.2277859889","0.1955807132","0.008503536177","","","","","","","","","","","","","","76","L","3","","","173","main_expt","",""
"","bandit","255","762347","0.0-215.0-0.0","86971418","wem/bandit_party_1","A1KLWHCGSS8WXD","either","1","336","","","","","","","0","0","1","0.2079245196","","0.4","0.2","0.8","0.6","","","","","0.2079245196","0.204090619","0.1712969398","0.01512836446","","","","","","","","","","72","H","0","img/none_selected.jpg","","174","main_expt","",""
"","bandit","256","764667","0.0-216.0-0.0","86971418","wem/bandit_party_1","A1KLWHCGSS8WXD","either","1","745","","","","","","","0","0","1","","0.2264282848","0.4","0.2","0.8","0.6","0.1904909119","0.2264282848","0.2145566876","0.034550241","","","","","","","","","","","","","","74","J","1","","","175","main_expt","",""
"","bandit","257","766623","0.0-217.0-0.0","86971418","wem/bandit_party_1","A1KLWHCGSS8WXD","either","1","379","","","","","","","0","0","1","0.1611975006","","0.4","0.2","0.8","0.6","","","","","0.1611975006","0.2263436383","0.1987050603","0.01969997198","","","","","","","","","","72","H","0","img/none_selected.jpg","","176","main_expt","",""
"","bandit","258","768710","0.0-218.0-0.0","86971418","wem/bandit_party_1","A1KLWHCGSS8WXD","either","1","516","","","","","","","0","0","1","0.1747210449","","0.4","0.2","0.8","0.6","","","","","0.1747210449","0.2449632337","0.2161967517","0.02558747067","","","","","","","","","","72","H","0","img/none_selected.jpg","","177","main_expt","",""
"","bandit","259","770786","0.0-219.0-0.0","86971418","wem/bandit_party_1","A1KLWHCGSS8WXD","either","1","524","","","","","","","0","0","1","","0.1667690144","0.4","0.2","0.8","0.6","0.1667690144","0.1923885174","0.1790488899","0.02865462312","","","","","","","","","","","","","","72","H","0","img/none_selected.jpg","","178","main_expt","",""
"","bandit","260","772809","0.0-220.0-0.0","86971418","wem/bandit_party_1","A1KLWHCGSS8WXD","either","1","462","","","","","","","0","0","1","","0.1791230597","0.4","0.2","0.8","0.6","0.248539666","0.1791230597","0.1254539317","0.05873937836","","","","","","","","","","","","","","74","J","1","","","179","main_expt","",""
"","bandit","261","774874","0.0-221.0-0.0","86971418","wem/bandit_party_1","A1KLWHCGSS8WXD","either","1","489","","","","","","","0","1","0","","0.1641305094","0.4","0.2","0.8","0.6","0.2393284063","0.1641305094","0.1761702366","0.04996702027","","","","","","","","","","","","","","74","J","1","","","180","main_expt","",""
"","bandit","262","776866","0.0-222.0-0.0","86971418","wem/bandit_party_1","A1KLWHCGSS8WXD","either","1","427","","","","","","","0","0","1","","0.1567194189","0.4","0.2","0.8","0.6","0.2450765022","0.1567194189","0.2307221343","0.06192223509","","","","","","","","","","","","","","74","J","1","","","181","main_expt","",""
"","bandit","263","778748","0.0-223.0-0.0","86971418","wem/bandit_party_1","A1KLWHCGSS8WXD","either","1","316","","","","","","","0","1","0","","0.1805899487","0.4","0.2","0.8","0.6","0.2898963007","0.1805899487","0.1656926355","0.07865608963","","","","","","","","","","","","","","74","J","1","","","182","main_expt","",""
"","bandit","264","780674","0.0-224.0-0.0","86971418","wem/bandit_party_1","A1KLWHCGSS8WXD","either","1","367","","","","","","","0","0","1","0.1381226487","","0.4","0.2","0.8","0.6","","","","","0.337419987","0.1381226487","0.1997223474","0.0695036973","","","","","","","","","","74","J","1","","","183","main_expt","",""
"","bandit","265","782626","0.0-225.0-0.0","86971418","wem/bandit_party_1","A1KLWHCGSS8WXD","either","1","398","","","","","","","0","1","0","","0.1157029232","0.4","0.2","0.8","0.6","0.3334404967","0.1157029232","0.1936006223","0.09883674892","","","","","","","","","","","","","","74","J","1","","","184","main_expt","",""
"","bandit","266","784858","0.0-226.0-0.0","86971418","wem/bandit_party_1","A1KLWHCGSS8WXD","either","1","657","","","","","","","0","1","0","","0.09007466759","0.4","0.2","0.8","0.6","0.3049781316","0.09007466759","0.1794548994","0.1344132801","","","","","","","","","","","","","","74","J","1","","","185","main_expt","",""
"","bandit","267","786895","0.0-227.0-0.0","86971418","wem/bandit_party_1","A1KLWHCGSS8WXD","either","1","473","","","","","","","0","0","1","","0.07784091677","0.4","0.2","0.8","0.6","0.322039184","0.07784091677","0.1679588243","0.1194183803","","","","","","","","","","","","","","74","J","1","","","186","main_expt","",""
"","bandit","268","789065","0.0-228.0-0.0","86971418","wem/bandit_party_1","A1KLWHCGSS8WXD","either","1","597","","","","","","","0","0","1","","0.1332261693","0.4","0.2","0.8","0.6","0.2898485093","0.1332261693","0.1692259204","0.1456002269","","","","","","","","","","","","","","74","J","1","","","187","main_expt","",""
"","bandit","269","791283","0.0-229.0-0.0","86971418","wem/bandit_party_1","A1KLWHCGSS8WXD","either","1","638","","","","","","","0","0","1","0.1302169342","","0.4","0.2","0.8","0.6","","","","","0.3046836684","0.1302169342","0.1796926114","0.1008589119","","","","","","","","","","74","J","1","","","188","main_expt","",""
"","bandit","270","793709","0.0-230.0-0.0","86971418","wem/bandit_party_1","A1KLWHCGSS8WXD","either","1","845","","","","","","","0","0","1","","0.1459867673","0.4","0.2","0.8","0.6","0.3437642557","0.1459867673","0.1463090895","0.09109327247","","","","","","","","","","","","","","74","J","1","","","189","main_expt","",""
"","bandit","271","796039","0.0-231.0-0.0","86971418","wem/bandit_party_1","A1KLWHCGSS8WXD","either","1","748","","","","","","","0","0","1","","0.1670442817","0.4","0.2","0.8","0.6","0.3685715368","0.1930387326","0.1670442817","0.133333279","","","","","","","","","","","","","","75","K","2","","","190","main_expt","",""
"","bandit","272","797955","0.0-232.0-0.0","86971418","wem/bandit_party_1","A1KLWHCGSS8WXD","either","1","360","","","","","","","1","0","0","0.2148667481","","0.4","0.2","0.8","0.6","","","","","0.4063368095","0.1447045196","0.2148667481","0.1253338948","","","","","","","","","","75","K","2","","","191","main_expt","",""
"","bandit","273","800283","0.0-233.0-0.0","86971418","wem/bandit_party_1","A1KLWHCGSS8WXD","either","1","759","","","","","","","0","0","1","0.1891029698","","0.4","0.2","0.8","0.6","","","","","0.4194789623","0.1521301445","0.1891029698","0.1371372983","","","","","","","","","","75","K","2","","","192","main_expt","",""
"","bandit","274","802305","0.0-234.0-0.0","86971418","wem/bandit_party_1","A1KLWHCGSS8WXD","either","1","440","","","","","","","0","0","1","0.1818436489","","0.4","0.2","0.8","0.6","","","","","0.3914453041","0.1216552598","0.1818436489","0.1269519223","","","","","","","","","","75","K","2","","","193","main_expt","",""
"","bandit","275","804534","0.0-235.0-0.0","86971418","wem/bandit_party_1","A1KLWHCGSS8WXD","either","1","660","","","","","","","0","0","1","0.2036833838","","0.4","0.2","0.8","0.6","","","","","0.3988429791","0.07681554104","0.2036833838","0.1253972088","","","","","","","","","","75","K","2","","","194","main_expt","",""
"","bandit","276","806851","0.0-236.0-0.0","86971418","wem/bandit_party_1","A1KLWHCGSS8WXD","either","1","761","","","","","","","0","0","1","","0.2189502041","0.4","0.2","0.8","0.6","0.4212514022","0.07468822185","0.2189502041","0.1231557279","","","","","","","","","","","","","","75","K","2","","","195","main_expt","",""
"","bandit","277","808986","0.0-237.0-0.0","86971418","wem/bandit_party_1","A1KLWHCGSS8WXD","either","1","561","","","","","","","0","0","1","0.2011136523","","0.4","0.2","0.8","0.6","","","","","0.4128950903","0.07634526252","0.2011136523","0.2304226507","","","","","","","","","","75","K","2","","","196","main_expt","",""
"","bandit","278","811179","0.0-238.0-0.0","86971418","wem/bandit_party_1","A1KLWHCGSS8WXD","either","1","612","","","","","","","0","0","1","0.3102822931","","0.4","0.2","0.8","0.6","","","","","0.3979973083","0.06680697181","0.2295646827","0.3102822931","","","","","","","","","","76","L","3","","","197","main_expt","",""
"","bandit","279","813292","0.0-239.0-0.0","86971418","wem/bandit_party_1","A1KLWHCGSS8WXD","either","1","585","","","","","","","0","0","1","0.3222054514","","0.4","0.2","0.8","0.6","","","","","0.3153467244","0.05107679344","0.2570874699","0.3222054514","","","","","","","","","","76","L","3","","","198","main_expt","",""
"","bandit","280","815282","0.0-240.0-0.0","86971418","wem/bandit_party_1","A1KLWHCGSS8WXD","either","1","429","","","","","","","0","0","1","0.3416159467","","0.4","0.2","0.8","0.6","","","","","0.3121882746","0.06140804873","0.2215013189","0.3416159467","","","","","","","","","","76","L","3","","","199","main_expt","",""
"","bandit","281","817209","0.0-241.0-0.0","86971418","wem/bandit_party_1","A1KLWHCGSS8WXD","either","1","352","","","","","","","0","0","1","","0.3826655938","0.4","0.2","0.8","0.6","0.3789620948","0.05697288244","0.1681318695","0.3826655938","","","","","","","","","","","","","","76","L","3","","","200","main_expt","",""
"","bandit","282","819385","0.0-242.0-0.0","86971418","wem/bandit_party_1","A1KLWHCGSS8WXD","either","1","620","","","","","","","1","0","0","0.3575696279","","0.4","0.2","0.8","0.6","","","","","0.3575696279","0.04802221103","0.1787039029","0.4117435103","","","","","","","","","","72","H","0","img/none_selected.jpg","","201","main_expt","",""
"","bandit","283","821833","0.0-243.0-0.0","86971418","wem/bandit_party_1","A1KLWHCGSS8WXD","either","1","894","","","","","","","1","0","0","0.3937046418","","0.4","0.2","0.8","0.6","","","","","0.3937046418","0.04583536071","0.2180442152","0.4023622846","","","","","","","","","","72","H","0","img/none_selected.jpg","","202","main_expt","",""
"","bandit","284","824217","0.0-244.0-0.0","86971418","wem/bandit_party_1","A1KLWHCGSS8WXD","either","1","854","","","","","","","0","0","1","","0.3901943722","0.4","0.2","0.8","0.6","0.3901943722","0.03655969434","0.262784421","0.4225273878","","","","","","","","","","","","","","72","H","0","img/none_selected.jpg","","203","main_expt","",""
"","bandit","285","826404","0.0-245.0-0.0","86971418","wem/bandit_party_1","A1KLWHCGSS8WXD","either","1","615","","","","","","","0","0","1","0.4099131859","","0.4","0.2","0.8","0.6","","","","","0.4099131859","0.05773518339","0.2843732649","0.4151046429","","","","","","","","","","72","H","0","img/none_selected.jpg","","204","main_expt","",""
"","bandit","286","828307","0.0-246.0-0.0","86971418","wem/bandit_party_1","A1KLWHCGSS8WXD","either","1","326","","","","","","","0","0","1","","0.4238238901","0.4","0.2","0.8","0.6","0.4238238901","0.06616346658","0.2549063301","0.4288165897","","","","","","","","","","","","","","72","H","0","img/none_selected.jpg","","205","main_expt","",""
"","bandit","287","830970","0.0-247.0-0.0","86971418","wem/bandit_party_1","A1KLWHCGSS8WXD","either","1","1091","","","","","","","0","0","1","","0.4139837541","0.4","0.2","0.8","0.6","0.4139837541","0.09055598832","0.2982701688","0.436745712","","","","","","","","","","","","","","72","H","0","img/none_selected.jpg","","206","main_expt","",""
"","bandit","288","833077","0.0-248.0-0.0","86971418","wem/bandit_party_1","A1KLWHCGSS8WXD","either","1","543","","","","","","","0","0","1","","0.3544894801","0.4","0.2","0.8","0.6","0.3544894801","0.07583085731","0.3423773839","0.4484652972","","","","","","","","","","","","","","72","H","0","img/none_selected.jpg","","207","main_expt","",""
"","bandit","289","836465","0.0-249.0-0.0","86971418","wem/bandit_party_1","A1KLWHCGSS8WXD","either","1","1813","","","","","","","0","0","1","","0.3703609936","0.4","0.2","0.8","0.6","0.3703609936","0.09768014643","0.3321535101","0.4516947584","","","","","","","","","","","","","","72","H","0","img/none_selected.jpg","","208","main_expt","",""
"","bandit","290","838704","0.0-250.0-0.0","86971418","wem/bandit_party_1","A1KLWHCGSS8WXD","either","1","678","","","","","","","0","0","1","0.08389795445","","0.4","0.2","0.8","0.6","","","","","0.3590511704","0.08389795445","0.3467721984","0.4590139285","","","","","","","","","","74","J","1","","","209","main_expt","",""
"","bandit","291","840843","0.0-251.0-0.0","86971418","wem/bandit_party_1","A1KLWHCGSS8WXD","either","1","572","","","","","","","0","0","1","0.07846525543","","0.4","0.2","0.8","0.6","","","","","0.3781523972","0.07846525543","0.3513447539","0.4378910613","","","","","","","","","","74","J","1","","","210","main_expt","",""
"","bandit","292","843278","0.0-252.0-0.0","86971418","wem/bandit_party_1","A1KLWHCGSS8WXD","either","1","847","","","","","","","0","0","1","","0.05906932722","0.4","0.2","0.8","0.6","0.3895188655","0.05906932722","0.4003692624","0.4139384991","","","","","","","","","","","","","","74","J","1","","","211","main_expt","",""
"","bandit","293","845362","0.0-253.0-0.0","86971418","wem/bandit_party_1","A1KLWHCGSS8WXD","either","1","518","","","","","","","0","0","1","","0.04754192311","0.4","0.2","0.8","0.6","0.4075098947","0.04754192311","0.3949660502","0.3659234609","","","","","","","","","","","","","","74","J","1","","","212","main_expt","",""
"","bandit","294","847395","0.0-254.0-0.0","86971418","wem/bandit_party_1","A1KLWHCGSS8WXD","either","1","476","","","","","","","0","0","1","","0.05481920189","0.4","0.2","0.8","0.6","0.4191075236","0.05481920189","0.4233479157","0.3180572988","","","","","","","","","","","","","","74","J","1","","","213","main_expt","",""
"","bandit","295","849279","0.0-255.0-0.0","86971418","wem/bandit_party_1","A1KLWHCGSS8WXD","either","1","303","","","","","","","1","0","0","0.4182751871","","0.4","0.2","0.8","0.6","","","","","0.3799529118","0.07954578011","0.4182751871","0.2611162072","","","","","","","","","","75","K","2","","","214","main_expt","",""
"","bandit","296","851460","0.0-256.0-0.0","86971418","wem/bandit_party_1","A1KLWHCGSS8WXD","either","1","602","","","","","","","1","0","0","0.3745823719","","0.4","0.2","0.8","0.6","","","","","0.3924699069","0.1078137614","0.3745823719","0.2331309726","","","","","","","","","","75","K","2","","","215","main_expt","",""
"","bandit","297","853824","0.0-257.0-0.0","86971418","wem/bandit_party_1","A1KLWHCGSS8WXD","either","1","798","","","","","","","0","0","1","","0.3809837923","0.4","0.2","0.8","0.6","0.3556657658","0.1269525553","0.3809837923","0.2428402293","","","","","","","","","","","","","","75","K","2","","","216","main_expt","",""
"","bandit","298","855961","0.0-258.0-0.0","86971418","wem/bandit_party_1","A1KLWHCGSS8WXD","either","1","552","","","","","","","0","0","1","","0.4144294186","0.4","0.2","0.8","0.6","0.3870416945","0.1849794572","0.4144294186","0.2317762644","","","","","","","","","","","","","","75","K","2","","","217","main_expt","",""
"","bandit","299","858064","0.0-259.0-0.0","86971418","wem/bandit_party_1","A1KLWHCGSS8WXD","either","1","521","","","","","","","0","0","1","","0.4090742927","0.4","0.2","0.8","0.6","0.3944581396","0.1903787706","0.4090742927","0.204309912","","","","","","","","","","","","","","75","K","2","","","218","main_expt","",""
"","bandit","300","860043","0.0-260.0-0.0","86971418","wem/bandit_party_1","A1KLWHCGSS8WXD","either","1","411","","","","","","","0","0","1","","0.1685596251","0.4","0.2","0.8","0.6","0.4256173987","0.1768508397","0.3869695378","0.1685596251","","","","","","","","","","","","","","76","L","3","","","219","main_expt","",""
"","bandit","301","862246","0.0-261.0-0.0","86971418","wem/bandit_party_1","A1KLWHCGSS8WXD","either","1","629","","","","","","","0","0","1","","0.2488487331","0.4","0.2","0.8","0.6","0.4240862242","0.2176561852","0.3814250035","0.2488487331","","","","","","","","","","","","","","76","L","3","","","220","main_expt","",""
"","bandit","302","864605","0.0-262.0-0.0","86971418","wem/bandit_party_1","A1KLWHCGSS8WXD","either","1","778","","","","","","","0","0","1","","0.2789816034","0.4","0.2","0.8","0.6","0.4364702466","0.2075488201","0.3560431311","0.2789816034","","","","","","","","","","","","","","76","L","3","","","221","main_expt","",""
"","bandit","303","866568","0.0-263.0-0.0","86971418","wem/bandit_party_1","A1KLWHCGSS8WXD","either","1","397","","","","","","","0","0","1","","0.4512924842","0.4","0.2","0.8","0.6","0.4512924842","0.2260831429","0.3424215647","0.242729834","","","","","","","","","","","","","","72","H","0","img/none_selected.jpg","","222","main_expt","",""
"","bandit","304","869120","0.0-264.0-0.0","86971418","wem/bandit_party_1","A1KLWHCGSS8WXD","either","1","975","","","","","","","0","0","1","0.4649948574","","0.4","0.2","0.8","0.6","","","","","0.4649948574","0.2512075751","0.3118962833","0.196538567","","","","","","","","","","72","H","0","img/none_selected.jpg","","223","main_expt","",""
"","bandit","305","871150","0.0-265.0-0.0","86971418","wem/bandit_party_1","A1KLWHCGSS8WXD","either","1","466","","","","","","","0","0","1","","0.4692106987","0.4","0.2","0.8","0.6","0.4692106987","0.3072691987","0.261290028","0.2189223785","","","","","","","","","","","","","","72","H","0","img/none_selected.jpg","","224","main_expt","",""
"","bandit","306","873135","0.0-266.0-0.0","86971418","wem/bandit_party_1","A1KLWHCGSS8WXD","either","1","459","","","","","","","0","0","1","0.4772226815","","0.4","0.2","0.8","0.6","","","","","0.4772226815","0.3358063032","0.2748104332","0.2131207899","","","","","","","","","","72","H","0","img/none_selected.jpg","","225","main_expt","",""
"","bandit","307","875181","0.0-267.0-0.0","86971418","wem/bandit_party_1","A1KLWHCGSS8WXD","either","1","479","","","","","","","0","1","0","","0.4828013869","0.4","0.2","0.8","0.6","0.4828013869","0.2994610032","0.2112523614","0.187439681","","","","","","","","","","","","","","72","H","0","img/none_selected.jpg","","226","main_expt","",""
"","bandit","308","878153","0.0-268.0-0.0","86971418","wem/bandit_party_1","A1KLWHCGSS8WXD","either","1","1381","","","","","","","1","0","0","0.4805292857","","0.4","0.2","0.8","0.6","","","","","0.4805292857","0.2719992041","0.1879164098","0.1522087394","","","","","","","","","","72","H","0","img/none_selected.jpg","","227","main_expt","",""
"","bandit","309","880428","0.0-269.0-0.0","86971418","wem/bandit_party_1","A1KLWHCGSS8WXD","either","1","716","","","","","","","0","1","0","","0.4770879938","0.4","0.2","0.8","0.6","0.4770879938","0.2601066631","0.1857646906","0.1975586059","","","","","","","","","","","","","","72","H","0","img/none_selected.jpg","","228","main_expt","",""
"","bandit","310","882798","0.0-270.0-0.0","86971418","wem/bandit_party_1","A1KLWHCGSS8WXD","either","1","809","","","","","","","1","0","0","0.4830225504","","0.4","0.2","0.8","0.6","","","","","0.4830225504","0.2333982712","0.1608888173","0.2280604414","","","","","","","","","","72","H","0","img/none_selected.jpg","","229","main_expt","",""
"","bandit","311","885295","0.0-271.0-0.0","86971418","wem/bandit_party_1","A1KLWHCGSS8WXD","either","1","933","","","","","","","1","0","0","0.4827210916","","0.4","0.2","0.8","0.6","","","","","0.4827210916","0.2179366985","0.1139945837","0.2120359748","","","","","","","","","","72","H","0","img/none_selected.jpg","","230","main_expt","",""
"","bandit","312","887738","0.0-272.0-0.0","86971418","wem/bandit_party_1","A1KLWHCGSS8WXD","either","1","882","","","","","","","0","0","1","","0.4764813513","0.4","0.2","0.8","0.6","0.4764813513","0.210335649","0.1071229599","0.2260377558","","","","","","","","","","","","","","72","H","0","img/none_selected.jpg","","231","main_expt","",""
"","bandit","313","889883","0.0-273.0-0.0","86971418","wem/bandit_party_1","A1KLWHCGSS8WXD","either","1","558","","","","","","","0","0","1","","0.4794978353","0.4","0.2","0.8","0.6","0.4794978353","0.2154905401","0.1250262501","0.2810037348","","","","","","","","","","","","","","72","H","0","img/none_selected.jpg","","232","main_expt","",""
