"consent","trial_type","trial_index","time_elapsed","internal_node_id","subjID","study","MID","cond","drift","rt","responses","button_pressed","key_press","like","value","connected","gems","bombs","no_reward","GemPrChosen","BombPrChosen","GainOverPainPr_0","GainOverPainPr_1","GainOverPainPr_2","GainOverPainPr_3","LosePr_0","LosePr_1","LosePr_2","LosePr_3","WinPr_0","WinPr_1","WinPr_2","WinPr_3","Q0","Q1","Q2","gender","age","ethnicity","label","expt_phase","target","respCharCode","respKey","respChoiceNum","respChoice","practice","trial_counter","trial_label","Q0_index"
"GDM/GDM_behavioral_consent_30min_online.html","consent","0","21902","0.0-0.0","87408961","wem/bandit_party_1","A19R7FSNDW6WRK","either","8","","","","","","","","","","","","","","","","","","","","","","","","","","","","","","","","","","","","","","","","",""
"","survey-text","1","28511","0.0-1.0","87408961","wem/bandit_party_1","A19R7FSNDW6WRK","either","8","5589","{""Q0"":""A19R7FSNDW6WRK""}","","","","","","","","","","","","","","","","","","","","","","","","","","","","","","","","","","","","","","",""
"","button-response","2","31739","0.0-2.0","87408961","wem/bandit_party_1","A19R7FSNDW6WRK","either","8","2212","","0","","","","","","","","","","","","","","","","","","","","","","","","","","","","","","","","","","","","","",""
"","text-replacement","3","44189","0.0-3.0","87408961","wem/bandit_party_1","A19R7FSNDW6WRK","either","8","11441","","","32","","","","","","","","","","","","","","","","","","","","","","","","","","","","","","","","","","","","",""
"","text-replacement","4","55410","0.0-4.0","87408961","wem/bandit_party_1","A19R7FSNDW6WRK","either","8","11219","","","32","","","","","","","","","","","","","","","","","","","","","","","","","","","","","","","","","","","","",""
"","identification","5","63371","0.0-6.0-0.0","87408961","wem/bandit_party_1","A19R7FSNDW6WRK","either","8","7942","","","","1","1","0","","","","","","","","","","","","","","","","","","","","","","","","pre","identification_pre","the Democratic Party","","","","","","","",""
"","identification","6","74768","0.0-6.0-1.0","87408961","wem/bandit_party_1","A19R7FSNDW6WRK","either","8","10356","","","","3","3","3","","","","","","","","","","","","","","","","","","","","","","","","pre","identification_pre","the Republican party","","","","","","","",""
"","text-replacement","7","81374","0.0-7.0","87408961","wem/bandit_party_1","A19R7FSNDW6WRK","either","8","5583","","","32","","","","","","","","","","","","","","","","","","","","","","","","","","","","","","","","","","","","",""
"","text-replacement","8","85910","0.0-8.0","87408961","wem/bandit_party_1","A19R7FSNDW6WRK","either","8","4511","","","32","","","","","","","","","","","","","","","","","","","","","","","","","","","","","","","","","","","","",""
"","text-replacement","9","93138","0.0-9.0","87408961","wem/bandit_party_1","A19R7FSNDW6WRK","either","8","7210","","","32","","","","","","","","","","","","","","","","","","","","","","","","","","","","","","","","","","","","",""
"","text-replacement","10","95714","0.0-10.0","87408961","wem/bandit_party_1","A19R7FSNDW6WRK","either","8","2559","","","32","","","","","","","","","","","","","","","","","","","","","","","","","","","","","","","","","","","","",""
"","text-replacement","11","103714","0.0-11.0","87408961","wem/bandit_party_1","A19R7FSNDW6WRK","either","8","7990","","","32","","","","","","","","","","","","","","","","","","","","","","","","","","","","","","","","","","","","",""
"","bandit","12","106562","0.0-12.0-0.0","87408961","wem/bandit_party_1","A19R7FSNDW6WRK","either","8","1268","","","","","","","0","0","1","0","0","","","","","0","","","","0","","","","","","","","","","","","","74","J","0","img/none_selected_demo.jpg","true","0","",""
"","bandit","13","108937","0.0-13.0-0.0","87408961","wem/bandit_party_1","A19R7FSNDW6WRK","either","8","841","","","","","","","0","0","1","0","0","","","","","0","","","","0","","","","","","","","","","","","","75","K","0","img/none_selected_demo.jpg","true","0","",""
"","text-replacement","14","119465","0.0-14.0","87408961","wem/bandit_party_1","A19R7FSNDW6WRK","either","8","10526","","","32","","","","","","","","","","","","","","","","","","","","","","","","","","","","","","","","","","","","",""
"","text-replacement","15","122881","0.0-15.0","87408961","wem/bandit_party_1","A19R7FSNDW6WRK","either","8","3409","","","32","","","","","","","","","","","","","","","","","","","","","","","","","","","","","","","","","","","","",""
"","text-replacement","16","129857","0.0-16.0","87408961","wem/bandit_party_1","A19R7FSNDW6WRK","either","8","6970","","","32","","","","","","","","","","","","","","","","","","","","","","","","","","","","","","","","","","","","",""
"","text-replacement","17","133461","0.0-17.0","87408961","wem/bandit_party_1","A19R7FSNDW6WRK","either","8","3595","","","32","","","","","","","","","","","","","","","","","","","","","","","","","","","","","","","","","","","","",""
"","bandit","18","135931","0.0-18.0-0.0","87408961","wem/bandit_party_1","A19R7FSNDW6WRK","either","8","667","","","","","","","1","0","0","0.8","","0.5","0.5","","","","","","","0.8","0.2","","","","","","","","","","","","74","J","0","img/none_selected_demo.jpg","true","0","80_20_practice",""
"","bandit","19","138552","0.0-18.0-1.0","87408961","wem/bandit_party_1","A19R7FSNDW6WRK","either","8","1067","","","","","","","1","0","0","0.8","","0.5","0.5","","","","","","","0.8","0.2","","","","","","","","","","","","74","J","0","img/none_selected_demo.jpg","true","0","80_20_practice",""
"","bandit","20","140741","0.0-18.0-2.0","87408961","wem/bandit_party_1","A19R7FSNDW6WRK","either","8","620","","","","","","","1","0","0","0.8","","0.5","0.5","","","","","","","0.8","0.2","","","","","","","","","","","","74","J","0","img/none_selected_demo.jpg","true","0","80_20_practice",""
"","bandit","21","142671","0.0-18.0-3.0","87408961","wem/bandit_party_1","A19R7FSNDW6WRK","either","8","365","","","","","","","0","0","1","","0.8","0.5","0.5","","","0.8","0.2","","","","","","","","","","","","","","","","74","J","0","img/none_selected_demo.jpg","true","0","80_20_practice",""
"","bandit","22","144649","0.0-18.0-4.0","87408961","wem/bandit_party_1","A19R7FSNDW6WRK","either","8","433","","","","","","","0","0","1","0.8","","0.5","0.5","","","","","","","0.8","0.2","","","","","","","","","","","","74","J","0","img/none_selected_demo.jpg","true","0","80_20_practice",""
"","bandit","23","147489","0.0-18.0-5.0","87408961","wem/bandit_party_1","A19R7FSNDW6WRK","either","8","1290","","","","","","","0","1","0","","0.8","0.5","0.5","","","0.8","0.2","","","","","","","","","","","","","","","","74","J","0","img/none_selected_demo.jpg","true","0","80_20_practice",""
"","bandit","24","149649","0.0-18.0-6.0","87408961","wem/bandit_party_1","A19R7FSNDW6WRK","either","8","612","","","","","","","1","0","0","0.8","","0.5","0.5","","","","","","","0.8","0.2","","","","","","","","","","","","74","J","0","img/none_selected_demo.jpg","true","0","80_20_practice",""
"","bandit","25","153550","0.0-18.0-7.0","87408961","wem/bandit_party_1","A19R7FSNDW6WRK","either","8","2333","","","","","","","0","1","0","","0.8","0.5","0.5","","","0.8","0.2","","","","","","","","","","","","","","","","74","J","0","img/none_selected_demo.jpg","true","0","80_20_practice",""
"","bandit","26","155979","0.0-18.0-8.0","87408961","wem/bandit_party_1","A19R7FSNDW6WRK","either","8","865","","","","","","","1","0","0","0.8","","0.5","0.5","","","","","","","0.8","0.2","","","","","","","","","","","","74","J","0","img/none_selected_demo.jpg","true","0","80_20_practice",""
"","bandit","27","159109","0.0-18.0-9.0","87408961","wem/bandit_party_1","A19R7FSNDW6WRK","either","8","1596","","","","","","","0","0","1","0.8","","0.5","0.5","","","","","","","0.8","0.2","","","","","","","","","","","","74","J","0","img/none_selected_demo.jpg","true","0","80_20_practice",""
"","bandit","28","167508","0.0-18.0-10.0","87408961","wem/bandit_party_1","A19R7FSNDW6WRK","either","8","6857","","","","","","","0","0","1","0.2","","0.5","0.5","","","","","","","0.8","0.2","","","","","","","","","","","","75","K","1","","true","0","80_20_practice",""
"","bandit","29","169388","0.0-18.0-11.0","87408961","wem/bandit_party_1","A19R7FSNDW6WRK","either","8","345","","","","","","","0","0","1","0.2","","0.5","0.5","","","","","","","0.8","0.2","","","","","","","","","","","","75","K","1","","true","0","80_20_practice",""
"","bandit","30","171299","0.0-18.0-12.0","87408961","wem/bandit_party_1","A19R7FSNDW6WRK","either","8","376","","","","","","","0","0","1","0.2","","0.5","0.5","","","","","","","0.8","0.2","","","","","","","","","","","","75","K","1","","true","0","80_20_practice",""
"","bandit","31","173168","0.0-18.0-13.0","87408961","wem/bandit_party_1","A19R7FSNDW6WRK","either","8","324","","","","","","","0","0","1","0.2","","0.5","0.5","","","","","","","0.8","0.2","","","","","","","","","","","","75","K","1","","true","0","80_20_practice",""
"","bandit","32","174928","0.0-18.0-14.0","87408961","wem/bandit_party_1","A19R7FSNDW6WRK","either","8","212","","","","","","","0","0","1","","0.2","0.5","0.5","","","0.8","0.2","","","","","","","","","","","","","","","","75","K","1","","true","0","80_20_practice",""
"","bandit","33","176738","0.0-18.0-15.0","87408961","wem/bandit_party_1","A19R7FSNDW6WRK","either","8","276","","","","","","","0","1","0","","0.2","0.5","0.5","","","0.8","0.2","","","","","","","","","","","","","","","","75","K","1","","true","0","80_20_practice",""
"","bandit","34","178628","0.0-18.0-16.0","87408961","wem/bandit_party_1","A19R7FSNDW6WRK","either","8","351","","","","","","","1","0","0","0.2","","0.5","0.5","","","","","","","0.8","0.2","","","","","","","","","","","","75","K","1","","true","0","80_20_practice",""
"","bandit","35","180418","0.0-18.0-17.0","87408961","wem/bandit_party_1","A19R7FSNDW6WRK","either","8","272","","","","","","","0","0","1","0.2","","0.5","0.5","","","","","","","0.8","0.2","","","","","","","","","","","","75","K","1","","true","0","80_20_practice",""
"","bandit","36","182248","0.0-18.0-18.0","87408961","wem/bandit_party_1","A19R7FSNDW6WRK","either","8","283","","","","","","","1","0","0","0.2","","0.5","0.5","","","","","","","0.8","0.2","","","","","","","","","","","","75","K","1","","true","0","80_20_practice",""
"","bandit","37","184088","0.0-18.0-19.0","87408961","wem/bandit_party_1","A19R7FSNDW6WRK","either","8","309","","","","","","","0","0","1","","0.2","0.5","0.5","","","0.8","0.2","","","","","","","","","","","","","","","","75","K","1","","true","0","80_20_practice",""
"","text-replacement","38","189656","0.0-19.0","87408961","wem/bandit_party_1","A19R7FSNDW6WRK","either","8","5563","","","32","","","","","","","","","","","","","","","","","","","","","","","","","","","","","","","","","","","","",""
"","bandit","39","192388","0.0-20.0-0.0","87408961","wem/bandit_party_1","A19R7FSNDW6WRK","either","8","1186","","","","","","","1","0","0","1","0","","","","","0","1","","","1","0","","","","","","","","","","","","74","J","0","img/none_selected_demo.jpg","true","0","",""
"","text-replacement","40","196114","0.0-21.0","87408961","wem/bandit_party_1","A19R7FSNDW6WRK","either","8","3717","","","32","","","","","","","","","","","","","","","","","","","","","","","","","","","","","","","","","","","","",""
"","text-replacement","41","201570","0.0-22.0","87408961","wem/bandit_party_1","A19R7FSNDW6WRK","either","8","5414","","","32","","","","","","","","","","","","","","","","","","","","","","","","","","","","","","","","","","","","",""
"","text-replacement","42","205638","0.0-23.0","87408961","wem/bandit_party_1","A19R7FSNDW6WRK","either","8","4058","","","32","","","","","","","","","","","","","","","","","","","","","","","","","","","","","","","","","","","","",""
"","text-replacement","43","208442","0.0-24.0","87408961","wem/bandit_party_1","A19R7FSNDW6WRK","either","8","2778","","","32","","","","","","","","","","","","","","","","","","","","","","","","","","","","","","","","","","","","",""
"","text-replacement","44","211629","0.0-25.0","87408961","wem/bandit_party_1","A19R7FSNDW6WRK","either","8","3174","","","32","","","","","","","","","","","","","","","","","","","","","","","","","","","","","","","","","","","","",""
"","text-replacement","45","213927","0.0-26.0","87408961","wem/bandit_party_1","A19R7FSNDW6WRK","either","8","222","","","32","","","","","","","","","","","","","","","","","","","","","","","","","","","","","","","","","","","","",""
"","text-replacement","46","218947","0.0-27.0","87408961","wem/bandit_party_1","A19R7FSNDW6WRK","either","8","5012","","","32","","","","","","","","","","","","","","","","","","","","","","","","","","","","","","","","","","","","",""
"","text-replacement","47","223457","0.0-28.0","87408961","wem/bandit_party_1","A19R7FSNDW6WRK","either","8","4439","","","32","","","","","","","","","","","","","","","","","","","","","","","","","","","","","","","","","","","","",""
"","text-replacement","48","225719","0.0-29.0","87408961","wem/bandit_party_1","A19R7FSNDW6WRK","either","8","2254","","","32","","","","","","","","","","","","","","","","","","","","","","","","","","","","","","","","","","","","",""
"","text-replacement","49","227007","0.0-30.0","87408961","wem/bandit_party_1","A19R7FSNDW6WRK","either","8","1280","","","32","","","","","","","","","","","","","","","","","","","","","","","","","","","","","","","","","","","","",""
"","text-replacement","50","228207","0.0-31.0","87408961","wem/bandit_party_1","A19R7FSNDW6WRK","either","8","1191","","","32","","","","","","","","","","","","","","","","","","","","","","","","","","","","","","","","","","","","",""
"","bandit","51","231328","0.0-32.0-0.0","87408961","wem/bandit_party_1","A19R7FSNDW6WRK","either","8","1567","","","","","","","0","1","0","","0.8","0.5","0.5","0.5","0.5","0.8","0.2","0.6","0.2","","","","","","","","","","","","","","72","H","0","img/none_selected.jpg","true","0","full_practice",""
"","bandit","52","233249","0.0-32.0-1.0","87408961","wem/bandit_party_1","A19R7FSNDW6WRK","either","8","373","","","","","","","0","1","0","","0.8","0.5","0.5","0.5","0.5","0.8","0.2","0.6","0.2","","","","","","","","","","","","","","72","H","0","img/none_selected.jpg","true","0","full_practice",""
"","bandit","53","235068","0.0-32.0-2.0","87408961","wem/bandit_party_1","A19R7FSNDW6WRK","either","8","270","","","","","","","0","1","0","","0.8","0.5","0.5","0.5","0.5","0.8","0.2","0.6","0.2","","","","","","","","","","","","","","72","H","0","img/none_selected.jpg","true","0","full_practice",""
"","bandit","54","236828","0.0-32.0-3.0","87408961","wem/bandit_party_1","A19R7FSNDW6WRK","either","8","233","","","","","","","0","0","1","","0.8","0.5","0.5","0.5","0.5","0.8","0.2","0.6","0.2","","","","","","","","","","","","","","72","H","0","img/none_selected.jpg","true","0","full_practice",""
"","bandit","55","238666","0.0-32.0-4.0","87408961","wem/bandit_party_1","A19R7FSNDW6WRK","either","8","305","","","","","","","0","1","0","","0.8","0.5","0.5","0.5","0.5","0.8","0.2","0.6","0.2","","","","","","","","","","","","","","72","H","0","img/none_selected.jpg","true","0","full_practice",""
"","bandit","56","242527","0.0-32.0-5.0","87408961","wem/bandit_party_1","A19R7FSNDW6WRK","either","8","2327","","","","","","","1","0","0","0.8","","0.5","0.5","0.5","0.5","","","","","0.8","0.2","0.6","0.2","","","","","","","","","","72","H","0","img/none_selected.jpg","true","0","full_practice",""
"","bandit","57","244348","0.0-32.0-6.0","87408961","wem/bandit_party_1","A19R7FSNDW6WRK","either","8","276","","","","","","","0","0","1","0.2","","0.5","0.5","0.5","0.5","","","","","0.8","0.2","0.6","0.2","","","","","","","","","","74","J","1","","true","0","full_practice",""
"","bandit","58","246187","0.0-32.0-7.0","87408961","wem/bandit_party_1","A19R7FSNDW6WRK","either","8","316","","","","","","","0","0","1","0.2","","0.5","0.5","0.5","0.5","","","","","0.8","0.2","0.6","0.2","","","","","","","","","","74","J","1","","true","0","full_practice",""
"","bandit","59","248017","0.0-32.0-8.0","87408961","wem/bandit_party_1","A19R7FSNDW6WRK","either","8","288","","","","","","","0","0","1","","0.2","0.5","0.5","0.5","0.5","0.8","0.2","0.6","0.2","","","","","","","","","","","","","","74","J","1","","true","0","full_practice",""
"","bandit","60","249827","0.0-32.0-9.0","87408961","wem/bandit_party_1","A19R7FSNDW6WRK","either","8","254","","","","","","","1","0","0","0.2","","0.5","0.5","0.5","0.5","","","","","0.8","0.2","0.6","0.2","","","","","","","","","","74","J","1","","true","0","full_practice",""
"","bandit","61","252388","0.0-32.0-10.0","87408961","wem/bandit_party_1","A19R7FSNDW6WRK","either","8","1012","","","","","","","0","0","1","","0.2","0.5","0.5","0.5","0.5","0.8","0.2","0.6","0.2","","","","","","","","","","","","","","74","J","1","","true","0","full_practice",""
"","bandit","62","254177","0.0-32.0-11.0","87408961","wem/bandit_party_1","A19R7FSNDW6WRK","either","8","240","","","","","","","0","0","1","","0.6","0.5","0.5","0.5","0.5","0.8","0.2","0.6","0.2","","","","","","","","","","","","","","75","K","2","","true","0","full_practice",""
"","bandit","63","255897","0.0-32.0-12.0","87408961","wem/bandit_party_1","A19R7FSNDW6WRK","either","8","170","","","","","","","0","0","1","","0.6","0.5","0.5","0.5","0.5","0.8","0.2","0.6","0.2","","","","","","","","","","","","","","75","K","2","","true","0","full_practice",""
"","bandit","64","257737","0.0-32.0-13.0","87408961","wem/bandit_party_1","A19R7FSNDW6WRK","either","8","305","","","","","","","1","0","0","0.6","","0.5","0.5","0.5","0.5","","","","","0.8","0.2","0.6","0.2","","","","","","","","","","75","K","2","","true","0","full_practice",""
"","bandit","65","259527","0.0-32.0-14.0","87408961","wem/bandit_party_1","A19R7FSNDW6WRK","either","8","250","","","","","","","0","0","1","","0.6","0.5","0.5","0.5","0.5","0.8","0.2","0.6","0.2","","","","","","","","","","","","","","75","K","2","","true","0","full_practice",""
"","bandit","66","261327","0.0-32.0-15.0","87408961","wem/bandit_party_1","A19R7FSNDW6WRK","either","8","276","","","","","","","0","1","0","","0.6","0.5","0.5","0.5","0.5","0.8","0.2","0.6","0.2","","","","","","","","","","","","","","75","K","2","","true","0","full_practice",""
"","bandit","67","264197","0.0-32.0-16.0","87408961","wem/bandit_party_1","A19R7FSNDW6WRK","either","8","1244","","","","","","","0","1","0","","0.2","0.5","0.5","0.5","0.5","0.8","0.2","0.6","0.2","","","","","","","","","","","","","","76","L","3","","true","0","full_practice",""
"","bandit","68","266019","0.0-32.0-17.0","87408961","wem/bandit_party_1","A19R7FSNDW6WRK","either","8","272","","","","","","","0","0","1","0.2","","0.5","0.5","0.5","0.5","","","","","0.8","0.2","0.6","0.2","","","","","","","","","","76","L","3","","true","0","full_practice",""
"","bandit","69","267767","0.0-32.0-18.0","87408961","wem/bandit_party_1","A19R7FSNDW6WRK","either","8","211","","","","","","","0","0","1","","0.2","0.5","0.5","0.5","0.5","0.8","0.2","0.6","0.2","","","","","","","","","","","","","","76","L","3","","true","0","full_practice",""
"","bandit","70","269581","0.0-32.0-19.0","87408961","wem/bandit_party_1","A19R7FSNDW6WRK","either","8","259","","","","","","","0","0","1","","0.2","0.5","0.5","0.5","0.5","0.8","0.2","0.6","0.2","","","","","","","","","","","","","","76","L","3","","true","0","full_practice",""
"","text","71","273177","0.0-33.0","87408961","wem/bandit_party_1","A19R7FSNDW6WRK","either","8","3569","","","32","","","","","","","","","","","","","","","","","","","","","","","","","","","","","","","","","","","","",""
"","text-replacement","72","279131","0.0-34.0","87408961","wem/bandit_party_1","A19R7FSNDW6WRK","either","8","4911","","","32","","","","","","","","","","","","","","","","","","","","","","","","","","","","","","","","","","","","",""
"","text-replacement","73","282906","0.0-35.0","87408961","wem/bandit_party_1","A19R7FSNDW6WRK","either","8","3751","","","32","","","","","","","","","","","","","","","","","","","","","","","","","","","","","","","","","","","","",""
"","text-replacement","74","285792","0.0-36.0","87408961","wem/bandit_party_1","A19R7FSNDW6WRK","either","8","2865","","","32","","","","","","","","","","","","","","","","","","","","","","","","","","","","","","","","","","","","",""
"","text-replacement","75","291630","0.0-37.0","87408961","wem/bandit_party_1","A19R7FSNDW6WRK","either","8","5826","","","32","","","","","","","","","","","","","","","","","","","","","","","","","","","","","","","","","","","","",""
"","text-replacement","76","294871","0.0-38.0","87408961","wem/bandit_party_1","A19R7FSNDW6WRK","either","8","3229","","","32","","","","","","","","","","","","","","","","","","","","","","","","","","","","","","","","","","","","",""
"","survey-multi-choice-replacement","77","302305","0.0-39.0-0.0","87408961","wem/bandit_party_1","A19R7FSNDW6WRK","either","8","7398","","","","","","","","","","","","","","","","","","","","","","","","Money will be added to the pool for <span style='color:red;'>REPUBLICANS</span>","","","","","","","attn_check","","","","","","","","","0"
"","survey-multi-choice-replacement","78","311023","0.0-40.0-0.0","87408961","wem/bandit_party_1","A19R7FSNDW6WRK","either","8","7685","","","","","","","","","","","","","","","","","","","","","","","","Equal amounts of money will be added to the pool for <span style='color:red;'>REPUBLICANS</span> and subtracted from the pool for <span style='color:blue;'>DEMOCRATS</span>","","","","","","","attn_check","","","","","","","","","2"
"","survey-multi-choice-replacement","79","315746","0.0-41.0-0.0","87408961","wem/bandit_party_1","A19R7FSNDW6WRK","either","8","3693","","","","","","","","","","","","","","","","","","","","","","","","No money will be added to either pool","","","","","","","attn_check","","","","","","","","","3"
"","bandit","80","320874","0.0-42.0-0.0","87408961","wem/bandit_party_1","A19R7FSNDW6WRK","either","8","2528","","","","","","","0","0","1","0.1351790469","","0.6","0.2","0.8","0.4","","","","","0.1351790469","0.3540548627","0.2928194041","0.2637293772","","","","","","","","","","72","H","0","img/none_selected.jpg","","1","main_expt",""
"","bandit","81","324257","0.0-43.0-0.0","87408961","wem/bandit_party_1","A19R7FSNDW6WRK","either","8","1827","","","","","","","0","0","1","","0.3812516843","0.6","0.2","0.8","0.4","0.125602744","0.3812516843","0.3040419902","0.2760013096","","","","","","","","","","","","","","74","J","1","","","2","main_expt",""
"","bandit","82","326097","0.0-44.0-0.0","87408961","wem/bandit_party_1","A19R7FSNDW6WRK","either","8","279","","","","","","","0","0","1","0.2875251023","","0.6","0.2","0.8","0.4","","","","","0.09574082279","0.3901316494","0.2875251023","0.3240499928","","","","","","","","","","75","K","2","","","3","main_expt",""
"","bandit","83","328417","0.0-45.0-0.0","87408961","wem/bandit_party_1","A19R7FSNDW6WRK","either","8","767","","","","","","","0","0","1","0.3510822359","","0.6","0.2","0.8","0.4","","","","","0.0913382225","0.3945399471","0.2965567903","0.3510822359","","","","","","","","","","76","L","3","","","4","main_expt",""
"","bandit","84","330307","0.0-46.0-0.0","87408961","wem/bandit_party_1","A19R7FSNDW6WRK","either","8","337","","","","","","","1","0","0","0.106177601","","0.6","0.2","0.8","0.4","","","","","0.106177601","0.3997977613","0.2681113314","0.3522827721","","","","","","","","","","72","H","0","img/none_selected.jpg","","5","main_expt",""
"","bandit","85","332515","0.0-47.0-0.0","87408961","wem/bandit_party_1","A19R7FSNDW6WRK","either","8","668","","","","","","","0","1","0","","0.390783501","0.6","0.2","0.8","0.4","0.08998955495","0.390783501","0.2330443498","0.382674005","","","","","","","","","","","","","","74","J","1","","","6","main_expt",""
"","bandit","86","334365","0.0-48.0-0.0","87408961","wem/bandit_party_1","A19R7FSNDW6WRK","either","8","301","","","","","","","0","0","1","0.1630509172","","0.6","0.2","0.8","0.4","","","","","0.1077526668","0.3305693427","0.1630509172","0.3998463606","","","","","","","","","","75","K","2","","","7","main_expt",""
"","bandit","87","336186","0.0-49.0-0.0","87408961","wem/bandit_party_1","A19R7FSNDW6WRK","either","8","271","","","","","","","0","0","1","0.3832029687","","0.6","0.2","0.8","0.4","","","","","0.1243697388","0.3056545716","0.2002468685","0.3832029687","","","","","","","","","","76","L","3","","","8","main_expt",""
"","bandit","88","338160","0.0-50.0-0.0","87408961","wem/bandit_party_1","A19R7FSNDW6WRK","either","8","396","","","","","","","0","0","1","0.1698108096","","0.6","0.2","0.8","0.4","","","","","0.1698108096","0.3278889804","0.1835034381","0.3796681134","","","","","","","","","","72","H","0","img/none_selected.jpg","","9","main_expt",""
"","bandit","89","340025","0.0-51.0-0.0","87408961","wem/bandit_party_1","A19R7FSNDW6WRK","either","8","286","","","","","","","0","1","0","","0.3137855556","0.6","0.2","0.8","0.4","0.221757114","0.3137855556","0.1939723001","0.3614311416","","","","","","","","","","","","","","74","J","1","","","10","main_expt",""
"","bandit","90","341866","0.0-52.0-0.0","87408961","wem/bandit_party_1","A19R7FSNDW6WRK","either","8","298","","","","","","","0","0","1","","0.3253079181","0.6","0.2","0.8","0.4","0.1961062924","0.3253079181","0.1949806013","0.3938737051","","","","","","","","","","","","","","74","J","1","","","11","main_expt",""
"","bandit","91","343756","0.0-53.0-0.0","87408961","wem/bandit_party_1","A19R7FSNDW6WRK","either","8","356","","","","","","","0","0","1","0.1907056259","","0.6","0.2","0.8","0.4","","","","","0.1907056259","0.3298150516","0.2587943474","0.3810544723","","","","","","","","","","72","H","0","img/none_selected.jpg","","12","main_expt",""
"","bandit","92","345606","0.0-54.0-0.0","87408961","wem/bandit_party_1","A19R7FSNDW6WRK","either","8","299","","","","","","","0","1","0","","0.3673307406","0.6","0.2","0.8","0.4","0.2162865666","0.3673307406","0.3085985727","0.3707046684","","","","","","","","","","","","","","74","J","1","","","13","main_expt",""
"","bandit","93","347417","0.0-55.0-0.0","87408961","wem/bandit_party_1","A19R7FSNDW6WRK","either","8","267","","","","","","","0","0","1","","0.3679224674","0.6","0.2","0.8","0.4","0.2399362825","0.3679224674","0.2464992766","0.3486531997","","","","","","","","","","","","","","74","J","1","","","14","main_expt",""
"","bandit","94","349196","0.0-56.0-0.0","87408961","wem/bandit_party_1","A19R7FSNDW6WRK","either","8","233","","","","","","","0","0","1","","0.3062507314","0.6","0.2","0.8","0.4","0.1986859052","0.3062507314","0.2474611475","0.3263578384","","","","","","","","","","","","","","74","J","1","","","15","main_expt",""
"","bandit","95","351476","0.0-57.0-0.0","87408961","wem/bandit_party_1","A19R7FSNDW6WRK","either","8","701","","","","","","","0","0","1","","0.2892976033","0.6","0.2","0.8","0.4","0.1865641621","0.2892976033","0.2835538477","0.3514189979","","","","","","","","","","","","","","74","J","1","","","16","main_expt",""
"","bandit","96","353346","0.0-58.0-0.0","87408961","wem/bandit_party_1","A19R7FSNDW6WRK","either","8","324","","","","","","","0","0","1","","0.2035525071","0.6","0.2","0.8","0.4","0.2035525071","0.2861796528","0.3256112075","0.3532592314","","","","","","","","","","","","","","72","H","0","img/none_selected.jpg","","17","main_expt",""
"","bandit","97","355374","0.0-59.0-0.0","87408961","wem/bandit_party_1","A19R7FSNDW6WRK","either","8","495","","","","","","","0","1","0","","0.3802227677","0.6","0.2","0.8","0.4","0.2039336531","0.2958570682","0.3802227677","0.3858608091","","","","","","","","","","","","","","75","K","2","","","18","main_expt",""
"","bandit","98","357417","0.0-60.0-0.0","87408961","wem/bandit_party_1","A19R7FSNDW6WRK","either","8","505","","","","","","","0","0","1","","0.3837638756","0.6","0.2","0.8","0.4","0.1598579642","0.3353028819","0.360566968","0.3837638756","","","","","","","","","","","","","","76","L","3","","","19","main_expt",""
"","bandit","99","359246","0.0-61.0-0.0","87408961","wem/bandit_party_1","A19R7FSNDW6WRK","either","8","277","","","","","","","1","0","0","0.3696799013","","0.6","0.2","0.8","0.4","","","","","0.1437622327","0.3139704528","0.3696799013","0.2872100501","","","","","","","","","","75","K","2","","","20","main_expt",""
"","bandit","100","361036","0.0-62.0-0.0","87408961","wem/bandit_party_1","A19R7FSNDW6WRK","either","8","252","","","","","","","0","0","1","0.4006907501","","0.6","0.2","0.8","0.4","","","","","0.07974703335","0.2524707143","0.4006907501","0.2975414498","","","","","","","","","","75","K","2","","","21","main_expt",""
"","bandit","101","363615","0.0-63.0-0.0","87408961","wem/bandit_party_1","A19R7FSNDW6WRK","either","8","1030","","","","","","","0","0","1","","0.2741965999","0.6","0.2","0.8","0.4","0.1361132429","0.248326021","0.4081217326","0.2741965999","","","","","","","","","","","","","","76","L","3","","","22","main_expt",""
"","bandit","102","365376","0.0-64.0-0.0","87408961","wem/bandit_party_1","A19R7FSNDW6WRK","either","8","224","","","","","","","0","0","1","","0.3740207531","0.6","0.2","0.8","0.4","0.1705973249","0.2937153481","0.3740207531","0.2379064449","","","","","","","","","","","","","","75","K","2","","","23","main_expt",""
"","bandit","103","367886","0.0-65.0-0.0","87408961","wem/bandit_party_1","A19R7FSNDW6WRK","either","8","965","","","","","","","0","0","1","0.1392759225","","0.6","0.2","0.8","0.4","","","","","0.1392759225","0.2625315469","0.3913756451","0.2078598572","","","","","","","","","","72","H","0","img/none_selected.jpg","","24","main_expt",""
"","bandit","104","371515","0.0-66.0-0.0","87408961","wem/bandit_party_1","A19R7FSNDW6WRK","either","8","2095","","","","","","","0","0","1","","0.2405651368","0.6","0.2","0.8","0.4","0.1800538527","0.2405651368","0.4100905738","0.2764850733","","","","","","","","","","","","","","74","J","1","","","25","main_expt",""
"","bandit","105","373289","0.0-67.0-0.0","87408961","wem/bandit_party_1","A19R7FSNDW6WRK","either","8","229","","","","","","","0","0","1","0.3600668969","","0.6","0.2","0.8","0.4","","","","","0.2146400533","0.2503350336","0.3600668969","0.3080191348","","","","","","","","","","75","K","2","","","26","main_expt",""
"","bandit","106","375516","0.0-68.0-0.0","87408961","wem/bandit_party_1","A19R7FSNDW6WRK","either","8","687","","","","","","","0","1","0","","0.3606197488","0.6","0.2","0.8","0.4","0.1948367851","0.354091838","0.3703096079","0.3606197488","","","","","","","","","","","","","","76","L","3","","","27","main_expt",""
"","bandit","107","377185","0.0-69.0-0.0","87408961","wem/bandit_party_1","A19R7FSNDW6WRK","either","8","115","","","","","","","0","1","0","","0.3696097963","0.6","0.2","0.8","0.4","0.2282666016","0.3419366675","0.3527269899","0.3696097963","","","","","","","","","","","","","","76","L","3","","","28","main_expt",""
"","bandit","108","379231","0.0-70.0-0.0","87408961","wem/bandit_party_1","A19R7FSNDW6WRK","either","8","492","","","","","","","0","0","1","","0.3434444954","0.6","0.2","0.8","0.4","0.1842618798","0.361896517","0.2854860911","0.3434444954","","","","","","","","","","","","","","76","L","3","","","29","main_expt",""
"","bandit","109","381091","0.0-71.0-0.0","87408961","wem/bandit_party_1","A19R7FSNDW6WRK","either","8","296","","","","","","","0","0","1","","0.3528183973","0.6","0.2","0.8","0.4","0.1930267653","0.3701160785","0.2971434158","0.3528183973","","","","","","","","","","","","","","76","L","3","","","30","main_expt",""
"","bandit","110","382875","0.0-72.0-0.0","87408961","wem/bandit_party_1","A19R7FSNDW6WRK","either","8","259","","","","","","","0","1","0","","0.3436926249","0.6","0.2","0.8","0.4","0.2279264959","0.3602312343","0.3192935598","0.3436926249","","","","","","","","","","","","","","76","L","3","","","31","main_expt",""
"","bandit","111","385375","0.0-73.0-0.0","87408961","wem/bandit_party_1","A19R7FSNDW6WRK","either","8","956","","","","","","","0","0","1","0.1922668126","","0.6","0.2","0.8","0.4","","","","","0.1922668126","0.3550043818","0.2910845839","0.3392376576","","","","","","","","","","72","H","0","img/none_selected.jpg","","32","main_expt",""
"","bandit","112","387085","0.0-74.0-0.0","87408961","wem/bandit_party_1","A19R7FSNDW6WRK","either","8","163","","","","","","","0","0","1","","0.1503247695","0.6","0.2","0.8","0.4","0.1503247695","0.3927862597","0.2956883229","0.2524106513","","","","","","","","","","","","","","72","H","0","img/none_selected.jpg","","33","main_expt",""
"","bandit","113","388806","0.0-75.0-0.0","87408961","wem/bandit_party_1","A19R7FSNDW6WRK","either","8","179","","","","","","","0","0","1","0.1875072744","","0.6","0.2","0.8","0.4","","","","","0.1875072744","0.4185963197","0.2918182698","0.2378308988","","","","","","","","","","72","H","0","img/none_selected.jpg","","34","main_expt",""
"","bandit","114","390615","0.0-76.0-0.0","87408961","wem/bandit_party_1","A19R7FSNDW6WRK","either","8","258","","","","","","","0","0","1","","0.441983755","0.6","0.2","0.8","0.4","0.2135507624","0.441983755","0.3063909307","0.2683654211","","","","","","","","","","","","","","74","J","1","","","35","main_expt",""
"","bandit","115","392405","0.0-77.0-0.0","87408961","wem/bandit_party_1","A19R7FSNDW6WRK","either","8","256","","","","","","","0","0","1","0.4352827683","","0.6","0.2","0.8","0.4","","","","","0.2042402853","0.4352827683","0.2820805085","0.2645223933","","","","","","","","","","74","J","1","","","36","main_expt",""
"","bandit","116","394079","0.0-78.0-0.0","87408961","wem/bandit_party_1","A19R7FSNDW6WRK","either","8","130","","","","","","","0","0","1","","0.450520142","0.6","0.2","0.8","0.4","0.2024605481","0.450520142","0.2610370824","0.2360561858","","","","","","","","","","","","","","74","J","1","","","37","main_expt",""
"","bandit","117","395996","0.0-79.0-0.0","87408961","wem/bandit_party_1","A19R7FSNDW6WRK","either","8","351","","","","","","","1","0","0","0.1896233007","","0.6","0.2","0.8","0.4","","","","","0.1677713785","0.4681224698","0.1896233007","0.2001865083","","","","","","","","","","75","K","2","","","38","main_expt",""
"","bandit","118","397889","0.0-80.0-0.0","87408961","wem/bandit_party_1","A19R7FSNDW6WRK","either","8","278","","","","","","","0","0","1","0.168851025","","0.6","0.2","0.8","0.4","","","","","0.221779122","0.4711022053","0.168851025","0.1687915361","","","","","","","","","","75","K","2","","","39","main_expt",""
"","bandit","119","399746","0.0-81.0-0.0","87408961","wem/bandit_party_1","A19R7FSNDW6WRK","either","8","316","","","","","","","0","0","1","0.1615787635","","0.6","0.2","0.8","0.4","","","","","0.2722397218","0.4559447699","0.1615787635","0.1503151413","","","","","","","","","","75","K","2","","","40","main_expt",""
"","bandit","120","401565","0.0-82.0-0.0","87408961","wem/bandit_party_1","A19R7FSNDW6WRK","either","8","280","","","","","","","0","0","1","0.08168262283","","0.6","0.2","0.8","0.4","","","","","0.3298230943","0.4412687596","0.1472326003","0.08168262283","","","","","","","","","","76","L","3","","","41","main_expt",""
"","bandit","121","403215","0.0-83.0-0.0","87408961","wem/bandit_party_1","A19R7FSNDW6WRK","either","8","88","","","","","","","0","0","1","0.07668629145","","0.6","0.2","0.8","0.4","","","","","0.3104885444","0.4457751761","0.1533480506","0.07668629145","","","","","","","","","","76","L","3","","","42","main_expt",""
"","bandit","122","404987","0.0-84.0-0.0","87408961","wem/bandit_party_1","A19R7FSNDW6WRK","either","8","196","","","","","","","0","0","1","0.07394587158","","0.6","0.2","0.8","0.4","","","","","0.3005355489","0.4298378352","0.1414351437","0.07394587158","","","","","","","","","","76","L","3","","","43","main_expt",""
"","bandit","123","406825","0.0-85.0-0.0","87408961","wem/bandit_party_1","A19R7FSNDW6WRK","either","8","276","","","","","","","0","0","1","","0.1067646429","0.6","0.2","0.8","0.4","0.2456242138","0.4416915379","0.1067646429","0.1192337685","","","","","","","","","","","","","","75","K","2","","","44","main_expt",""
"","bandit","124","408585","0.0-86.0-0.0","87408961","wem/bandit_party_1","A19R7FSNDW6WRK","either","8","218","","","","","","","0","0","1","0.1250796286","","0.6","0.2","0.8","0.4","","","","","0.2839901561","0.3915522423","0.1250796286","0.1285724119","","","","","","","","","","75","K","2","","","45","main_expt",""
"","bandit","125","410375","0.0-87.0-0.0","87408961","wem/bandit_party_1","A19R7FSNDW6WRK","either","8","267","","","","","","","0","1","0","","0.4318427431","0.6","0.2","0.8","0.4","0.2353621531","0.4318427431","0.1927264636","0.1112684106","","","","","","","","","","","","","","74","J","1","","","46","main_expt",""
"","bandit","126","412176","0.0-88.0-0.0","87408961","wem/bandit_party_1","A19R7FSNDW6WRK","either","8","272","","","","","","","0","1","0","","0.4395998441","0.6","0.2","0.8","0.4","0.2405257196","0.4395998441","0.1804488412","0.1207340475","","","","","","","","","","","","","","74","J","1","","","47","main_expt",""
"","bandit","127","414045","0.0-89.0-0.0","87408961","wem/bandit_party_1","A19R7FSNDW6WRK","either","8","288","","","","","","","0","1","0","","0.4630443269","0.6","0.2","0.8","0.4","0.2629408555","0.4630443269","0.168268176","0.1182533935","","","","","","","","","","","","","","74","J","1","","","48","main_expt",""
"","bandit","128","415885","0.0-90.0-0.0","87408961","wem/bandit_party_1","A19R7FSNDW6WRK","either","8","306","","","","","","","0","1","0","","0.4794982466","0.6","0.2","0.8","0.4","0.2902453213","0.4794982466","0.1466838001","0.1460801474","","","","","","","","","","","","","","74","J","1","","","49","main_expt",""
"","bandit","129","417695","0.0-91.0-0.0","87408961","wem/bandit_party_1","A19R7FSNDW6WRK","either","8","273","","","","","","","0","0","1","0.4562783041","","0.6","0.2","0.8","0.4","","","","","0.3033715012","0.4562783041","0.1336340117","0.1765155983","","","","","","","","","","74","J","1","","","50","main_expt",""
"","bandit","130","419535","0.0-92.0-0.0","87408961","wem/bandit_party_1","A19R7FSNDW6WRK","either","8","295","","","","","","","0","1","0","","0.4515646323","0.6","0.2","0.8","0.4","0.3536831403","0.4515646323","0.1067821754","0.1614266163","","","","","","","","","","","","","","74","J","1","","","51","main_expt",""
"","bandit","131","421396","0.0-93.0-0.0","87408961","wem/bandit_party_1","A19R7FSNDW6WRK","either","8","312","","","","","","","0","0","1","","0.4344137529","0.6","0.2","0.8","0.4","0.3058792917","0.4344137529","0.07294577227","0.1938643747","","","","","","","","","","","","","","74","J","1","","","52","main_expt",""
"","bandit","132","423145","0.0-94.0-0.0","87408961","wem/bandit_party_1","A19R7FSNDW6WRK","either","8","201","","","","","","","0","0","1","0.4421766306","","0.6","0.2","0.8","0.4","","","","","0.3466820038","0.4421766306","0.07676454597","0.1721886996","","","","","","","","","","74","J","1","","","53","main_expt",""
"","bandit","133","424905","0.0-95.0-0.0","87408961","wem/bandit_party_1","A19R7FSNDW6WRK","either","8","214","","","","","","","0","1","0","","0.4591875032","0.6","0.2","0.8","0.4","0.3159173384","0.4591875032","0.07707135067","0.1542880765","","","","","","","","","","","","","","74","J","1","","","54","main_expt",""
"","bandit","134","426725","0.0-96.0-0.0","87408961","wem/bandit_party_1","A19R7FSNDW6WRK","either","8","294","","","","","","","0","1","0","","0.4455250987","0.6","0.2","0.8","0.4","0.3205246683","0.4455250987","0.08227932488","0.2155598061","","","","","","","","","","","","","","74","J","1","","","55","main_expt",""
"","bandit","135","428505","0.0-97.0-0.0","87408961","wem/bandit_party_1","A19R7FSNDW6WRK","either","8","226","","","","","","","0","0","1","","0.4200701886","0.6","0.2","0.8","0.4","0.3067659888","0.4200701886","0.09013031375","0.199350645","","","","","","","","","","","","","","74","J","1","","","56","main_expt",""
"","bandit","136","430364","0.0-98.0-0.0","87408961","wem/bandit_party_1","A19R7FSNDW6WRK","either","8","318","","","","","","","0","0","1","0.3635567377","","0.6","0.2","0.8","0.4","","","","","0.3786279545","0.3635567377","0.106866739","0.1991981904","","","","","","","","","","74","J","1","","","57","main_expt",""
"","bandit","137","432265","0.0-99.0-0.0","87408961","wem/bandit_party_1","A19R7FSNDW6WRK","either","8","362","","","","","","","0","0","1","","0.3647217687","0.6","0.2","0.8","0.4","0.3796022377","0.3647217687","0.0915584437","0.1307276253","","","","","","","","","","","","","","74","J","1","","","58","main_expt",""
"","bandit","138","434135","0.0-100.0-0.0","87408961","wem/bandit_party_1","A19R7FSNDW6WRK","either","8","324","","","","","","","0","0","1","","0.3570845549","0.6","0.2","0.8","0.4","0.3570845549","0.3975499765","0.1036540812","0.1540949786","","","","","","","","","","","","","","72","H","0","img/none_selected.jpg","","59","main_expt",""
"","bandit","139","435854","0.0-101.0-0.0","87408961","wem/bandit_party_1","A19R7FSNDW6WRK","either","8","176","","","","","","","0","0","1","0.398525789","","0.6","0.2","0.8","0.4","","","","","0.398525789","0.376383165","0.07948280662","0.1187181044","","","","","","","","","","72","H","0","img/none_selected.jpg","","60","main_expt",""
"","bandit","140","437642","0.0-102.0-0.0","87408961","wem/bandit_party_1","A19R7FSNDW6WRK","either","8","262","","","","","","","0","0","1","0.380986593","","0.6","0.2","0.8","0.4","","","","","0.380986593","0.3384437455","0.0685056185","0.1734870435","","","","","","","","","","72","H","0","img/none_selected.jpg","","61","main_expt",""
"","bandit","141","439505","0.0-103.0-0.0","87408961","wem/bandit_party_1","A19R7FSNDW6WRK","either","8","314","","","","","","","0","0","1","0.04196312691","","0.6","0.2","0.8","0.4","","","","","0.3928002855","0.3086389155","0.04196312691","0.2056999461","","","","","","","","","","75","K","2","","","62","main_expt",""
"","bandit","142","441394","0.0-104.0-0.0","87408961","wem/bandit_party_1","A19R7FSNDW6WRK","either","8","324","","","","","","","0","0","1","0.06524357318","","0.6","0.2","0.8","0.4","","","","","0.4097838671","0.3098998428","0.06524357318","0.2421495796","","","","","","","","","","75","K","2","","","63","main_expt",""
"","bandit","143","443184","0.0-105.0-0.0","87408961","wem/bandit_party_1","A19R7FSNDW6WRK","either","8","259","","","","","","","0","0","1","0.04599317762","","0.6","0.2","0.8","0.4","","","","","0.3942475769","0.2859800092","0.04599317762","0.2678986655","","","","","","","","","","75","K","2","","","64","main_expt",""
"","bandit","144","444933","0.0-106.0-0.0","87408961","wem/bandit_party_1","A19R7FSNDW6WRK","either","8","213","","","","","","","0","0","1","","0.2780805564","0.6","0.2","0.8","0.4","0.3756823908","0.2780623804","0.04738713632","0.2780805564","","","","","","","","","","","","","","76","L","3","","","65","main_expt",""
"","bandit","145","447054","0.0-107.0-0.0","87408961","wem/bandit_party_1","A19R7FSNDW6WRK","either","8","575","","","","","","","0","0","1","0.2923516192","","0.6","0.2","0.8","0.4","","","","","0.3780323226","0.2740889186","0.02873144913","0.2923516192","","","","","","","","","","76","L","3","","","66","main_expt",""
"","bandit","146","448804","0.0-108.0-0.0","87408961","wem/bandit_party_1","A19R7FSNDW6WRK","either","8","184","","","","","","","0","0","1","","0.3481747094","0.6","0.2","0.8","0.4","0.382091886","0.3122756929","0.0355516853","0.3481747094","","","","","","","","","","","","","","76","L","3","","","67","main_expt",""
"","bandit","147","450648","0.0-109.0-0.0","87408961","wem/bandit_party_1","A19R7FSNDW6WRK","either","8","280","","","","","","","0","1","0","","0.3004294993","0.6","0.2","0.8","0.4","0.4080562953","0.3004294993","0.04483006882","0.3540590834","","","","","","","","","","","","","","74","J","1","","","68","main_expt",""
"","bandit","148","452516","0.0-110.0-0.0","87408961","wem/bandit_party_1","A19R7FSNDW6WRK","either","8","321","","","","","","","0","0","1","","0.3312842332","0.6","0.2","0.8","0.4","0.419826639","0.3312842332","0.04300650393","0.3348318208","","","","","","","","","","","","","","74","J","1","","","69","main_expt",""
"","bandit","149","454779","0.0-111.0-0.0","87408961","wem/bandit_party_1","A19R7FSNDW6WRK","either","8","540","","","","","","","0","0","1","","0.2362018798","0.6","0.2","0.8","0.4","0.3889643965","0.2362018798","0.03960880855","0.3844983113","","","","","","","","","","","","","","74","J","1","","","70","main_expt",""
"","bandit","150","456635","0.0-112.0-0.0","87408961","wem/bandit_party_1","A19R7FSNDW6WRK","either","8","311","","","","","","","0","0","1","","0.1838323472","0.6","0.2","0.8","0.4","0.3492343966","0.1838323472","0.02401392238","0.3753843975","","","","","","","","","","","","","","74","J","1","","","71","main_expt",""
"","bandit","151","458710","0.0-113.0-0.0","87408961","wem/bandit_party_1","A19R7FSNDW6WRK","either","8","513","","","","","","","0","0","1","","0.1749810972","0.6","0.2","0.8","0.4","0.3502155883","0.1749810972","0.008756159955","0.3861429343","","","","","","","","","","","","","","74","J","1","","","72","main_expt",""
"","bandit","152","460617","0.0-114.0-0.0","87408961","wem/bandit_party_1","A19R7FSNDW6WRK","either","8","323","","","","","","","0","0","1","","0.3978436086","0.6","0.2","0.8","0.4","0.3568691787","0.1664097112","0.006257651783","0.3978436086","","","","","","","","","","","","","","76","L","3","","","73","main_expt",""
"","bandit","153","462494","0.0-115.0-0.0","87408961","wem/bandit_party_1","A19R7FSNDW6WRK","either","8","354","","","","","","","0","0","1","","0.3847979518","0.6","0.2","0.8","0.4","0.3303653739","0.2001176207","0.004732084297","0.3847979518","","","","","","","","","","","","","","76","L","3","","","74","main_expt",""
"","bandit","154","464294","0.0-116.0-0.0","87408961","wem/bandit_party_1","A19R7FSNDW6WRK","either","8","252","","","","","","","0","0","1","0.3974319157","","0.6","0.2","0.8","0.4","","","","","0.3353283381","0.1848717924","0.006967558871","0.3974319157","","","","","","","","","","76","L","3","","","75","main_expt",""
"","bandit","155","466168","0.0-117.0-0.0","87408961","wem/bandit_party_1","A19R7FSNDW6WRK","either","8","315","","","","","","","0","0","1","","0.004525860487","0.6","0.2","0.8","0.4","0.3009524994","0.1510178238","0.004525860487","0.3987985884","","","","","","","","","","","","","","75","K","2","","","76","main_expt",""
"","bandit","156","468058","0.0-118.0-0.0","87408961","wem/bandit_party_1","A19R7FSNDW6WRK","either","8","291","","","","","","","0","1","0","","0.3316028908","0.6","0.2","0.8","0.4","0.3316028908","0.2089633591","0.007245535115","0.4127312768","","","","","","","","","","","","","","72","H","0","img/none_selected.jpg","","77","main_expt",""
"","bandit","157","469894","0.0-119.0-0.0","87408961","wem/bandit_party_1","A19R7FSNDW6WRK","either","8","281","","","","","","","0","0","1","0.3571024926","","0.6","0.2","0.8","0.4","","","","","0.3571024926","0.2285147345","0.00483057751","0.4257675477","","","","","","","","","","72","H","0","img/none_selected.jpg","","78","main_expt",""
"","bandit","158","471704","0.0-120.0-0.0","87408961","wem/bandit_party_1","A19R7FSNDW6WRK","either","8","272","","","","","","","0","0","1","0.005956317848","","0.6","0.2","0.8","0.4","","","","","0.3542776451","0.2246975601","0.005956317848","0.4331167668","","","","","","","","","","75","K","2","","","79","main_expt",""
"","bandit","159","473564","0.0-121.0-0.0","87408961","wem/bandit_party_1","A19R7FSNDW6WRK","either","8","288","","","","","","","0","0","1","","0.3201174307","0.6","0.2","0.8","0.4","0.3201174307","0.1878766281","0.0076590047","0.4294395537","","","","","","","","","","","","","","72","H","0","img/none_selected.jpg","","80","main_expt",""
"","bandit","160","475915","0.0-122.0-0.0","87408961","wem/bandit_party_1","A19R7FSNDW6WRK","either","8","816","","","","","","","1","0","0","0.3503003334","","0.6","0.2","0.8","0.4","","","","","0.3503003334","0.2436254364","0.009115568074","0.4234249918","","","","","","","","","","72","H","0","img/none_selected.jpg","","81","main_expt",""
"","bandit","161","477754","0.0-123.0-0.0","87408961","wem/bandit_party_1","A19R7FSNDW6WRK","either","8","290","","","","","","","0","1","0","","0.3509066846","0.6","0.2","0.8","0.4","0.3509066846","0.2627531714","0.01382977225","0.3956977209","","","","","","","","","","","","","","72","H","0","img/none_selected.jpg","","82","main_expt",""
"","bandit","162","479644","0.0-124.0-0.0","87408961","wem/bandit_party_1","A19R7FSNDW6WRK","either","8","348","","","","","","","0","0","1","0.3951868033","","0.6","0.2","0.8","0.4","","","","","0.3951868033","0.2672212524","0.01500629599","0.4248650233","","","","","","","","","","72","H","0","img/none_selected.jpg","","83","main_expt",""
"","bandit","163","481424","0.0-125.0-0.0","87408961","wem/bandit_party_1","A19R7FSNDW6WRK","either","8","233","","","","","","","0","1","0","","0.4131477378","0.6","0.2","0.8","0.4","0.4131477378","0.2817484998","0.02310127573","0.4196907627","","","","","","","","","","","","","","72","H","0","img/none_selected.jpg","","84","main_expt",""
"","bandit","164","483264","0.0-126.0-0.0","87408961","wem/bandit_party_1","A19R7FSNDW6WRK","either","8","301","","","","","","","0","0","1","0.3889697292","","0.6","0.2","0.8","0.4","","","","","0.3889697292","0.3074775227","0.02639065846","0.435633498","","","","","","","","","","72","H","0","img/none_selected.jpg","","85","main_expt",""
"","bandit","165","485085","0.0-127.0-0.0","87408961","wem/bandit_party_1","A19R7FSNDW6WRK","either","8","283","","","","","","","1","0","0","0.3885636443","","0.6","0.2","0.8","0.4","","","","","0.3885636443","0.2717847629","0.01746441632","0.4322222521","","","","","","","","","","72","H","0","img/none_selected.jpg","","86","main_expt",""
"","bandit","166","486771","0.0-128.0-0.0","87408961","wem/bandit_party_1","A19R7FSNDW6WRK","either","8","143","","","","","","","0","1","0","","0.4028282504","0.6","0.2","0.8","0.4","0.4028282504","0.2183858348","0.01256144444","0.4476119451","","","","","","","","","","","","","","72","H","0","img/none_selected.jpg","","87","main_expt",""
"","bandit","167","488594","0.0-129.0-0.0","87408961","wem/bandit_party_1","A19R7FSNDW6WRK","either","8","279","","","","","","","0","0","1","","0.4306890759","0.6","0.2","0.8","0.4","0.4306890759","0.2054961256","0.01178158386","0.4073123198","","","","","","","","","","","","","","72","H","0","img/none_selected.jpg","","88","main_expt",""
"","bandit","168","490284","0.0-130.0-0.0","87408961","wem/bandit_party_1","A19R7FSNDW6WRK","either","8","138","","","","","","","0","0","1","0.4103738654","","0.6","0.2","0.8","0.4","","","","","0.4103738654","0.1452714398","0.008722555822","0.3862301724","","","","","","","","","","72","H","0","img/none_selected.jpg","","89","main_expt",""
"","bandit","169","492014","0.0-131.0-0.0","87408961","wem/bandit_party_1","A19R7FSNDW6WRK","either","8","176","","","","","","","1","0","0","0.3980827974","","0.6","0.2","0.8","0.4","","","","","0.3980827974","0.1077779513","0.008232471735","0.3596745144","","","","","","","","","","72","H","0","img/none_selected.jpg","","90","main_expt",""
"","bandit","170","493773","0.0-132.0-0.0","87408961","wem/bandit_party_1","A19R7FSNDW6WRK","either","8","206","","","","","","","0","0","1","0.4040531024","","0.6","0.2","0.8","0.4","","","","","0.4040531024","0.1308407065","0.01249180717","0.3082854458","","","","","","","","","","72","H","0","img/none_selected.jpg","","91","main_expt",""
"","bandit","171","495494","0.0-133.0-0.0","87408961","wem/bandit_party_1","A19R7FSNDW6WRK","either","8","167","","","","","","","0","0","1","0.3462944796","","0.6","0.2","0.8","0.4","","","","","0.3462944796","0.1652322036","0.01470986316","0.312225492","","","","","","","","","","72","H","0","img/none_selected.jpg","","92","main_expt",""
"","bandit","172","497333","0.0-134.0-0.0","87408961","wem/bandit_party_1","A19R7FSNDW6WRK","either","8","294","","","","","","","0","1","0","","0.3411451966","0.6","0.2","0.8","0.4","0.3411451966","0.1344678182","0.02655281846","0.3671658277","","","","","","","","","","","","","","72","H","0","img/none_selected.jpg","","93","main_expt",""
"","bandit","173","499052","0.0-135.0-0.0","87408961","wem/bandit_party_1","A19R7FSNDW6WRK","either","8","191","","","","","","","0","0","1","0.3384154489","","0.6","0.2","0.8","0.4","","","","","0.3384154489","0.1301314301","0.02575246025","0.3401731108","","","","","","","","","","72","H","0","img/none_selected.jpg","","94","main_expt",""
"","bandit","174","500684","0.0-136.0-0.0","87408961","wem/bandit_party_1","A19R7FSNDW6WRK","either","8","104","","","","","","","1","0","0","0.3126988266","","0.6","0.2","0.8","0.4","","","","","0.3126988266","0.1746055711","0.02262355665","0.3413923724","","","","","","","","","","72","H","0","img/none_selected.jpg","","95","main_expt",""
"","bandit","175","504194","0.0-137.0-0.0","87408961","wem/bandit_party_1","A19R7FSNDW6WRK","either","8","1979","","","","","","","1","0","0","0.3800019137","","0.6","0.2","0.8","0.4","","","","","0.3800019137","0.1994244555","0.02047181149","0.3570420485","","","","","","","","","","72","H","0","img/none_selected.jpg","","96","main_expt",""
"","bandit","176","506073","0.0-138.0-0.0","87408961","wem/bandit_party_1","A19R7FSNDW6WRK","either","8","334","","","","","","","0","0","1","0.3328121005","","0.6","0.2","0.8","0.4","","","","","0.3328121005","0.1834602947","0.0207754381","0.3435474977","","","","","","","","","","72","H","0","img/none_selected.jpg","","97","main_expt",""
"","bandit","177","507913","0.0-139.0-0.0","87408961","wem/bandit_party_1","A19R7FSNDW6WRK","either","8","290","","","","","","","0","0","1","","0.332228596","0.6","0.2","0.8","0.4","0.332228596","0.1719221531","0.02955834597","0.3614714926","","","","","","","","","","","","","","72","H","0","img/none_selected.jpg","","98","main_expt",""
"","bandit","178","509733","0.0-140.0-0.0","87408961","wem/bandit_party_1","A19R7FSNDW6WRK","either","8","274","","","","","","","0","1","0","","0.2843854285","0.6","0.2","0.8","0.4","0.2843854285","0.1183399241","0.0383131093","0.3176405447","","","","","","","","","","","","","","72","H","0","img/none_selected.jpg","","99","main_expt",""
"","bandit","179","511603","0.0-141.0-0.0","87408961","wem/bandit_party_1","A19R7FSNDW6WRK","either","8","321","","","","","","","0","0","1","","0.309751149","0.6","0.2","0.8","0.4","0.309751149","0.1558635017","0.03580757471","0.3586553183","","","","","","","","","","","","","","72","H","0","img/none_selected.jpg","","100","main_expt",""
"","bandit","180","513443","0.0-142.0-0.0","87408961","wem/bandit_party_1","A19R7FSNDW6WRK","either","8","320","","","","","","","0","0","1","","0.2993195944","0.6","0.2","0.8","0.4","0.2993195944","0.1389665978","0.04899620691","0.2951503345","","","","","","","","","","","","","","72","H","0","img/none_selected.jpg","","101","main_expt",""
"","bandit","181","515163","0.0-143.0-0.0","87408961","wem/bandit_party_1","A19R7FSNDW6WRK","either","8","185","","","","","","","0","0","1","","0.3551890872","0.6","0.2","0.8","0.4","0.3551890872","0.1377203561","0.08055650644","0.2998391809","","","","","","","","","","","","","","72","H","0","img/none_selected.jpg","","102","main_expt",""
"","bandit","182","517034","0.0-144.0-0.0","87408961","wem/bandit_party_1","A19R7FSNDW6WRK","either","8","328","","","","","","","0","0","1","","0.1285548106","0.6","0.2","0.8","0.4","0.3148404956","0.1285548106","0.1040447627","0.2791823827","","","","","","","","","","","","","","74","J","1","","","103","main_expt",""
"","bandit","183","518814","0.0-145.0-0.0","87408961","wem/bandit_party_1","A19R7FSNDW6WRK","either","8","233","","","","","","","0","0","1","0.1143547335","","0.6","0.2","0.8","0.4","","","","","0.3286912191","0.1555523735","0.1143547335","0.3382769334","","","","","","","","","","75","K","2","","","104","main_expt",""
"","bandit","184","520972","0.0-146.0-0.0","87408961","wem/bandit_party_1","A19R7FSNDW6WRK","either","8","421","","","","","","","0","0","1","","0.3339697125","0.6","0.2","0.8","0.4","0.298340497","0.1775592141","0.1487676438","0.3339697125","","","","","","","","","","","","","","76","L","3","","","105","main_expt",""
"","bandit","185","522805","0.0-147.0-0.0","87408961","wem/bandit_party_1","A19R7FSNDW6WRK","either","8","303","","","","","","","0","0","1","0.3504464386","","0.6","0.2","0.8","0.4","","","","","0.3504464386","0.2263451353","0.152088545","0.3124129253","","","","","","","","","","72","H","0","img/none_selected.jpg","","106","main_expt",""
"","bandit","186","524606","0.0-148.0-0.0","87408961","wem/bandit_party_1","A19R7FSNDW6WRK","either","8","257","","","","","","","0","0","1","0.1679769802","","0.6","0.2","0.8","0.4","","","","","0.3510410077","0.1679769802","0.2406734145","0.3400683723","","","","","","","","","","74","J","1","","","107","main_expt",""
"","bandit","187","526708","0.0-149.0-0.0","87408961","wem/bandit_party_1","A19R7FSNDW6WRK","either","8","530","","","","","","","1","0","0","0.3048040024","","0.6","0.2","0.8","0.4","","","","","0.3282766846","0.1999870147","0.3048040024","0.3557340834","","","","","","","","","","75","K","2","","","108","main_expt",""
"","bandit","188","528837","0.0-150.0-0.0","87408961","wem/bandit_party_1","A19R7FSNDW6WRK","either","8","542","","","","","","","0","0","1","0.3418503096","","0.6","0.2","0.8","0.4","","","","","0.3561186451","0.208992856","0.3418503096","0.3846418901","","","","","","","","","","75","K","2","","","109","main_expt",""
"","bandit","189","530763","0.0-151.0-0.0","87408961","wem/bandit_party_1","A19R7FSNDW6WRK","either","8","368","","","","","","","0","0","1","0.3198501315","","0.6","0.2","0.8","0.4","","","","","0.3576445865","0.1716040471","0.3198501315","0.4057962062","","","","","","","","","","75","K","2","","","110","main_expt",""
"","bandit","190","532603","0.0-152.0-0.0","87408961","wem/bandit_party_1","A19R7FSNDW6WRK","either","8","297","","","","","","","0","0","1","0.3681534847","","0.6","0.2","0.8","0.4","","","","","0.3377543854","0.08984071331","0.3681534847","0.3692451483","","","","","","","","","","75","K","2","","","111","main_expt",""
"","bandit","191","534413","0.0-153.0-0.0","87408961","wem/bandit_party_1","A19R7FSNDW6WRK","either","8","235","","","","","","","0","0","1","0.3577317973","","0.6","0.2","0.8","0.4","","","","","0.286234052","0.1243463141","0.3757830796","0.3577317973","","","","","","","","","","76","L","3","","","112","main_expt",""
"","bandit","192","536614","0.0-154.0-0.0","87408961","wem/bandit_party_1","A19R7FSNDW6WRK","either","8","649","","","","","","","1","0","0","0.1932674395","","0.6","0.2","0.8","0.4","","","","","0.1932674395","0.1433440675","0.3838999828","0.3328808086","","","","","","","","","","72","H","0","img/none_selected.jpg","","113","main_expt",""
"","bandit","193","539843","0.0-155.0-0.0","87408961","wem/bandit_party_1","A19R7FSNDW6WRK","either","8","1683","","","","","","","0","0","1","0.2403040534","","0.6","0.2","0.8","0.4","","","","","0.2403040534","0.1510662198","0.4157938717","0.3416979579","","","","","","","","","","72","H","0","img/none_selected.jpg","","114","main_expt",""
"","bandit","194","541493","0.0-156.0-0.0","87408961","wem/bandit_party_1","A19R7FSNDW6WRK","either","8","94","","","","","","","0","0","1","","0.254937398","0.6","0.2","0.8","0.4","0.254937398","0.09845245139","0.4055870595","0.3377137281","","","","","","","","","","","","","","72","H","0","img/none_selected.jpg","","115","main_expt",""
"","bandit","195","543323","0.0-157.0-0.0","87408961","wem/bandit_party_1","A19R7FSNDW6WRK","either","8","292","","","","","","","0","0","1","","0.107393795","0.6","0.2","0.8","0.4","0.2605063941","0.107393795","0.4161015278","0.3039448029","","","","","","","","","","","","","","74","J","1","","","116","main_expt",""
"","bandit","196","545193","0.0-158.0-0.0","87408961","wem/bandit_party_1","A19R7FSNDW6WRK","either","8","321","","","","","","","0","0","1","0.414877819","","0.6","0.2","0.8","0.4","","","","","0.2161328783","0.07879800556","0.414877819","0.2974336912","","","","","","","","","","75","K","2","","","117","main_expt",""
"","bandit","197","547024","0.0-159.0-0.0","87408961","wem/bandit_party_1","A19R7FSNDW6WRK","either","8","279","","","","","","","0","1","0","","0.2651867246","0.6","0.2","0.8","0.4","0.1931197841","0.08383735875","0.3968259953","0.2651867246","","","","","","","","","","","","","","76","L","3","","","118","main_expt",""
"","bandit","198","548793","0.0-160.0-0.0","87408961","wem/bandit_party_1","A19R7FSNDW6WRK","either","8","223","","","","","","","0","0","1","0.3131666206","","0.6","0.2","0.8","0.4","","","","","0.1638183597","0.1392474383","0.4198241006","0.3131666206","","","","","","","","","","76","L","3","","","119","main_expt",""
"","bandit","199","550763","0.0-161.0-0.0","87408961","wem/bandit_party_1","A19R7FSNDW6WRK","either","8","424","","","","","","","0","0","1","0.1893282748","","0.6","0.2","0.8","0.4","","","","","0.1893282748","0.1649404926","0.4286088018","0.358829095","","","","","","","","","","72","H","0","img/none_selected.jpg","","120","main_expt",""
"","bandit","200","552694","0.0-162.0-0.0","87408961","wem/bandit_party_1","A19R7FSNDW6WRK","either","8","354","","","","","","","0","0","1","0.3189860171","","0.6","0.2","0.8","0.4","","","","","0.2290368179","0.1764152442","0.4253829576","0.3189860171","","","","","","","","","","76","L","3","","","121","main_expt",""
"","bandit","201","554583","0.0-163.0-0.0","87408961","wem/bandit_party_1","A19R7FSNDW6WRK","either","8","343","","","","","","","0","1","0","","0.2092397698","0.6","0.2","0.8","0.4","0.2445441383","0.2092397698","0.4235175979","0.3011672979","","","","","","","","","","","","","","74","J","1","","","122","main_expt",""
"","bandit","202","556593","0.0-164.0-0.0","87408961","wem/bandit_party_1","A19R7FSNDW6WRK","either","8","465","","","","","","","0","0","1","","0.1884058447","0.6","0.2","0.8","0.4","0.2091075756","0.1884058447","0.4182090072","0.3037948063","","","","","","","","","","","","","","74","J","1","","","123","main_expt",""
"","bandit","203","558423","0.0-165.0-0.0","87408961","wem/bandit_party_1","A19R7FSNDW6WRK","either","8","296","","","","","","","0","0","1","0.2446200253","","0.6","0.2","0.8","0.4","","","","","0.2216111921","0.1876417206","0.4356016004","0.2446200253","","","","","","","","","","76","L","3","","","124","main_expt",""
"","bandit","204","560203","0.0-166.0-0.0","87408961","wem/bandit_party_1","A19R7FSNDW6WRK","either","8","201","","","","","","","0","0","1","0.1622020501","","0.6","0.2","0.8","0.4","","","","","0.1622020501","0.1890564589","0.403953628","0.2464628806","","","","","","","","","","72","H","0","img/none_selected.jpg","","125","main_expt",""
"","bandit","205","561983","0.0-167.0-0.0","87408961","wem/bandit_party_1","A19R7FSNDW6WRK","either","8","229","","","","","","","0","0","1","","0.1659850756","0.6","0.2","0.8","0.4","0.173533554","0.1659850756","0.4020675328","0.281169445","","","","","","","","","","","","","","74","J","1","","","126","main_expt",""
"","bandit","206","563823","0.0-168.0-0.0","87408961","wem/bandit_party_1","A19R7FSNDW6WRK","either","8","284","","","","","","","0","1","0","","0.2006343121","0.6","0.2","0.8","0.4","0.189829559","0.2006343121","0.338443572","0.290080064","","","","","","","","","","","","","","74","J","1","","","127","main_expt",""
"","bandit","207","565912","0.0-169.0-0.0","87408961","wem/bandit_party_1","A19R7FSNDW6WRK","either","8","513","","","","","","","0","0","1","","0.2637444583","0.6","0.2","0.8","0.4","0.1764696366","0.2637444583","0.323123489","0.3280989756","","","","","","","","","","","","","","74","J","1","","","128","main_expt",""
"","bandit","208","568433","0.0-170.0-0.0","87408961","wem/bandit_party_1","A19R7FSNDW6WRK","either","8","979","","","","","","","0","1","0","","0.2783394686","0.6","0.2","0.8","0.4","0.172709194","0.2783394686","0.3615310162","0.3052704822","","","","","","","","","","","","","","74","J","1","","","129","main_expt",""
"","bandit","209","570406","0.0-171.0-0.0","87408961","wem/bandit_party_1","A19R7FSNDW6WRK","either","8","414","","","","","","","0","0","1","","0.2674474002","0.6","0.2","0.8","0.4","0.1407460215","0.2674474002","0.3667448715","0.314718742","","","","","","","","","","","","","","74","J","1","","","130","main_expt",""
"","bandit","210","572845","0.0-172.0-0.0","87408961","wem/bandit_party_1","A19R7FSNDW6WRK","either","8","866","","","","","","","0","0","1","","0.2122920843","0.6","0.2","0.8","0.4","0.143826562","0.2122920843","0.341745941","0.2492347367","","","","","","","","","","","","","","74","J","1","","","131","main_expt",""
"","bandit","211","575244","0.0-173.0-0.0","87408961","wem/bandit_party_1","A19R7FSNDW6WRK","either","8","862","","","","","","","0","0","1","","0.1969346152","0.6","0.2","0.8","0.4","0.1862992663","0.1969346152","0.2615325727","0.2495736985","","","","","","","","","","","","","","74","J","1","","","132","main_expt",""
"","bandit","212","577003","0.0-174.0-0.0","87408961","wem/bandit_party_1","A19R7FSNDW6WRK","either","8","197","","","","","","","0","0","1","","0.2487120015","0.6","0.2","0.8","0.4","0.185648564","0.1390835973","0.27905624","0.2487120015","","","","","","","","","","","","","","76","L","3","","","133","main_expt",""
"","bandit","213","578563","0.0-175.0-0.0","87408961","wem/bandit_party_1","A19R7FSNDW6WRK","either","8","6","","","","","","","0","0","1","","0.3239420422","0.6","0.2","0.8","0.4","0.2002276213","0.1437640715","0.2751163123","0.3239420422","","","","","","","","","","","","","","76","L","3","","","134","main_expt",""
"","bandit","214","580493","0.0-176.0-0.0","87408961","wem/bandit_party_1","A19R7FSNDW6WRK","either","8","380","","","","","","","0","0","1","0.2474552851","","0.6","0.2","0.8","0.4","","","","","0.2474552851","0.1175999949","0.2586507773","0.3903525049","","","","","","","","","","72","H","0","img/none_selected.jpg","","135","main_expt",""
"","bandit","215","582263","0.0-177.0-0.0","87408961","wem/bandit_party_1","A19R7FSNDW6WRK","either","8","212","","","","","","","0","0","1","0.1108499649","","0.6","0.2","0.8","0.4","","","","","0.2454982057","0.1108499649","0.2385277364","0.3703049055","","","","","","","","","","74","J","1","","","136","main_expt",""
"","bandit","216","584213","0.0-178.0-0.0","87408961","wem/bandit_party_1","A19R7FSNDW6WRK","either","8","397","","","","","","","1","0","0","0.1935782534","","0.6","0.2","0.8","0.4","","","","","0.2708690816","0.1208727618","0.1935782534","0.3657944308","","","","","","","","","","75","K","2","","","137","main_expt",""
"","bandit","217","586596","0.0-179.0-0.0","87408961","wem/bandit_party_1","A19R7FSNDW6WRK","either","8","828","","","","","","","0","0","1","","0.14087624","0.6","0.2","0.8","0.4","0.2219039101","0.1098805161","0.14087624","0.3452946514","","","","","","","","","","","","","","75","K","2","","","138","main_expt",""
"","bandit","218","588321","0.0-180.0-0.0","87408961","wem/bandit_party_1","A19R7FSNDW6WRK","either","8","151","","","","","","","0","0","1","","0.3225052804","0.6","0.2","0.8","0.4","0.2485571535","0.1359731218","0.1340930794","0.3225052804","","","","","","","","","","","","","","76","L","3","","","139","main_expt",""
"","bandit","219","590157","0.0-181.0-0.0","87408961","wem/bandit_party_1","A19R7FSNDW6WRK","either","8","263","","","","","","","0","0","1","","0.2605640439","0.6","0.2","0.8","0.4","0.2605640439","0.1419248406","0.1170750994","0.2997250911","","","","","","","","","","","","","","72","H","0","img/none_selected.jpg","","140","main_expt",""
"","bandit","220","591993","0.0-182.0-0.0","87408961","wem/bandit_party_1","A19R7FSNDW6WRK","either","8","280","","","","","","","0","1","0","","0.1269577117","0.6","0.2","0.8","0.4","0.2260680923","0.1269577117","0.1316830279","0.311933389","","","","","","","","","","","","","","74","J","1","","","141","main_expt",""
"","bandit","221","593968","0.0-183.0-0.0","87408961","wem/bandit_party_1","A19R7FSNDW6WRK","either","8","409","","","","","","","0","0","1","0.09490366034","","0.6","0.2","0.8","0.4","","","","","0.2354846983","0.1073819056","0.09490366034","0.3442568425","","","","","","","","","","75","K","2","","","142","main_expt",""
"","bandit","222","595696","0.0-184.0-0.0","87408961","wem/bandit_party_1","A19R7FSNDW6WRK","either","8","129","","","","","","","0","0","1","0.3117203045","","0.6","0.2","0.8","0.4","","","","","0.2089358464","0.1152767294","0.1246024154","0.3117203045","","","","","","","","","","76","L","3","","","143","main_expt",""
"","bandit","223","597342","0.0-185.0-0.0","87408961","wem/bandit_party_1","A19R7FSNDW6WRK","either","8","95","","","","","","","0","0","1","0.1844607625","","0.6","0.2","0.8","0.4","","","","","0.1844607625","0.1317444946","0.1179874238","0.3080771123","","","","","","","","","","72","H","0","img/none_selected.jpg","","144","main_expt",""
"","bandit","224","599182","0.0-186.0-0.0","87408961","wem/bandit_party_1","A19R7FSNDW6WRK","either","8","297","","","","","","","0","0","1","","0.1058600218","0.6","0.2","0.8","0.4","0.1940384654","0.1058600218","0.1211842963","0.3146876691","","","","","","","","","","","","","","74","J","1","","","145","main_expt",""
"","bandit","225","601438","0.0-187.0-0.0","87408961","wem/bandit_party_1","A19R7FSNDW6WRK","either","8","711","","","","","","","0","0","1","0.06212451067","","0.6","0.2","0.8","0.4","","","","","0.2532022814","0.1862633901","0.06212451067","0.3526806189","","","","","","","","","","75","K","2","","","146","main_expt",""
"","bandit","226","603136","0.0-188.0-0.0","87408961","wem/bandit_party_1","A19R7FSNDW6WRK","either","8","122","","","","","","","0","0","1","","0.1944793183","0.6","0.2","0.8","0.4","0.272856749","0.1944793183","0.05826033827","0.3859334927","","","","","","","","","","","","","","74","J","1","","","147","main_expt",""
"","bandit","227","604880","0.0-189.0-0.0","87408961","wem/bandit_party_1","A19R7FSNDW6WRK","either","8","199","","","","","","","0","0","1","","0.04847575149","0.6","0.2","0.8","0.4","0.2441255329","0.1572605535","0.04847575149","0.4089873985","","","","","","","","","","","","","","75","K","2","","","148","main_expt",""
"","bandit","228","606703","0.0-190.0-0.0","87408961","wem/bandit_party_1","A19R7FSNDW6WRK","either","8","279","","","","","","","0","0","1","0.1632070519","","0.6","0.2","0.8","0.4","","","","","0.2304797635","0.1632070519","0.07397138717","0.3317076441","","","","","","","","","","74","J","1","","","149","main_expt",""
"","bandit","229","608594","0.0-191.0-0.0","87408961","wem/bandit_party_1","A19R7FSNDW6WRK","either","8","303","","","","","","","0","1","0","","0.2645424191","0.6","0.2","0.8","0.4","0.2645424191","0.2162169298","0.1178437277","0.2514439341","","","","","","","","","","","","","","72","H","0","img/none_selected.jpg","","150","main_expt",""
"","bandit","230","610343","0.0-192.0-0.0","87408961","wem/bandit_party_1","A19R7FSNDW6WRK","either","8","207","","","","","","","0","0","1","0.2209696772","","0.6","0.2","0.8","0.4","","","","","0.2919476008","0.2806681102","0.1116740648","0.2209696772","","","","","","","","","","76","L","3","","","151","main_expt",""
"","bandit","231","612102","0.0-193.0-0.0","87408961","wem/bandit_party_1","A19R7FSNDW6WRK","either","8","217","","","","","","","1","0","0","0.3004198658","","0.6","0.2","0.8","0.4","","","","","0.3004198658","0.25223767","0.09681320826","0.2004300668","","","","","","","","","","72","H","0","img/none_selected.jpg","","152","main_expt",""
"","bandit","232","613972","0.0-194.0-0.0","87408961","wem/bandit_party_1","A19R7FSNDW6WRK","either","8","330","","","","","","","0","0","1","","0.2910243242","0.6","0.2","0.8","0.4","0.2910243242","0.2259503681","0.1162344283","0.1803159607","","","","","","","","","","","","","","72","H","0","img/none_selected.jpg","","153","main_expt",""
"","bandit","233","615772","0.0-195.0-0.0","87408961","wem/bandit_party_1","A19R7FSNDW6WRK","either","8","244","","","","","","","0","0","1","0.2858680692","","0.6","0.2","0.8","0.4","","","","","0.2858680692","0.2520515582","0.1441765144","0.1793353988","","","","","","","","","","72","H","0","img/none_selected.jpg","","154","main_expt",""
"","bandit","234","617452","0.0-196.0-0.0","87408961","wem/bandit_party_1","A19R7FSNDW6WRK","either","8","129","","","","","","","0","0","1","","0.276906037","0.6","0.2","0.8","0.4","0.276906037","0.246895917","0.1506434262","0.175125938","","","","","","","","","","","","","","72","H","0","img/none_selected.jpg","","155","main_expt",""
"","bandit","235","619313","0.0-197.0-0.0","87408961","wem/bandit_party_1","A19R7FSNDW6WRK","either","8","308","","","","","","","1","0","0","0.2067462234","","0.6","0.2","0.8","0.4","","","","","0.3087514371","0.2067462234","0.1691825384","0.19004546","","","","","","","","","","74","J","1","","","156","main_expt",""
"","bandit","236","621072","0.0-198.0-0.0","87408961","wem/bandit_party_1","A19R7FSNDW6WRK","either","8","211","","","","","","","0","0","1","","0.1736677602","0.6","0.2","0.8","0.4","0.3400763937","0.1736677602","0.1465267651","0.1538528063","","","","","","","","","","","","","","74","J","1","","","157","main_expt",""
"","bandit","237","622722","0.0-199.0-0.0","87408961","wem/bandit_party_1","A19R7FSNDW6WRK","either","8","112","","","","","","","0","0","1","0.1517260174","","0.6","0.2","0.8","0.4","","","","","0.3388441277","0.2437422656","0.1517260174","0.1624419901","","","","","","","","","","75","K","2","","","158","main_expt",""
"","bandit","238","625252","0.0-200.0-0.0","87408961","wem/bandit_party_1","A19R7FSNDW6WRK","either","8","975","","","","","","","0","0","1","","0.1749682205","0.6","0.2","0.8","0.4","0.3496437485","0.2627628197","0.143579764","0.1749682205","","","","","","","","","","","","","","76","L","3","","","159","main_expt",""
"","bandit","239","626941","0.0-201.0-0.0","87408961","wem/bandit_party_1","A19R7FSNDW6WRK","either","8","133","","","","","","","1","0","0","0.2532756584","","0.6","0.2","0.8","0.4","","","","","0.3347491532","0.2532756584","0.1701049762","0.2227833177","","","","","","","","","","74","J","1","","","160","main_expt",""
"","bandit","240","628622","0.0-202.0-0.0","87408961","wem/bandit_party_1","A19R7FSNDW6WRK","either","8","148","","","","","","","0","0","1","","0.2846030245","0.6","0.2","0.8","0.4","0.3036625801","0.2846030245","0.1596038406","0.1616195486","","","","","","","","","","","","","","74","J","1","","","161","main_expt",""
"","bandit","241","630492","0.0-203.0-0.0","87408961","wem/bandit_party_1","A19R7FSNDW6WRK","either","8","315","","","","","","","0","0","1","","0.2480450928","0.6","0.2","0.8","0.4","0.2735804545","0.2480450928","0.1186271452","0.1440802068","","","","","","","","","","","","","","74","J","1","","","162","main_expt",""
"","bandit","242","632222","0.0-204.0-0.0","87408961","wem/bandit_party_1","A19R7FSNDW6WRK","either","8","203","","","","","","","0","0","1","","0.3217860246","0.6","0.2","0.8","0.4","0.2219233964","0.3217860246","0.1460830151","0.1349250059","","","","","","","","","","","","","","74","J","1","","","163","main_expt",""
"","bandit","243","634172","0.0-205.0-0.0","87408961","wem/bandit_party_1","A19R7FSNDW6WRK","either","8","418","","","","","","","0","0","1","0.2489701673","","0.6","0.2","0.8","0.4","","","","","0.2489701673","0.3528623486","0.1924179555","0.1482528248","","","","","","","","","","72","H","0","img/none_selected.jpg","","164","main_expt",""
"","bandit","244","635862","0.0-206.0-0.0","87408961","wem/bandit_party_1","A19R7FSNDW6WRK","either","8","139","","","","","","","0","0","1","0.1909643941","","0.6","0.2","0.8","0.4","","","","","0.2424219606","0.3113737792","0.1909643941","0.1444116863","","","","","","","","","","75","K","2","","","165","main_expt",""
"","bandit","245","637451","0.0-207.0-0.0","87408961","wem/bandit_party_1","A19R7FSNDW6WRK","either","8","50","","","","","","","0","0","1","0.1621449425","","0.6","0.2","0.8","0.4","","","","","0.1899742571","0.2820045276","0.1917506842","0.1621449425","","","","","","","","","","76","L","3","","","166","main_expt",""
"","bandit","246","639208","0.0-208.0-0.0","87408961","wem/bandit_party_1","A19R7FSNDW6WRK","either","8","215","","","","","","","0","0","1","0.2298880826","","0.6","0.2","0.8","0.4","","","","","0.2298880826","0.2539690707","0.2238056512","0.1695256229","","","","","","","","","","72","H","0","img/none_selected.jpg","","167","main_expt",""
"","bandit","247","640882","0.0-209.0-0.0","87408961","wem/bandit_party_1","A19R7FSNDW6WRK","either","8","143","","","","","","","0","0","1","","0.241220494","0.6","0.2","0.8","0.4","0.241220494","0.2177565821","0.2132240521","0.1712445676","","","","","","","","","","","","","","72","H","0","img/none_selected.jpg","","168","main_expt",""
"","bandit","248","642611","0.0-210.0-0.0","87408961","wem/bandit_party_1","A19R7FSNDW6WRK","either","8","188","","","","","","","0","0","1","","0.2113351254","0.6","0.2","0.8","0.4","0.2113351254","0.183214586","0.1363713625","0.191079104","","","","","","","","","","","","","","72","H","0","img/none_selected.jpg","","169","main_expt",""
"","bandit","249","644361","0.0-211.0-0.0","87408961","wem/bandit_party_1","A19R7FSNDW6WRK","either","8","212","","","","","","","0","0","1","","0.1757282231","0.6","0.2","0.8","0.4","0.2224744884","0.1757282231","0.2007690262","0.2227666825","","","","","","","","","","","","","","74","J","1","","","170","main_expt",""
"","bandit","250","646611","0.0-212.0-0.0","87408961","wem/bandit_party_1","A19R7FSNDW6WRK","either","8","692","","","","","","","0","0","1","","0.1679331046","0.6","0.2","0.8","0.4","0.262177911","0.1679331046","0.1238998316","0.2719914804","","","","","","","","","","","","","","74","J","1","","","171","main_expt",""
"","bandit","251","649491","0.0-213.0-0.0","87408961","wem/bandit_party_1","A19R7FSNDW6WRK","either","8","1348","","","","","","","0","1","0","","0.14560319","0.6","0.2","0.8","0.4","0.2822992514","0.14560319","0.09746419185","0.2330128459","","","","","","","","","","","","","","74","J","1","","","172","main_expt",""
"","bandit","252","651651","0.0-214.0-0.0","87408961","wem/bandit_party_1","A19R7FSNDW6WRK","either","8","597","","","","","","","0","0","1","","0.1341549344","0.6","0.2","0.8","0.4","0.2545762091","0.1341549344","0.1018164217","0.2840251313","","","","","","","","","","","","","","74","J","1","","","173","main_expt",""
"","bandit","253","654334","0.0-215.0-0.0","87408961","wem/bandit_party_1","A19R7FSNDW6WRK","either","8","1138","","","","","","","0","0","1","","0.1471305278","0.6","0.2","0.8","0.4","0.2838184637","0.1471305278","0.1401689619","0.2739042306","","","","","","","","","","","","","","74","J","1","","","174","main_expt",""
"","bandit","254","656158","0.0-216.0-0.0","87408961","wem/bandit_party_1","A19R7FSNDW6WRK","either","8","251","","","","","","","0","0","1","","0.173963405","0.6","0.2","0.8","0.4","0.3002790513","0.173963405","0.1697524679","0.3444735506","","","","","","","","","","","","","","74","J","1","","","175","main_expt",""
"","bandit","255","657995","0.0-217.0-0.0","87408961","wem/bandit_party_1","A19R7FSNDW6WRK","either","8","271","","","","","","","0","0","1","","0.1896898672","0.6","0.2","0.8","0.4","0.3771690292","0.1821857965","0.1896898672","0.3223017316","","","","","","","","","","","","","","75","K","2","","","176","main_expt",""
"","bandit","256","659774","0.0-218.0-0.0","87408961","wem/bandit_party_1","A19R7FSNDW6WRK","either","8","215","","","","","","","1","0","0","0.2441254625","","0.6","0.2","0.8","0.4","","","","","0.4047809956","0.1444884472","0.2441254625","0.2964924158","","","","","","","","","","75","K","2","","","177","main_expt",""
"","bandit","257","661606","0.0-219.0-0.0","87408961","wem/bandit_party_1","A19R7FSNDW6WRK","either","8","278","","","","","","","0","0","1","0.2427722412","","0.6","0.2","0.8","0.4","","","","","0.4344960837","0.1207783293","0.2427722412","0.2780576925","","","","","","","","","","75","K","2","","","178","main_expt",""
"","bandit","258","663275","0.0-220.0-0.0","87408961","wem/bandit_party_1","A19R7FSNDW6WRK","either","8","97","","","","","","","1","0","0","0.2284650367","","0.6","0.2","0.8","0.4","","","","","0.4287912686","0.111585665","0.2284650367","0.2859751729","","","","","","","","","","75","K","2","","","179","main_expt",""
"","bandit","259","665119","0.0-221.0-0.0","87408961","wem/bandit_party_1","A19R7FSNDW6WRK","either","8","279","","","","","","","0","0","1","0.2694081366","","0.6","0.2","0.8","0.4","","","","","0.4294180747","0.06891525065","0.2694081366","0.283533164","","","","","","","","","","75","K","2","","","180","main_expt",""
"","bandit","260","666751","0.0-222.0-0.0","87408961","wem/bandit_party_1","A19R7FSNDW6WRK","either","8","102","","","","","","","1","0","0","0.2471628034","","0.6","0.2","0.8","0.4","","","","","0.3887332701","0.07407739619","0.2471628034","0.2430023428","","","","","","","","","","75","K","2","","","181","main_expt",""
"","bandit","261","668591","0.0-223.0-0.0","87408961","wem/bandit_party_1","A19R7FSNDW6WRK","either","8","266","","","","","","","0","0","1","0.275372354","","0.6","0.2","0.8","0.4","","","","","0.3910635387","0.07501704201","0.275372354","0.223254837","","","","","","","","","","75","K","2","","","182","main_expt",""
"","bandit","262","670352","0.0-224.0-0.0","87408961","wem/bandit_party_1","A19R7FSNDW6WRK","either","8","220","","","","","","","1","0","0","0.2378950907","","0.6","0.2","0.8","0.4","","","","","0.3957792538","0.09354103142","0.2378950907","0.2274286797","","","","","","","","","","75","K","2","","","183","main_expt",""
"","bandit","263","672141","0.0-225.0-0.0","87408961","wem/bandit_party_1","A19R7FSNDW6WRK","either","8","245","","","","","","","0","1","0","","0.2611999536","0.6","0.2","0.8","0.4","0.3777829694","0.06673830493","0.2611999536","0.2485964068","","","","","","","","","","","","","","75","K","2","","","184","main_expt",""
"","bandit","264","673801","0.0-226.0-0.0","87408961","wem/bandit_party_1","A19R7FSNDW6WRK","either","8","103","","","","","","","0","0","1","0.2799245071","","0.6","0.2","0.8","0.4","","","","","0.4130939835","0.08617836821","0.2799245071","0.2080173303","","","","","","","","","","75","K","2","","","185","main_expt",""
"","bandit","265","675561","0.0-227.0-0.0","87408961","wem/bandit_party_1","A19R7FSNDW6WRK","either","8","219","","","","","","","0","0","1","0.2275386122","","0.6","0.2","0.8","0.4","","","","","0.376930599","0.05054014018","0.2275386122","0.2538883687","","","","","","","","","","75","K","2","","","186","main_expt",""
"","bandit","266","677386","0.0-228.0-0.0","87408961","wem/bandit_party_1","A19R7FSNDW6WRK","either","8","249","","","","","","","0","0","1","0.2558518805","","0.6","0.2","0.8","0.4","","","","","0.3934592684","0.1101456656","0.2558518805","0.2267652077","","","","","","","","","","75","K","2","","","187","main_expt",""
"","bandit","267","679092","0.0-229.0-0.0","87408961","wem/bandit_party_1","A19R7FSNDW6WRK","either","8","156","","","","","","","0","0","1","0.2757393749","","0.6","0.2","0.8","0.4","","","","","0.4086060551","0.1076418148","0.2757393749","0.2583789709","","","","","","","","","","75","K","2","","","188","main_expt",""
"","bandit","268","681381","0.0-230.0-0.0","87408961","wem/bandit_party_1","A19R7FSNDW6WRK","either","8","732","","","","","","","0","0","1","0.3326758055","","0.6","0.2","0.8","0.4","","","","","0.447145564","0.1230456027","0.3326758055","0.2329768584","","","","","","","","","","75","K","2","","","189","main_expt",""
"","bandit","269","683051","0.0-231.0-0.0","87408961","wem/bandit_party_1","A19R7FSNDW6WRK","either","8","120","","","","","","","0","0","1","0.2002510669","","0.6","0.2","0.8","0.4","","","","","0.386091063","0.1872873117","0.332927569","0.2002510669","","","","","","","","","","76","L","3","","","190","main_expt",""
"","bandit","270","684861","0.0-232.0-0.0","87408961","wem/bandit_party_1","A19R7FSNDW6WRK","either","8","260","","","","","","","0","0","1","","0.2182600554","0.6","0.2","0.8","0.4","0.4221145333","0.1413073252","0.3859199101","0.2182600554","","","","","","","","","","","","","","76","L","3","","","191","main_expt",""
"","bandit","271","686641","0.0-233.0-0.0","87408961","wem/bandit_party_1","A19R7FSNDW6WRK","either","8","224","","","","","","","0","0","1","0.2681613901","","0.6","0.2","0.8","0.4","","","","","0.3913199708","0.1868627967","0.392668484","0.2681613901","","","","","","","","","","76","L","3","","","192","main_expt",""
"","bandit","272","688413","0.0-234.0-0.0","87408961","wem/bandit_party_1","A19R7FSNDW6WRK","either","8","202","","","","","","","1","0","0","0.4013624592","","0.6","0.2","0.8","0.4","","","","","0.4013624592","0.2312719224","0.3789843676","0.3035027483","","","","","","","","","","72","H","0","img/none_selected.jpg","","193","main_expt",""
"","bandit","273","690041","0.0-235.0-0.0","87408961","wem/bandit_party_1","A19R7FSNDW6WRK","either","8","104","","","","","","","0","0","1","0.3668237699","","0.6","0.2","0.8","0.4","","","","","0.3668237699","0.2585201677","0.3689216281","0.275531754","","","","","","","","","","72","H","0","img/none_selected.jpg","","194","main_expt",""
"","bandit","274","691831","0.0-236.0-0.0","87408961","wem/bandit_party_1","A19R7FSNDW6WRK","either","8","234","","","","","","","0","1","0","","0.3856266791","0.6","0.2","0.8","0.4","0.3856266791","0.2786104129","0.4136905162","0.2716401532","","","","","","","","","","","","","","72","H","0","img/none_selected.jpg","","195","main_expt",""
"","bandit","275","693661","0.0-237.0-0.0","87408961","wem/bandit_party_1","A19R7FSNDW6WRK","either","8","276","","","","","","","0","0","1","0.3702439493","","0.6","0.2","0.8","0.4","","","","","0.3702439493","0.2407834285","0.4258575101","0.2814611543","","","","","","","","","","72","H","0","img/none_selected.jpg","","196","main_expt",""
"","bandit","276","695421","0.0-238.0-0.0","87408961","wem/bandit_party_1","A19R7FSNDW6WRK","either","8","206","","","","","","","1","0","0","0.3665926528","","0.6","0.2","0.8","0.4","","","","","0.3665926528","0.2550568011","0.3976178043","0.2588010394","","","","","","","","","","72","H","0","img/none_selected.jpg","","197","main_expt",""
"","bandit","277","697211","0.0-239.0-0.0","87408961","wem/bandit_party_1","A19R7FSNDW6WRK","either","8","270","","","","","","","0","1","0","","0.3432124584","0.6","0.2","0.8","0.4","0.3432124584","0.3094863904","0.3802378075","0.3094610495","","","","","","","","","","","","","","72","H","0","img/none_selected.jpg","","198","main_expt",""
"","bandit","278","698961","0.0-240.0-0.0","87408961","wem/bandit_party_1","A19R7FSNDW6WRK","either","8","212","","","","","","","0","0","1","0.4096574544","","0.6","0.2","0.8","0.4","","","","","0.4096574544","0.3012985694","0.3926800246","0.3139278769","","","","","","","","","","72","H","0","img/none_selected.jpg","","199","main_expt",""
"","bandit","279","700681","0.0-241.0-0.0","87408961","wem/bandit_party_1","A19R7FSNDW6WRK","either","8","163","","","","","","","0","0","1","0.3799023259","","0.6","0.2","0.8","0.4","","","","","0.3799023259","0.3149132519","0.3814844917","0.3459706187","","","","","","","","","","72","H","0","img/none_selected.jpg","","200","main_expt",""
"","bandit","280","702470","0.0-242.0-0.0","87408961","wem/bandit_party_1","A19R7FSNDW6WRK","either","8","243","","","","","","","0","0","1","","0.3513783521","0.6","0.2","0.8","0.4","0.3513783521","0.3236307962","0.3831630738","0.3038365479","","","","","","","","","","","","","","72","H","0","img/none_selected.jpg","","201","main_expt",""
"","bandit","281","704190","0.0-243.0-0.0","87408961","wem/bandit_party_1","A19R7FSNDW6WRK","either","8","160","","","","","","","0","0","1","","0.3439351057","0.6","0.2","0.8","0.4","0.3439351057","0.3163717903","0.3957430938","0.2964599608","","","","","","","","","","","","","","72","H","0","img/none_selected.jpg","","202","main_expt",""
"","bandit","282","705810","0.0-244.0-0.0","87408961","wem/bandit_party_1","A19R7FSNDW6WRK","either","8","68","","","","","","","0","1","0","","0.3165936227","0.6","0.2","0.8","0.4","0.2615327891","0.3165936227","0.4175506619","0.280336616","","","","","","","","","","","","","","74","J","1","","","203","main_expt",""
"","bandit","283","707481","0.0-245.0-0.0","87408961","wem/bandit_party_1","A19R7FSNDW6WRK","either","8","132","","","","","","","0","0","1","","0.3166231072","0.6","0.2","0.8","0.4","0.2211517471","0.3166231072","0.4356800279","0.262900641","","","","","","","","","","","","","","74","J","1","","","204","main_expt",""
"","bandit","284","709281","0.0-246.0-0.0","87408961","wem/bandit_party_1","A19R7FSNDW6WRK","either","8","227","","","","","","","0","0","1","","0.2983153058","0.6","0.2","0.8","0.4","0.1955747294","0.2983153058","0.4342993254","0.3403150927","","","","","","","","","","","","","","74","J","1","","","205","main_expt",""
"","bandit","285","710910","0.0-247.0-0.0","87408961","wem/bandit_party_1","A19R7FSNDW6WRK","either","8","94","","","","","","","0","0","1","","0.255573156","0.6","0.2","0.8","0.4","0.3137251184","0.255573156","0.4515967499","0.3407188883","","","","","","","","","","","","","","74","J","1","","","206","main_expt",""
"","bandit","286","713391","0.0-248.0-0.0","87408961","wem/bandit_party_1","A19R7FSNDW6WRK","either","8","941","","","","","","","1","0","0","0.2816724171","","0.6","0.2","0.8","0.4","","","","","0.2982459604","0.2816724171","0.4559700358","0.2955601217","","","","","","","","","","74","J","1","","","207","main_expt",""
"","bandit","287","715200","0.0-249.0-0.0","87408961","wem/bandit_party_1","A19R7FSNDW6WRK","either","8","269","","","","","","","0","0","1","","0.2462622089","0.6","0.2","0.8","0.4","0.2359404152","0.2462622089","0.4711787588","0.2832193826","","","","","","","","","","","","","","74","J","1","","","208","main_expt",""
"","bandit","288","717033","0.0-250.0-0.0","87408961","wem/bandit_party_1","A19R7FSNDW6WRK","either","8","278","","","","","","","0","1","0","","0.2608633631","0.6","0.2","0.8","0.4","0.2396635106","0.2608633631","0.4859779177","0.25637755","","","","","","","","","","","","","","74","J","1","","","209","main_expt",""
"","bandit","289","718792","0.0-251.0-0.0","87408961","wem/bandit_party_1","A19R7FSNDW6WRK","either","8","195","","","","","","","0","0","1","","0.2649708152","0.6","0.2","0.8","0.4","0.2320506775","0.2649708152","0.4798195452","0.2500912527","","","","","","","","","","","","","","74","J","1","","","210","main_expt",""
"","bandit","290","720610","0.0-252.0-0.0","87408961","wem/bandit_party_1","A19R7FSNDW6WRK","either","8","248","","","","","","","0","0","1","","0.2658594566","0.6","0.2","0.8","0.4","0.1894847828","0.2658594566","0.4754072522","0.2481129288","","","","","","","","","","","","","","74","J","1","","","211","main_expt",""
"","bandit","291","722759","0.0-253.0-0.0","87408961","wem/bandit_party_1","A19R7FSNDW6WRK","either","8","575","","","","","","","0","0","1","","0.2648449814","0.6","0.2","0.8","0.4","0.2330804604","0.2648449814","0.4780703898","0.3192168596","","","","","","","","","","","","","","74","J","1","","","212","main_expt",""
"","bandit","292","724311","0.0-254.0-0.0","87408961","wem/bandit_party_1","A19R7FSNDW6WRK","either","8","9","","","","","","","1","0","0","0.286492297","","0.6","0.2","0.8","0.4","","","","","0.2484053244","0.286492297","0.4883488692","0.2361953268","","","","","","","","","","74","J","1","","","213","main_expt",""
"","bandit","293","726093","0.0-255.0-0.0","87408961","wem/bandit_party_1","A19R7FSNDW6WRK","either","8","237","","","","","","","0","0","1","","0.2540339129","0.6","0.2","0.8","0.4","0.2182548364","0.2540339129","0.4872562331","0.2308921763","","","","","","","","","","","","","","74","J","1","","","214","main_expt",""
"","bandit","294","727845","0.0-256.0-0.0","87408961","wem/bandit_party_1","A19R7FSNDW6WRK","either","8","153","","","","","","","0","0","1","","0.254651127","0.6","0.2","0.8","0.4","0.1824073789","0.254651127","0.4749609167","0.2161033537","","","","","","","","","","","","","","74","J","1","","","215","main_expt",""
"","bandit","295","729634","0.0-257.0-0.0","87408961","wem/bandit_party_1","A19R7FSNDW6WRK","either","8","240","","","","","","","0","0","1","","0.3140517816","0.6","0.2","0.8","0.4","0.1923730387","0.3140517816","0.4798413464","0.1896756427","","","","","","","","","","","","","","74","J","1","","","216","main_expt",""
"","bandit","296","731430","0.0-258.0-0.0","87408961","wem/bandit_party_1","A19R7FSNDW6WRK","either","8","228","","","","","","","0","0","1","","0.3338676317","0.6","0.2","0.8","0.4","0.2266612446","0.3338676317","0.4865144435","0.1724286307","","","","","","","","","","","","","","74","J","1","","","217","main_expt",""
"","bandit","297","733231","0.0-259.0-0.0","87408961","wem/bandit_party_1","A19R7FSNDW6WRK","either","8","261","","","","","","","0","0","1","0.4789145001","","0.6","0.2","0.8","0.4","","","","","0.1702705737","0.3397001125","0.4789145001","0.161168334","","","","","","","","","","75","K","2","","","218","main_expt",""
"","bandit","298","734984","0.0-260.0-0.0","87408961","wem/bandit_party_1","A19R7FSNDW6WRK","either","8","183","","","","","","","0","0","1","0.4834748692","","0.6","0.2","0.8","0.4","","","","","0.1159766116","0.2982528089","0.4834748692","0.2021763003","","","","","","","","","","75","K","2","","","219","main_expt",""
"","bandit","299","736705","0.0-261.0-0.0","87408961","wem/bandit_party_1","A19R7FSNDW6WRK","either","8","134","","","","","","","1","0","0","0.4722371777","","0.6","0.2","0.8","0.4","","","","","0.09529473055","0.2770934022","0.4722371777","0.2142164272","","","","","","","","","","75","K","2","","","220","main_expt",""
"","bandit","300","738344","0.0-262.0-0.0","87408961","wem/bandit_party_1","A19R7FSNDW6WRK","either","8","69","","","","","","","0","0","1","","0.4654689219","0.6","0.2","0.8","0.4","0.09060922323","0.2696770889","0.4654689219","0.189068297","","","","","","","","","","","","","","75","K","2","","","221","main_expt",""
"","bandit","301","739971","0.0-263.0-0.0","87408961","wem/bandit_party_1","A19R7FSNDW6WRK","either","8","88","","","","","","","0","0","1","0.4533789701","","0.6","0.2","0.8","0.4","","","","","0.1250772464","0.3103502417","0.4533789701","0.2120997892","","","","","","","","","","75","K","2","","","222","main_expt",""
"","bandit","302","741671","0.0-264.0-0.0","87408961","wem/bandit_party_1","A19R7FSNDW6WRK","either","8","148","","","","","","","0","0","1","0.4473019993","","0.6","0.2","0.8","0.4","","","","","0.1177235221","0.3477728299","0.4473019993","0.1937664477","","","","","","","","","","75","K","2","","","223","main_expt",""
"","bandit","303","743390","0.0-265.0-0.0","87408961","wem/bandit_party_1","A19R7FSNDW6WRK","either","8","159","","","","","","","0","0","1","0.4651086175","","0.6","0.2","0.8","0.4","","","","","0.1589673504","0.3230244909","0.4651086175","0.2195846313","","","","","","","","","","75","K","2","","","224","main_expt",""
"","bandit","304","745202","0.0-266.0-0.0","87408961","wem/bandit_party_1","A19R7FSNDW6WRK","either","8","258","","","","","","","0","0","1","","0.1973587738","0.6","0.2","0.8","0.4","0.1582937281","0.3641913847","0.4704934375","0.1973587738","","","","","","","","","","","","","","76","L","3","","","225","main_expt",""
"","bandit","305","746760","0.0-267.0-0.0","87408961","wem/bandit_party_1","A19R7FSNDW6WRK","either","8","3","","","","","","","0","0","1","","0.2029059012","0.6","0.2","0.8","0.4","0.1585786296","0.3211822138","0.4545632724","0.2029059012","","","","","","","","","","","","","","76","L","3","","","226","main_expt",""
"","bandit","306","749260","0.0-268.0-0.0","87408961","wem/bandit_party_1","A19R7FSNDW6WRK","either","8","953","","","","","","","0","0","1","0.1677618241","","0.6","0.2","0.8","0.4","","","","","0.1614007709","0.3318596792","0.4313330006","0.1677618241","","","","","","","","","","76","L","3","","","227","main_expt",""
"","bandit","307","751130","0.0-269.0-0.0","87408961","wem/bandit_party_1","A19R7FSNDW6WRK","either","8","309","","","","","","","0","0","1","","0.1160982884","0.6","0.2","0.8","0.4","0.1160982884","0.3715738924","0.4253897179","0.2079318551","","","","","","","","","","","","","","72","H","0","img/none_selected.jpg","","228","main_expt",""
"","bandit","308","752890","0.0-270.0-0.0","87408961","wem/bandit_party_1","A19R7FSNDW6WRK","either","8","198","","","","","","","0","0","1","","0.1327168588","0.6","0.2","0.8","0.4","0.1327168588","0.3571583743","0.4416009531","0.1860779256","","","","","","","","","","","","","","72","H","0","img/none_selected.jpg","","229","main_expt",""
"","bandit","309","754625","0.0-271.0-0.0","87408961","wem/bandit_party_1","A19R7FSNDW6WRK","either","8","174","","","","","","","0","0","1","0.1751239199","","0.6","0.2","0.8","0.4","","","","","0.1751239199","0.3455313741","0.4612445757","0.1294985144","","","","","","","","","","72","H","0","img/none_selected.jpg","","230","main_expt",""
"","bandit","310","756350","0.0-272.0-0.0","87408961","wem/bandit_party_1","A19R7FSNDW6WRK","either","8","190","","","","","","","0","0","1","","0.3114256563","0.6","0.2","0.8","0.4","0.2080149414","0.3114256563","0.4455927364","0.1424139305","","","","","","","","","","","","","","74","J","1","","","231","main_expt",""
"","bandit","311","757980","0.0-273.0-0.0","87408961","wem/bandit_party_1","A19R7FSNDW6WRK","either","8","73","","","","","","","1","0","0","0.3127001645","","0.6","0.2","0.8","0.4","","","","","0.2305008548","0.3127001645","0.4449483857","0.1777617008","","","","","","","","","","74","J","1","","","232","main_expt",""
"","bandit","312","759720","0.0-274.0-0.0","87408961","wem/bandit_party_1","A19R7FSNDW6WRK","either","8","196","","","","","","","0","0","1","","0.2953609795","0.6","0.2","0.8","0.4","0.2331895239","0.2953609795","0.4570404202","0.1408291819","","","","","","","","","","","","","","74","J","1","","","233","main_expt",""
"","bandit","313","761420","0.0-275.0-0.0","87408961","wem/bandit_party_1","A19R7FSNDW6WRK","either","8","164","","","","","","","0","1","0","","0.2743769666","0.6","0.2","0.8","0.4","0.2007149185","0.2743769666","0.4785018613","0.09563300426","","","","","","","","","","","","","","74","J","1","","","234","main_expt",""
"","bandit","314","763250","0.0-276.0-0.0","87408961","wem/bandit_party_1","A19R7FSNDW6WRK","either","8","285","","","","","","","1","0","0","0.2842570603","","0.6","0.2","0.8","0.4","","","","","0.1428876463","0.2842570603","0.4708517218","0.06508254785","","","","","","","","","","74","J","1","","","235","main_expt",""
"","bandit","315","765060","0.0-277.0-0.0","87408961","wem/bandit_party_1","A19R7FSNDW6WRK","either","8","271","","","","","","","0","0","1","","0.3536106974","0.6","0.2","0.8","0.4","0.1327756685","0.3536106974","0.4721911582","0.05272484418","","","","","","","","","","","","","","74","J","1","","","236","main_expt",""
"","bandit","316","766900","0.0-278.0-0.0","87408961","wem/bandit_party_1","A19R7FSNDW6WRK","either","8","284","","","","","","","0","0","1","0.3777879982","","0.6","0.2","0.8","0.4","","","","","0.1969646424","0.3777879982","0.4567984566","0.05000735717","","","","","","","","","","74","J","1","","","237","main_expt",""
