"consent","trial_type","trial_index","time_elapsed","internal_node_id","subjID","study","MID","cond","drift","rt","responses","button_pressed","key_press","like","value","connected","gems","bombs","no_reward","GemPrChosen","BombPrChosen","GainOverPainPr_0","GainOverPainPr_1","GainOverPainPr_2","GainOverPainPr_3","LosePr_0","LosePr_1","LosePr_2","LosePr_3","WinPr_0","WinPr_1","WinPr_2","WinPr_3","Q0","Q1","Q2","gender","age","ethnicity","label","expt_phase","target","respCharCode","respKey","respChoiceNum","respChoice","practice","trial_counter","trial_label","Q0_index","view_history"
"GDM/GDM_behavioral_consent_30min_online.html","consent","0","7445","0.0-0.0","87417917","wem/bandit_party_1","A1DJBDVXF6Z1KK","either","6","","","","","","","","","","","","","","","","","","","","","","","","","","","","","","","","","","","","","","","","","",""
"","survey-text","1","9966","0.0-1.0","87417917","wem/bandit_party_1","A1DJBDVXF6Z1KK","either","6","1506","{""Q0"":""A1DJBDVXF6Z1KK""}","","","","","","","","","","","","","","","","","","","","","","","","","","","","","","","","","","","","","","","",""
"","button-response","2","12783","0.0-2.0","87417917","wem/bandit_party_1","A1DJBDVXF6Z1KK","either","6","1811","","0","","","","","","","","","","","","","","","","","","","","","","","","","","","","","","","","","","","","","","",""
"","text-replacement","3","21569","0.0-3.0","87417917","wem/bandit_party_1","A1DJBDVXF6Z1KK","either","6","7780","","","32","","","","","","","","","","","","","","","","","","","","","","","","","","","","","","","","","","","","","",""
"","text-replacement","4","23535","0.0-4.0","87417917","wem/bandit_party_1","A1DJBDVXF6Z1KK","either","6","1963","","","32","","","","","","","","","","","","","","","","","","","","","","","","","","","","","","","","","","","","","",""
"","identification","5","29556","0.0-6.0-0.0","87417917","wem/bandit_party_1","A1DJBDVXF6Z1KK","either","6","6010","","","","4","4","4","","","","","","","","","","","","","","","","","","","","","","","","pre","identification_pre","the Republican party","","","","","","","","",""
"","identification","6","33908","0.0-6.0-1.0","87417917","wem/bandit_party_1","A1DJBDVXF6Z1KK","either","6","3333","","","","2","2","2","","","","","","","","","","","","","","","","","","","","","","","","pre","identification_pre","the Democratic Party","","","","","","","","",""
"","text-replacement","7","335932","0.0-7.0","87417917","wem/bandit_party_1","A1DJBDVXF6Z1KK","either","6","301021","","","32","","","","","","","","","","","","","","","","","","","","","","","","","","","","","","","","","","","","","",""
"","text-replacement","8","339803","0.0-8.0","87417917","wem/bandit_party_1","A1DJBDVXF6Z1KK","either","6","3869","","","32","","","","","","","","","","","","","","","","","","","","","","","","","","","","","","","","","","","","","",""
"","text-replacement","9","341053","0.0-9.0","87417917","wem/bandit_party_1","A1DJBDVXF6Z1KK","either","6","1248","","","32","","","","","","","","","","","","","","","","","","","","","","","","","","","","","","","","","","","","","",""
"","text-replacement","10","342877","0.0-10.0","87417917","wem/bandit_party_1","A1DJBDVXF6Z1KK","either","6","1821","","","32","","","","","","","","","","","","","","","","","","","","","","","","","","","","","","","","","","","","","",""
"","text-replacement","11","345292","0.0-11.0","87417917","wem/bandit_party_1","A1DJBDVXF6Z1KK","either","6","2412","","","32","","","","","","","","","","","","","","","","","","","","","","","","","","","","","","","","","","","","","",""
"","bandit","12","350095","0.0-12.0-0.0","87417917","wem/bandit_party_1","A1DJBDVXF6Z1KK","either","6","3294","","","","","","","0","0","1","0","0","","","","","0","","","","0","","","","","","","","","","","","","74","J","0","img/none_selected_demo.jpg","true","0","","",""
"","bandit","13","353433","0.0-13.0-0.0","87417917","wem/bandit_party_1","A1DJBDVXF6Z1KK","either","6","1831","","","","","","","0","0","1","0","0","","","","","0","","","","0","","","","","","","","","","","","","75","K","0","img/none_selected_demo.jpg","true","0","","",""
"","text-replacement","14","356972","0.0-14.0","87417917","wem/bandit_party_1","A1DJBDVXF6Z1KK","either","6","3537","","","32","","","","","","","","","","","","","","","","","","","","","","","","","","","","","","","","","","","","","",""
"","text-replacement","15","358251","0.0-15.0","87417917","wem/bandit_party_1","A1DJBDVXF6Z1KK","either","6","1276","","","32","","","","","","","","","","","","","","","","","","","","","","","","","","","","","","","","","","","","","",""
"","text-replacement","16","359932","0.0-16.0","87417917","wem/bandit_party_1","A1DJBDVXF6Z1KK","either","6","1679","","","32","","","","","","","","","","","","","","","","","","","","","","","","","","","","","","","","","","","","","",""
"","text-replacement","17","367724","0.0-17.0","87417917","wem/bandit_party_1","A1DJBDVXF6Z1KK","either","6","7790","","","32","","","","","","","","","","","","","","","","","","","","","","","","","","","","","","","","","","","","","",""
"","bandit","18","370539","0.0-18.0-0.0","87417917","wem/bandit_party_1","A1DJBDVXF6Z1KK","either","6","1305","","","","","","","0","1","0","","0.8","0.5","0.5","","","0.8","0.2","","","","","","","","","","","","","","","","74","J","0","img/none_selected_demo.jpg","true","0","80_20_practice","",""
"","bandit","19","372496","0.0-18.0-1.0","87417917","wem/bandit_party_1","A1DJBDVXF6Z1KK","either","6","443","","","","","","","0","0","1","0.2","","0.5","0.5","","","","","","","0.8","0.2","","","","","","","","","","","","75","K","1","","true","0","80_20_practice","",""
"","bandit","20","374394","0.0-18.0-2.0","87417917","wem/bandit_party_1","A1DJBDVXF6Z1KK","either","6","390","","","","","","","0","0","1","0.2","","0.5","0.5","","","","","","","0.8","0.2","","","","","","","","","","","","75","K","1","","true","0","80_20_practice","",""
"","bandit","21","376190","0.0-18.0-3.0","87417917","wem/bandit_party_1","A1DJBDVXF6Z1KK","either","6","288","","","","","","","0","0","1","","0.2","0.5","0.5","","","0.8","0.2","","","","","","","","","","","","","","","","75","K","1","","true","0","80_20_practice","",""
"","bandit","22","378047","0.0-18.0-4.0","87417917","wem/bandit_party_1","A1DJBDVXF6Z1KK","either","6","346","","","","","","","0","0","1","0.2","","0.5","0.5","","","","","","","0.8","0.2","","","","","","","","","","","","75","K","1","","true","0","80_20_practice","",""
"","bandit","23","380043","0.0-18.0-5.0","87417917","wem/bandit_party_1","A1DJBDVXF6Z1KK","either","6","491","","","","","","","0","1","0","","0.2","0.5","0.5","","","0.8","0.2","","","","","","","","","","","","","","","","75","K","1","","true","0","80_20_practice","",""
"","bandit","24","381883","0.0-18.0-6.0","87417917","wem/bandit_party_1","A1DJBDVXF6Z1KK","either","6","332","","","","","","","0","0","1","","0.2","0.5","0.5","","","0.8","0.2","","","","","","","","","","","","","","","","75","K","1","","true","0","80_20_practice","",""
"","bandit","25","386968","0.0-18.0-7.0","87417917","wem/bandit_party_1","A1DJBDVXF6Z1KK","either","6","3582","","","","","","","0","0","1","0.8","","0.5","0.5","","","","","","","0.8","0.2","","","","","","","","","","","","74","J","0","img/none_selected_demo.jpg","true","0","80_20_practice","",""
"","bandit","26","432144","0.0-18.0-8.0","87417917","wem/bandit_party_1","A1DJBDVXF6Z1KK","either","6","43666","","","","","","","0","0","1","","0.2","0.5","0.5","","","0.8","0.2","","","","","","","","","","","","","","","","75","K","1","","true","0","80_20_practice","",""
"","bandit","27","434092","0.0-18.0-9.0","87417917","wem/bandit_party_1","A1DJBDVXF6Z1KK","either","6","439","","","","","","","1","0","0","0.2","","0.5","0.5","","","","","","","0.8","0.2","","","","","","","","","","","","75","K","1","","true","0","80_20_practice","",""
"","bandit","28","435933","0.0-18.0-10.0","87417917","wem/bandit_party_1","A1DJBDVXF6Z1KK","either","6","332","","","","","","","0","0","1","","0.2","0.5","0.5","","","0.8","0.2","","","","","","","","","","","","","","","","75","K","1","","true","0","80_20_practice","",""
"","bandit","29","437936","0.0-18.0-11.0","87417917","wem/bandit_party_1","A1DJBDVXF6Z1KK","either","6","488","","","","","","","0","0","1","0.2","","0.5","0.5","","","","","","","0.8","0.2","","","","","","","","","","","","75","K","1","","true","0","80_20_practice","",""
"","bandit","30","439774","0.0-18.0-12.0","87417917","wem/bandit_party_1","A1DJBDVXF6Z1KK","either","6","324","","","","","","","0","0","1","0.2","","0.5","0.5","","","","","","","0.8","0.2","","","","","","","","","","","","75","K","1","","true","0","80_20_practice","",""
"","bandit","31","442060","0.0-18.0-13.0","87417917","wem/bandit_party_1","A1DJBDVXF6Z1KK","either","6","776","","","","","","","0","0","1","","0.2","0.5","0.5","","","0.8","0.2","","","","","","","","","","","","","","","","75","K","1","","true","0","80_20_practice","",""
"","bandit","32","443791","0.0-18.0-14.0","87417917","wem/bandit_party_1","A1DJBDVXF6Z1KK","either","6","221","","","","","","","1","0","0","0.8","","0.5","0.5","","","","","","","0.8","0.2","","","","","","","","","","","","74","J","0","img/none_selected_demo.jpg","true","0","80_20_practice","",""
"","bandit","33","445915","0.0-18.0-15.0","87417917","wem/bandit_party_1","A1DJBDVXF6Z1KK","either","6","616","","","","","","","1","0","0","0.8","","0.5","0.5","","","","","","","0.8","0.2","","","","","","","","","","","","74","J","0","img/none_selected_demo.jpg","true","0","80_20_practice","",""
"","bandit","34","448044","0.0-18.0-16.0","87417917","wem/bandit_party_1","A1DJBDVXF6Z1KK","either","6","623","","","","","","","0","0","1","","0.8","0.5","0.5","","","0.8","0.2","","","","","","","","","","","","","","","","74","J","0","img/none_selected_demo.jpg","true","0","80_20_practice","",""
"","bandit","35","449838","0.0-18.0-17.0","87417917","wem/bandit_party_1","A1DJBDVXF6Z1KK","either","6","285","","","","","","","1","0","0","0.8","","0.5","0.5","","","","","","","0.8","0.2","","","","","","","","","","","","74","J","0","img/none_selected_demo.jpg","true","0","80_20_practice","",""
"","bandit","36","451628","0.0-18.0-18.0","87417917","wem/bandit_party_1","A1DJBDVXF6Z1KK","either","6","282","","","","","","","1","0","0","0.8","","0.5","0.5","","","","","","","0.8","0.2","","","","","","","","","","","","74","J","0","img/none_selected_demo.jpg","true","0","80_20_practice","",""
"","bandit","37","453404","0.0-18.0-19.0","87417917","wem/bandit_party_1","A1DJBDVXF6Z1KK","either","6","266","","","","","","","1","0","0","0.8","","0.5","0.5","","","","","","","0.8","0.2","","","","","","","","","","","","74","J","0","img/none_selected_demo.jpg","true","0","80_20_practice","",""
"","text-replacement","38","457405","0.0-19.0","87417917","wem/bandit_party_1","A1DJBDVXF6Z1KK","either","6","3996","","","32","","","","","","","","","","","","","","","","","","","","","","","","","","","","","","","","","","","","","",""
"","bandit","39","460812","0.0-20.0-0.0","87417917","wem/bandit_party_1","A1DJBDVXF6Z1KK","either","6","1896","","","","","","","1","0","0","1","0","","","","","0","1","","","1","0","","","","","","","","","","","","74","J","0","img/none_selected_demo.jpg","true","0","","",""
"","text-replacement","40","462539","0.0-21.0","87417917","wem/bandit_party_1","A1DJBDVXF6Z1KK","either","6","1723","","","32","","","","","","","","","","","","","","","","","","","","","","","","","","","","","","","","","","","","","",""
"","text-replacement","41","463979","0.0-22.0","87417917","wem/bandit_party_1","A1DJBDVXF6Z1KK","either","6","1438","","","32","","","","","","","","","","","","","","","","","","","","","","","","","","","","","","","","","","","","","",""
"","text-replacement","42","471278","0.0-23.0","87417917","wem/bandit_party_1","A1DJBDVXF6Z1KK","either","6","7297","","","32","","","","","","","","","","","","","","","","","","","","","","","","","","","","","","","","","","","","","",""
"","text-replacement","43","474428","0.0-24.0","87417917","wem/bandit_party_1","A1DJBDVXF6Z1KK","either","6","3146","","","32","","","","","","","","","","","","","","","","","","","","","","","","","","","","","","","","","","","","","",""
"","text-replacement","44","476524","0.0-25.0","87417917","wem/bandit_party_1","A1DJBDVXF6Z1KK","either","6","2092","","","32","","","","","","","","","","","","","","","","","","","","","","","","","","","","","","","","","","","","","",""
"","text-replacement","45","477276","0.0-26.0","87417917","wem/bandit_party_1","A1DJBDVXF6Z1KK","either","6","747","","","32","","","","","","","","","","","","","","","","","","","","","","","","","","","","","","","","","","","","","",""
"","text-replacement","46","477805","0.0-27.0","87417917","wem/bandit_party_1","A1DJBDVXF6Z1KK","either","6","524","","","32","","","","","","","","","","","","","","","","","","","","","","","","","","","","","","","","","","","","","",""
"","text-replacement","47","478268","0.0-28.0","87417917","wem/bandit_party_1","A1DJBDVXF6Z1KK","either","6","459","","","32","","","","","","","","","","","","","","","","","","","","","","","","","","","","","","","","","","","","","",""
"","text-replacement","48","478860","0.0-29.0","87417917","wem/bandit_party_1","A1DJBDVXF6Z1KK","either","6","588","","","32","","","","","","","","","","","","","","","","","","","","","","","","","","","","","","","","","","","","","",""
"","text-replacement","49","479388","0.0-30.0","87417917","wem/bandit_party_1","A1DJBDVXF6Z1KK","either","6","525","","","32","","","","","","","","","","","","","","","","","","","","","","","","","","","","","","","","","","","","","",""
"","text-replacement","50","481165","0.0-31.0","87417917","wem/bandit_party_1","A1DJBDVXF6Z1KK","either","6","1772","","","32","","","","","","","","","","","","","","","","","","","","","","","","","","","","","","","","","","","","","",""
"","bandit","51","485056","0.0-32.0-0.0","87417917","wem/bandit_party_1","A1DJBDVXF6Z1KK","either","6","2380","","","","","","","0","1","0","","0.8","0.5","0.5","0.5","0.5","0.8","0.2","0.6","0.2","","","","","","","","","","","","","","72","H","0","img/none_selected.jpg","true","0","full_practice","",""
"","bandit","52","486877","0.0-32.0-1.0","87417917","wem/bandit_party_1","A1DJBDVXF6Z1KK","either","6","307","","","","","","","0","0","1","","0.2","0.5","0.5","0.5","0.5","0.8","0.2","0.6","0.2","","","","","","","","","","","","","","74","J","1","","true","0","full_practice","",""
"","bandit","53","488796","0.0-32.0-2.0","87417917","wem/bandit_party_1","A1DJBDVXF6Z1KK","either","6","411","","","","","","","0","1","0","","0.6","0.5","0.5","0.5","0.5","0.8","0.2","0.6","0.2","","","","","","","","","","","","","","75","K","2","","true","0","full_practice","",""
"","bandit","54","490603","0.0-32.0-3.0","87417917","wem/bandit_party_1","A1DJBDVXF6Z1KK","either","6","299","","","","","","","0","0","1","0.2","","0.5","0.5","0.5","0.5","","","","","0.8","0.2","0.6","0.2","","","","","","","","","","76","L","3","","true","0","full_practice","",""
"","bandit","55","492538","0.0-32.0-4.0","87417917","wem/bandit_party_1","A1DJBDVXF6Z1KK","either","6","426","","","","","","","0","0","1","","0.2","0.5","0.5","0.5","0.5","0.8","0.2","0.6","0.2","","","","","","","","","","","","","","74","J","1","","true","0","full_practice","",""
"","bandit","56","494558","0.0-32.0-5.0","87417917","wem/bandit_party_1","A1DJBDVXF6Z1KK","either","6","507","","","","","","","0","0","1","","0.2","0.5","0.5","0.5","0.5","0.8","0.2","0.6","0.2","","","","","","","","","","","","","","76","L","3","","true","0","full_practice","",""
"","bandit","57","496524","0.0-32.0-6.0","87417917","wem/bandit_party_1","A1DJBDVXF6Z1KK","either","6","457","","","","","","","0","1","0","","0.8","0.5","0.5","0.5","0.5","0.8","0.2","0.6","0.2","","","","","","","","","","","","","","72","H","0","img/none_selected.jpg","true","0","full_practice","",""
"","bandit","58","498349","0.0-32.0-7.0","87417917","wem/bandit_party_1","A1DJBDVXF6Z1KK","either","6","314","","","","","","","0","0","1","","0.2","0.5","0.5","0.5","0.5","0.8","0.2","0.6","0.2","","","","","","","","","","","","","","74","J","1","","true","0","full_practice","",""
"","bandit","59","500157","0.0-32.0-8.0","87417917","wem/bandit_party_1","A1DJBDVXF6Z1KK","either","6","300","","","","","","","1","0","0","0.6","","0.5","0.5","0.5","0.5","","","","","0.8","0.2","0.6","0.2","","","","","","","","","","75","K","2","","true","0","full_practice","",""
"","bandit","60","502026","0.0-32.0-9.0","87417917","wem/bandit_party_1","A1DJBDVXF6Z1KK","either","6","360","","","","","","","1","0","0","0.6","","0.5","0.5","0.5","0.5","","","","","0.8","0.2","0.6","0.2","","","","","","","","","","75","K","2","","true","0","full_practice","",""
"","bandit","61","503819","0.0-32.0-10.0","87417917","wem/bandit_party_1","A1DJBDVXF6Z1KK","either","6","286","","","","","","","0","0","1","0.6","","0.5","0.5","0.5","0.5","","","","","0.8","0.2","0.6","0.2","","","","","","","","","","75","K","2","","true","0","full_practice","",""
"","bandit","62","505610","0.0-32.0-11.0","87417917","wem/bandit_party_1","A1DJBDVXF6Z1KK","either","6","283","","","","","","","0","0","1","0.2","","0.5","0.5","0.5","0.5","","","","","0.8","0.2","0.6","0.2","","","","","","","","","","76","L","3","","true","0","full_practice","",""
"","bandit","63","507403","0.0-32.0-12.0","87417917","wem/bandit_party_1","A1DJBDVXF6Z1KK","either","6","284","","","","","","","0","0","1","","0.6","0.5","0.5","0.5","0.5","0.8","0.2","0.6","0.2","","","","","","","","","","","","","","75","K","2","","true","0","full_practice","",""
"","bandit","64","509101","0.0-32.0-13.0","87417917","wem/bandit_party_1","A1DJBDVXF6Z1KK","either","6","189","","","","","","","0","1","0","","0.6","0.5","0.5","0.5","0.5","0.8","0.2","0.6","0.2","","","","","","","","","","","","","","75","K","2","","true","0","full_practice","",""
"","bandit","65","510798","0.0-32.0-14.0","87417917","wem/bandit_party_1","A1DJBDVXF6Z1KK","either","6","190","","","","","","","0","0","1","","0.2","0.5","0.5","0.5","0.5","0.8","0.2","0.6","0.2","","","","","","","","","","","","","","76","L","3","","true","0","full_practice","",""
"","bandit","66","512540","0.0-32.0-15.0","87417917","wem/bandit_party_1","A1DJBDVXF6Z1KK","either","6","231","","","","","","","1","0","0","0.6","","0.5","0.5","0.5","0.5","","","","","0.8","0.2","0.6","0.2","","","","","","","","","","75","K","2","","true","0","full_practice","",""
"","bandit","67","514443","0.0-32.0-16.0","87417917","wem/bandit_party_1","A1DJBDVXF6Z1KK","either","6","393","","","","","","","0","0","1","","0.6","0.5","0.5","0.5","0.5","0.8","0.2","0.6","0.2","","","","","","","","","","","","","","75","K","2","","true","0","full_practice","",""
"","bandit","68","515982","0.0-32.0-17.0","87417917","wem/bandit_party_1","A1DJBDVXF6Z1KK","either","6","26","","","","","","","0","0","1","0.2","","0.5","0.5","0.5","0.5","","","","","0.8","0.2","0.6","0.2","","","","","","","","","","74","J","1","","true","0","full_practice","",""
"","bandit","69","517888","0.0-32.0-18.0","87417917","wem/bandit_party_1","A1DJBDVXF6Z1KK","either","6","391","","","","","","","0","1","0","","0.6","0.5","0.5","0.5","0.5","0.8","0.2","0.6","0.2","","","","","","","","","","","","","","75","K","2","","true","0","full_practice","",""
"","bandit","70","519708","0.0-32.0-19.0","87417917","wem/bandit_party_1","A1DJBDVXF6Z1KK","either","6","314","","","","","","","0","0","1","","0.2","0.5","0.5","0.5","0.5","0.8","0.2","0.6","0.2","","","","","","","","","","","","","","74","J","1","","true","0","full_practice","",""
"","text","71","523357","0.0-33.0","87417917","wem/bandit_party_1","A1DJBDVXF6Z1KK","either","6","3617","","","32","","","","","","","","","","","","","","","","","","","","","","","","","","","","","","","","","","","","","",""
"","text-replacement","72","538366","0.0-34.0","87417917","wem/bandit_party_1","A1DJBDVXF6Z1KK","either","6","14001","","","32","","","","","","","","","","","","","","","","","","","","","","","","","","","","","","","","","","","","","",""
"","text-replacement","73","598816","0.0-35.0","87417917","wem/bandit_party_1","A1DJBDVXF6Z1KK","either","6","60445","","","32","","","","","","","","","","","","","","","","","","","","","","","","","","","","","","","","","","","","","",""
"","text-replacement","74","600812","0.0-36.0","87417917","wem/bandit_party_1","A1DJBDVXF6Z1KK","either","6","1992","","","32","","","","","","","","","","","","","","","","","","","","","","","","","","","","","","","","","","","","","",""
"","text-replacement","75","603035","0.0-37.0","87417917","wem/bandit_party_1","A1DJBDVXF6Z1KK","either","6","2218","","","32","","","","","","","","","","","","","","","","","","","","","","","","","","","","","","","","","","","","","",""
"","text-replacement","76","604252","0.0-38.0","87417917","wem/bandit_party_1","A1DJBDVXF6Z1KK","either","6","1214","","","32","","","","","","","","","","","","","","","","","","","","","","","","","","","","","","","","","","","","","",""
"","survey-multi-choice-replacement","77","611285","0.0-39.0-0.0","87417917","wem/bandit_party_1","A1DJBDVXF6Z1KK","either","6","7014","","","","","","","","","","","","","","","","","","","","","","","","Money will be added to the pool for <span style='color:red;'>REPUBLICANS</span>","","","","","","","attn_check","","","","","","","","","0",""
"","survey-multi-choice-replacement","78","615298","0.0-40.0-0.0","87417917","wem/bandit_party_1","A1DJBDVXF6Z1KK","either","6","2996","","","","","","","","","","","","","","","","","","","","","","","","Money will be subtracted from the pool for <span style='color:blue;'>DEMOCRATS</span>","","","","","","","attn_check","","","","","","","","","1",""
"","instructions","79","617646","0.0-40.0-1.0-0.0","87417917","wem/bandit_party_1","A1DJBDVXF6Z1KK","either","6","1341","","","","","","","","","","","","","","","","","","","","","","","","","","","","","","","","","","","","","","","","","[{""page_index"":0,""viewing_time"":1339}]"
"","survey-multi-choice-replacement","80","636057","0.0-40.1-0.1","87417917","wem/bandit_party_1","A1DJBDVXF6Z1KK","either","6","17393","","","","","","","","","","","","","","","","","","","","","","","","No money will be added to either pool","","","","","","","attn_check","","","","","","","","","3",""
"","instructions","81","638308","0.0-40.1-1.1-0.1","87417917","wem/bandit_party_1","A1DJBDVXF6Z1KK","either","6","1244","","","","","","","","","","","","","","","","","","","","","","","","","","","","","","","","","","","","","","","","","[{""page_index"":0,""viewing_time"":1244}]"
"","survey-multi-choice-replacement","82","641726","0.0-40.2-0.2","87417917","wem/bandit_party_1","A1DJBDVXF6Z1KK","either","6","2405","","","","","","","","","","","","","","","","","","","","","","","","Equal amounts of money will be added to the pool for <span style='color:red;'>REPUBLICANS</span> and subtracted from the pool for <span style='color:blue;'>DEMOCRATS</span>","","","","","","","attn_check","","","","","","","","","2",""
"","survey-multi-choice-replacement","83","647375","0.0-41.0-0.0","87417917","wem/bandit_party_1","A1DJBDVXF6Z1KK","either","6","4632","","","","","","","","","","","","","","","","","","","","","","","","No money will be added to either pool","","","","","","","attn_check","","","","","","","","","3",""
"","bandit","84","652604","0.0-42.0-0.0","87417917","wem/bandit_party_1","A1DJBDVXF6Z1KK","either","6","2711","","","","","","","0","1","0","","0.4656478179","0.8","0.6","0.2","0.4","0.4656478179","0.1720655487","0.06094066238","0.1734470434","","","","","","","","","","","","","","72","H","0","img/none_selected.jpg","","1","main_expt","",""
"","bandit","85","655035","0.0-43.0-0.0","87417917","wem/bandit_party_1","A1DJBDVXF6Z1KK","either","6","921","","","","","","","0","0","1","","0.1607886358","0.8","0.6","0.2","0.4","0.4661883906","0.1607886358","0.04941180107","0.1582158198","","","","","","","","","","","","","","74","J","1","","","2","main_expt","",""
"","bandit","86","656947","0.0-44.0-0.0","87417917","wem/bandit_party_1","A1DJBDVXF6Z1KK","either","6","395","","","","","","","0","0","1","","0.09066711981","0.8","0.6","0.2","0.4","0.4608397999","0.1825924006","0.09066711981","0.1264016625","","","","","","","","","","","","","","75","K","2","","","3","main_expt","",""
"","bandit","87","658829","0.0-45.0-0.0","87417917","wem/bandit_party_1","A1DJBDVXF6Z1KK","either","6","370","","","","","","","0","0","1","","0.1212924903","0.8","0.6","0.2","0.4","0.4568511376","0.1572982515","0.07815644495","0.1212924903","","","","","","","","","","","","","","76","L","3","","","4","main_expt","",""
"","bandit","88","660655","0.0-46.0-0.0","87417917","wem/bandit_party_1","A1DJBDVXF6Z1KK","either","6","311","","","","","","","0","1","0","","0.06547040057","0.8","0.6","0.2","0.4","0.4576747282","0.1873501432","0.06547040057","0.1603104869","","","","","","","","","","","","","","75","K","2","","","5","main_expt","",""
"","bandit","89","662492","0.0-47.0-0.0","87417917","wem/bandit_party_1","A1DJBDVXF6Z1KK","either","6","326","","","","","","","0","0","1","","0.1484719509","0.8","0.6","0.2","0.4","0.4673201091","0.1484719509","0.09500806419","0.1916070739","","","","","","","","","","","","","","74","J","1","","","6","main_expt","",""
"","bandit","90","664667","0.0-48.0-0.0","87417917","wem/bandit_party_1","A1DJBDVXF6Z1KK","either","6","664","","","","","","","0","0","1","","0.1624213819","0.8","0.6","0.2","0.4","0.4671816856","0.1368680622","0.1156714339","0.1624213819","","","","","","","","","","","","","","76","L","3","","","7","main_expt","",""
"","bandit","91","666491","0.0-49.0-0.0","87417917","wem/bandit_party_1","A1DJBDVXF6Z1KK","either","6","314","","","","","","","0","0","1","","0.08939878806","0.8","0.6","0.2","0.4","0.4577650209","0.1412197478","0.08939878806","0.1529627983","","","","","","","","","","","","","","75","K","2","","","8","main_expt","",""
"","bandit","92","668252","0.0-50.0-0.0","87417917","wem/bandit_party_1","A1DJBDVXF6Z1KK","either","6","254","","","","","","","0","0","1","0.1285241668","","0.8","0.6","0.2","0.4","","","","","0.4538037209","0.1285241668","0.1379609943","0.1638779","","","","","","","","","","74","J","1","","","9","main_expt","",""
"","bandit","93","670127","0.0-51.0-0.0","87417917","wem/bandit_party_1","A1DJBDVXF6Z1KK","either","6","365","","","","","","","0","0","1","","0.1137500729","0.8","0.6","0.2","0.4","0.4567906288","0.1137500729","0.08892925829","0.1682184418","","","","","","","","","","","","","","74","J","1","","","10","main_expt","",""
"","bandit","94","672364","0.0-52.0-0.0","87417917","wem/bandit_party_1","A1DJBDVXF6Z1KK","either","6","722","","","","","","","0","0","1","","0.1511948373","0.8","0.6","0.2","0.4","0.4707556997","0.1134058804","0.1053961985","0.1511948373","","","","","","","","","","","","","","76","L","3","","","11","main_expt","",""
"","bandit","95","674427","0.0-53.0-0.0","87417917","wem/bandit_party_1","A1DJBDVXF6Z1KK","either","6","551","","","","","","","0","0","1","","0.1267534428","0.8","0.6","0.2","0.4","0.4534589675","0.1358134986","0.1267534428","0.2144966391","","","","","","","","","","","","","","75","K","2","","","12","main_expt","",""
"","bandit","96","676924","0.0-54.0-0.0","87417917","wem/bandit_party_1","A1DJBDVXF6Z1KK","either","6","986","","","","","","","0","0","1","","0.1179877152","0.8","0.6","0.2","0.4","0.4474824422","0.1105925571","0.1179877152","0.1443049275","","","","","","","","","","","","","","75","K","2","","","13","main_expt","",""
"","bandit","97","678621","0.0-55.0-0.0","87417917","wem/bandit_party_1","A1DJBDVXF6Z1KK","either","6","184","","","","","","","1","0","0","0.4125602811","","0.8","0.6","0.2","0.4","","","","","0.4125602811","0.09057326494","0.1300626215","0.149160688","","","","","","","","","","72","H","0","img/none_selected.jpg","","14","main_expt","",""
"","bandit","98","680607","0.0-56.0-0.0","87417917","wem/bandit_party_1","A1DJBDVXF6Z1KK","either","6","473","","","","","","","0","0","1","","0.3715785473","0.8","0.6","0.2","0.4","0.3715785473","0.05963436345","0.1129073675","0.1525333278","","","","","","","","","","","","","","72","H","0","img/none_selected.jpg","","15","main_expt","",""
"","bandit","99","682476","0.0-57.0-0.0","87417917","wem/bandit_party_1","A1DJBDVXF6Z1KK","either","6","358","","","","","","","0","0","1","0.3670357029","","0.8","0.6","0.2","0.4","","","","","0.3670357029","0.03970917029","0.1132840383","0.1437253933","","","","","","","","","","72","H","0","img/none_selected.jpg","","16","main_expt","",""
"","bandit","100","684204","0.0-58.0-0.0","87417917","wem/bandit_party_1","A1DJBDVXF6Z1KK","either","6","221","","","","","","","0","0","1","0.03301664506","","0.8","0.6","0.2","0.4","","","","","0.333794799","0.03301664506","0.1530786807","0.1191274054","","","","","","","","","","74","J","1","","","17","main_expt","",""
"","bandit","101","686092","0.0-59.0-0.0","87417917","wem/bandit_party_1","A1DJBDVXF6Z1KK","either","6","368","","","","","","","0","0","1","0.0325619","","0.8","0.6","0.2","0.4","","","","","0.3720862831","0.0325619","0.1367655081","0.1231388663","","","","","","","","","","74","J","1","","","18","main_expt","",""
"","bandit","102","687917","0.0-60.0-0.0","87417917","wem/bandit_party_1","A1DJBDVXF6Z1KK","either","6","313","","","","","","","1","0","0","0.3940248177","","0.8","0.6","0.2","0.4","","","","","0.3940248177","0.05136562407","0.1519969922","0.1014962652","","","","","","","","","","72","H","0","img/none_selected.jpg","","19","main_expt","",""
"","bandit","103","689818","0.0-61.0-0.0","87417917","wem/bandit_party_1","A1DJBDVXF6Z1KK","either","6","393","","","","","","","0","1","0","","0.3980303587","0.8","0.6","0.2","0.4","0.3980303587","0.05620034239","0.2344823222","0.1184271466","","","","","","","","","","","","","","72","H","0","img/none_selected.jpg","","20","main_expt","",""
"","bandit","104","691924","0.0-62.0-0.0","87417917","wem/bandit_party_1","A1DJBDVXF6Z1KK","either","6","587","","","","","","","0","0","1","0.04865895453","","0.8","0.6","0.2","0.4","","","","","0.405953395","0.04865895453","0.2227593861","0.1434190777","","","","","","","","","","74","J","1","","","21","main_expt","",""
"","bandit","105","693707","0.0-63.0-0.0","87417917","wem/bandit_party_1","A1DJBDVXF6Z1KK","either","6","270","","","","","","","0","0","1","0.1831098024","","0.8","0.6","0.2","0.4","","","","","0.37898799","0.05276066643","0.1831098024","0.1323354157","","","","","","","","","","75","K","2","","","22","main_expt","",""
"","bandit","106","695372","0.0-64.0-0.0","87417917","wem/bandit_party_1","A1DJBDVXF6Z1KK","either","6","155","","","","","","","0","0","1","0.1384191998","","0.8","0.6","0.2","0.4","","","","","0.3661255489","0.05284133488","0.1660310818","0.1384191998","","","","","","","","","","76","L","3","","","23","main_expt","",""
"","bandit","107","697149","0.0-65.0-0.0","87417917","wem/bandit_party_1","A1DJBDVXF6Z1KK","either","6","264","","","","","","","0","0","1","0.1395593146","","0.8","0.6","0.2","0.4","","","","","0.3576379461","0.0333904923","0.1400827643","0.1395593146","","","","","","","","","","76","L","3","","","24","main_expt","",""
"","bandit","108","698940","0.0-66.0-0.0","87417917","wem/bandit_party_1","A1DJBDVXF6Z1KK","either","6","280","","","","","","","0","0","1","","0.2022937807","0.8","0.6","0.2","0.4","0.3346121782","0.04666446392","0.2022937807","0.1696236693","","","","","","","","","","","","","","75","K","2","","","25","main_expt","",""
"","bandit","109","700812","0.0-67.0-0.0","87417917","wem/bandit_party_1","A1DJBDVXF6Z1KK","either","6","359","","","","","","","0","0","1","","0.04067930801","0.8","0.6","0.2","0.4","0.3790434843","0.04067930801","0.1725383963","0.1754084838","","","","","","","","","","","","","","74","J","1","","","26","main_expt","",""
"","bandit","110","702671","0.0-68.0-0.0","87417917","wem/bandit_party_1","A1DJBDVXF6Z1KK","either","6","345","","","","","","","0","0","1","0.03070036018","","0.8","0.6","0.2","0.4","","","","","0.3744762435","0.03070036018","0.1735642386","0.118483546","","","","","","","","","","74","J","1","","","27","main_expt","",""
"","bandit","111","704335","0.0-69.0-0.0","87417917","wem/bandit_party_1","A1DJBDVXF6Z1KK","either","6","149","","","","","","","0","0","1","0.3650769418","","0.8","0.6","0.2","0.4","","","","","0.3650769418","0.02292460278","0.149532802","0.1259847853","","","","","","","","","","72","H","0","img/none_selected.jpg","","28","main_expt","",""
"","bandit","112","706159","0.0-70.0-0.0","87417917","wem/bandit_party_1","A1DJBDVXF6Z1KK","either","6","311","","","","","","","1","0","0","0.3299345172","","0.8","0.6","0.2","0.4","","","","","0.3299345172","0.03476379039","0.1597785082","0.1072727049","","","","","","","","","","72","H","0","img/none_selected.jpg","","29","main_expt","",""
"","bandit","113","708043","0.0-71.0-0.0","87417917","wem/bandit_party_1","A1DJBDVXF6Z1KK","either","6","378","","","","","","","0","0","1","0.3010095271","","0.8","0.6","0.2","0.4","","","","","0.3010095271","0.04211589453","0.1978771271","0.07952930744","","","","","","","","","","72","H","0","img/none_selected.jpg","","30","main_expt","",""
"","bandit","114","709836","0.0-72.0-0.0","87417917","wem/bandit_party_1","A1DJBDVXF6Z1KK","either","6","285","","","","","","","1","0","0","0.331530841","","0.8","0.6","0.2","0.4","","","","","0.331530841","0.04495483672","0.1928768267","0.09691030242","","","","","","","","","","72","H","0","img/none_selected.jpg","","31","main_expt","",""
"","bandit","115","711678","0.0-73.0-0.0","87417917","wem/bandit_party_1","A1DJBDVXF6Z1KK","either","6","328","","","","","","","0","0","1","","0.3469043085","0.8","0.6","0.2","0.4","0.3469043085","0.04126869591","0.1511047494","0.1338720944","","","","","","","","","","","","","","72","H","0","img/none_selected.jpg","","32","main_expt","",""
"","bandit","116","713516","0.0-74.0-0.0","87417917","wem/bandit_party_1","A1DJBDVXF6Z1KK","either","6","324","","","","","","","0","0","1","0.2778139242","","0.8","0.6","0.2","0.4","","","","","0.2778139242","0.02396570111","0.09247049486","0.1428203538","","","","","","","","","","72","H","0","img/none_selected.jpg","","33","main_expt","",""
"","bandit","117","715278","0.0-75.0-0.0","87417917","wem/bandit_party_1","A1DJBDVXF6Z1KK","either","6","247","","","","","","","0","0","1","0.236883459","","0.8","0.6","0.2","0.4","","","","","0.236883459","0.03561151332","0.1127946788","0.1258169527","","","","","","","","","","72","H","0","img/none_selected.jpg","","34","main_expt","",""
"","bandit","118","716994","0.0-76.0-0.0","87417917","wem/bandit_party_1","A1DJBDVXF6Z1KK","either","6","200","","","","","","","0","0","1","0.2656196476","","0.8","0.6","0.2","0.4","","","","","0.2656196476","0.04565222073","0.1279928094","0.1652362889","","","","","","","","","","72","H","0","img/none_selected.jpg","","35","main_expt","",""
"","bandit","119","718795","0.0-77.0-0.0","87417917","wem/bandit_party_1","A1DJBDVXF6Z1KK","either","6","287","","","","","","","1","0","0","0.2309028503","","0.8","0.6","0.2","0.4","","","","","0.2309028503","0.05036449293","0.09285608896","0.1472348388","","","","","","","","","","72","H","0","img/none_selected.jpg","","36","main_expt","",""
"","bandit","120","720588","0.0-78.0-0.0","87417917","wem/bandit_party_1","A1DJBDVXF6Z1KK","either","6","279","","","","","","","0","0","1","0.1961267878","","0.8","0.6","0.2","0.4","","","","","0.1961267878","0.04764774511","0.1251507517","0.20581188","","","","","","","","","","72","H","0","img/none_selected.jpg","","37","main_expt","",""
"","bandit","121","722363","0.0-79.0-0.0","87417917","wem/bandit_party_1","A1DJBDVXF6Z1KK","either","6","266","","","","","","","0","0","1","","0.2197692452","0.8","0.6","0.2","0.4","0.2197692452","0.04692466818","0.1248439258","0.2096070571","","","","","","","","","","","","","","72","H","0","img/none_selected.jpg","","38","main_expt","",""
"","bandit","122","724141","0.0-80.0-0.0","87417917","wem/bandit_party_1","A1DJBDVXF6Z1KK","either","6","266","","","","","","","0","0","1","0.1783178102","","0.8","0.6","0.2","0.4","","","","","0.1783178102","0.06150360576","0.1192858938","0.1888903691","","","","","","","","","","72","H","0","img/none_selected.jpg","","39","main_expt","",""
"","bandit","123","725805","0.0-81.0-0.0","87417917","wem/bandit_party_1","A1DJBDVXF6Z1KK","either","6","148","","","","","","","0","0","1","","0.1354267005","0.8","0.6","0.2","0.4","0.1354267005","0.1025324214","0.1457630933","0.1769314034","","","","","","","","","","","","","","72","H","0","img/none_selected.jpg","","40","main_expt","",""
"","bandit","124","727757","0.0-82.0-0.0","87417917","wem/bandit_party_1","A1DJBDVXF6Z1KK","either","6","438","","","","","","","0","0","1","","0.1307301687","0.8","0.6","0.2","0.4","0.1307301687","0.1278282258","0.1788887836","0.1764673912","","","","","","","","","","","","","","72","H","0","img/none_selected.jpg","","41","main_expt","",""
"","bandit","125","729612","0.0-83.0-0.0","87417917","wem/bandit_party_1","A1DJBDVXF6Z1KK","either","6","340","","","","","","","0","0","1","0.1144783829","","0.8","0.6","0.2","0.4","","","","","0.1002459791","0.1144783829","0.1550439797","0.1164002711","","","","","","","","","","74","J","1","","","42","main_expt","",""
"","bandit","126","731565","0.0-84.0-0.0","87417917","wem/bandit_party_1","A1DJBDVXF6Z1KK","either","6","439","","","","","","","0","0","1","0.148274456","","0.8","0.6","0.2","0.4","","","","","0.06131682752","0.148274456","0.1624336935","0.1248357276","","","","","","","","","","74","J","1","","","43","main_expt","",""
"","bandit","127","733322","0.0-85.0-0.0","87417917","wem/bandit_party_1","A1DJBDVXF6Z1KK","either","6","246","","","","","","","0","1","0","","0.2610419313","0.8","0.6","0.2","0.4","0.05757194937","0.1733993608","0.2610419313","0.1801883524","","","","","","","","","","","","","","75","K","2","","","44","main_expt","",""
"","bandit","128","735119","0.0-86.0-0.0","87417917","wem/bandit_party_1","A1DJBDVXF6Z1KK","either","6","289","","","","","","","1","0","0","0.06317169253","","0.8","0.6","0.2","0.4","","","","","0.06317169253","0.1731137141","0.2547096211","0.1536252234","","","","","","","","","","72","H","0","img/none_selected.jpg","","45","main_expt","",""
"","bandit","129","736988","0.0-87.0-0.0","87417917","wem/bandit_party_1","A1DJBDVXF6Z1KK","either","6","355","","","","","","","0","0","1","0.08604650327","","0.8","0.6","0.2","0.4","","","","","0.08604650327","0.2577534017","0.2690630982","0.1453657368","","","","","","","","","","72","H","0","img/none_selected.jpg","","46","main_expt","",""
"","bandit","130","738799","0.0-88.0-0.0","87417917","wem/bandit_party_1","A1DJBDVXF6Z1KK","either","6","299","","","","","","","1","0","0","0.2436059896","","0.8","0.6","0.2","0.4","","","","","0.07503215105","0.2436059896","0.2613787364","0.1163474927","","","","","","","","","","74","J","1","","","47","main_expt","",""
"","bandit","131","740861","0.0-89.0-0.0","87417917","wem/bandit_party_1","A1DJBDVXF6Z1KK","either","6","542","","","","","","","0","0","1","0.261356988","","0.8","0.6","0.2","0.4","","","","","0.09661626413","0.261356988","0.2764851171","0.1187671899","","","","","","","","","","74","J","1","","","48","main_expt","",""
"","bandit","132","742670","0.0-90.0-0.0","87417917","wem/bandit_party_1","A1DJBDVXF6Z1KK","either","6","295","","","","","","","0","0","1","0.141419135","","0.8","0.6","0.2","0.4","","","","","0.141419135","0.2707362224","0.2628846066","0.1321787199","","","","","","","","","","72","H","0","img/none_selected.jpg","","49","main_expt","",""
"","bandit","133","744668","0.0-91.0-0.0","87417917","wem/bandit_party_1","A1DJBDVXF6Z1KK","either","6","484","","","","","","","0","0","1","0.2733601765","","0.8","0.6","0.2","0.4","","","","","0.1341637883","0.2733601765","0.3634831931","0.1310663867","","","","","","","","","","74","J","1","","","50","main_expt","",""
"","bandit","134","746526","0.0-92.0-0.0","87417917","wem/bandit_party_1","A1DJBDVXF6Z1KK","either","6","346","","","","","","","0","0","1","0.1225974466","","0.8","0.6","0.2","0.4","","","","","0.1225974466","0.2590969561","0.3771608335","0.1450472339","","","","","","","","","","72","H","0","img/none_selected.jpg","","51","main_expt","",""
"","bandit","135","748331","0.0-93.0-0.0","87417917","wem/bandit_party_1","A1DJBDVXF6Z1KK","either","6","290","","","","","","","0","0","1","","0.2515646212","0.8","0.6","0.2","0.4","0.1145468474","0.2515646212","0.3093307572","0.1731775471","","","","","","","","","","","","","","74","J","1","","","52","main_expt","",""
"","bandit","136","749901","0.0-94.0-0.0","87417917","wem/bandit_party_1","A1DJBDVXF6Z1KK","either","6","57","","","","","","","0","0","1","0.2258016315","","0.8","0.6","0.2","0.4","","","","","0.1059564611","0.2257746054","0.2990929044","0.2258016315","","","","","","","","","","76","L","3","","","53","main_expt","",""
"","bandit","137","751421","0.0-95.0-0.0","87417917","wem/bandit_party_1","A1DJBDVXF6Z1KK","either","6","5","","","","","","","0","0","1","0.2172527187","","0.8","0.6","0.2","0.4","","","","","0.1090017536","0.2750925763","0.2221679908","0.2172527187","","","","","","","","","","76","L","3","","","54","main_expt","",""
"","bandit","138","753260","0.0-96.0-0.0","87417917","wem/bandit_party_1","A1DJBDVXF6Z1KK","either","6","325","","","","","","","0","1","0","","0.3608357377","0.8","0.6","0.2","0.4","0.1249444004","0.3608357377","0.1886471815","0.1652356872","","","","","","","","","","","","","","74","J","1","","","55","main_expt","",""
"","bandit","139","755069","0.0-97.0-0.0","87417917","wem/bandit_party_1","A1DJBDVXF6Z1KK","either","6","294","","","","","","","0","0","1","0.1576418272","","0.8","0.6","0.2","0.4","","","","","0.09043885587","0.4022545085","0.1973213641","0.1576418272","","","","","","","","","","76","L","3","","","56","main_expt","",""
"","bandit","140","756939","0.0-98.0-0.0","87417917","wem/bandit_party_1","A1DJBDVXF6Z1KK","either","6","362","","","","","","","0","0","1","0.180776926","","0.8","0.6","0.2","0.4","","","","","0.07448640425","0.3867568464","0.2207101474","0.180776926","","","","","","","","","","76","L","3","","","57","main_expt","",""
"","bandit","141","758651","0.0-99.0-0.0","87417917","wem/bandit_party_1","A1DJBDVXF6Z1KK","either","6","199","","","","","","","0","0","1","0.09808879237","","0.8","0.6","0.2","0.4","","","","","0.09808879237","0.3840355114","0.2480089655","0.1489081552","","","","","","","","","","72","H","0","img/none_selected.jpg","","58","main_expt","",""
"","bandit","142","760525","0.0-100.0-0.0","87417917","wem/bandit_party_1","A1DJBDVXF6Z1KK","either","6","359","","","","","","","0","1","0","","0.2667579505","0.8","0.6","0.2","0.4","0.0721355853","0.3617876187","0.2667579505","0.125555473","","","","","","","","","","","","","","75","K","2","","","59","main_expt","",""
"","bandit","143","762332","0.0-101.0-0.0","87417917","wem/bandit_party_1","A1DJBDVXF6Z1KK","either","6","293","","","","","","","0","0","1","0.1228814318","","0.8","0.6","0.2","0.4","","","","","0.08871326978","0.3018070945","0.2637313595","0.1228814318","","","","","","","","","","76","L","3","","","60","main_expt","",""
"","bandit","144","764238","0.0-102.0-0.0","87417917","wem/bandit_party_1","A1DJBDVXF6Z1KK","either","6","397","","","","","","","0","0","1","","0.195834737","0.8","0.6","0.2","0.4","0.1472383223","0.2687465691","0.2400462537","0.195834737","","","","","","","","","","","","","","76","L","3","","","61","main_expt","",""
"","bandit","145","765770","0.0-103.0-0.0","87417917","wem/bandit_party_1","A1DJBDVXF6Z1KK","either","6","25","","","","","","","0","0","1","0.287622952","","0.8","0.6","0.2","0.4","","","","","0.1625866577","0.287622952","0.2396546157","0.1952904108","","","","","","","","","","74","J","1","","","62","main_expt","",""
"","bandit","146","767613","0.0-104.0-0.0","87417917","wem/bandit_party_1","A1DJBDVXF6Z1KK","either","6","329","","","","","","","0","0","1","0.2060093557","","0.8","0.6","0.2","0.4","","","","","0.1196153378","0.2060093557","0.2558687718","0.187392073","","","","","","","","","","74","J","1","","","63","main_expt","",""
"","bandit","147","769548","0.0-105.0-0.0","87417917","wem/bandit_party_1","A1DJBDVXF6Z1KK","either","6","423","","","","","","","0","0","1","0.1865830226","","0.8","0.6","0.2","0.4","","","","","0.1025290435","0.1865830226","0.1789331692","0.1774517964","","","","","","","","","","74","J","1","","","64","main_expt","",""
"","bandit","148","771346","0.0-106.0-0.0","87417917","wem/bandit_party_1","A1DJBDVXF6Z1KK","either","6","277","","","","","","","0","0","1","0.2242960511","","0.8","0.6","0.2","0.4","","","","","0.06637487434","0.2242960511","0.2041721298","0.1956590225","","","","","","","","","","74","J","1","","","65","main_expt","",""
"","bandit","149","772876","0.0-107.0-0.0","87417917","wem/bandit_party_1","A1DJBDVXF6Z1KK","either","6","19","","","","","","","0","0","1","","0.213739571","0.8","0.6","0.2","0.4","0.09888809835","0.213739571","0.1083731131","0.1559932489","","","","","","","","","","","","","","74","J","1","","","66","main_expt","",""
"","bandit","150","775164","0.0-108.0-0.0","87417917","wem/bandit_party_1","A1DJBDVXF6Z1KK","either","6","774","","","","","","","0","0","1","","0.2463093088","0.8","0.6","0.2","0.4","0.08542348091","0.2463093088","0.08148965902","0.1327283285","","","","","","","","","","","","","","74","J","1","","","67","main_expt","",""
"","bandit","151","776924","0.0-109.0-0.0","87417917","wem/bandit_party_1","A1DJBDVXF6Z1KK","either","6","246","","","","","","","0","0","1","","0.05648132023","0.8","0.6","0.2","0.4","0.05648132023","0.1863602012","0.115871946","0.1646421129","","","","","","","","","","","","","","72","H","0","img/none_selected.jpg","","68","main_expt","",""
"","bandit","152","779118","0.0-110.0-0.0","87417917","wem/bandit_party_1","A1DJBDVXF6Z1KK","either","6","679","","","","","","","0","0","1","0.07427448495","","0.8","0.6","0.2","0.4","","","","","0.07427448495","0.1481768435","0.1049465522","0.1879918005","","","","","","","","","","72","H","0","img/none_selected.jpg","","69","main_expt","",""
"","bandit","153","780859","0.0-111.0-0.0","87417917","wem/bandit_party_1","A1DJBDVXF6Z1KK","either","6","233","","","","","","","0","0","1","","0.2062415021","0.8","0.6","0.2","0.4","0.1052870039","0.2062415021","0.1224614501","0.1708527721","","","","","","","","","","","","","","74","J","1","","","70","main_expt","",""
"","bandit","154","782604","0.0-112.0-0.0","87417917","wem/bandit_party_1","A1DJBDVXF6Z1KK","either","6","229","","","","","","","0","0","1","0.2175562698","","0.8","0.6","0.2","0.4","","","","","0.1114501371","0.2175562698","0.1687358413","0.1930923514","","","","","","","","","","74","J","1","","","71","main_expt","",""
"","bandit","155","784846","0.0-113.0-0.0","87417917","wem/bandit_party_1","A1DJBDVXF6Z1KK","either","6","730","","","","","","","0","0","1","","0.2182173038","0.8","0.6","0.2","0.4","0.1282799478","0.2182173038","0.1902964731","0.2289396243","","","","","","","","","","","","","","74","J","1","","","72","main_expt","",""
"","bandit","156","786620","0.0-114.0-0.0","87417917","wem/bandit_party_1","A1DJBDVXF6Z1KK","either","6","261","","","","","","","0","0","1","0.1113050996","","0.8","0.6","0.2","0.4","","","","","0.1113050996","0.1629952044","0.1764690901","0.2223781067","","","","","","","","","","72","H","0","img/none_selected.jpg","","73","main_expt","",""
"","bandit","157","788701","0.0-115.0-0.0","87417917","wem/bandit_party_1","A1DJBDVXF6Z1KK","either","6","560","","","","","","","0","0","1","0.1664819569","","0.8","0.6","0.2","0.4","","","","","0.1573287606","0.2291178652","0.1720288853","0.1664819569","","","","","","","","","","76","L","3","","","74","main_expt","",""
"","bandit","158","790475","0.0-116.0-0.0","87417917","wem/bandit_party_1","A1DJBDVXF6Z1KK","either","6","262","","","","","","","0","0","1","0.1157276324","","0.8","0.6","0.2","0.4","","","","","0.168318459","0.2087405931","0.098780463","0.1157276324","","","","","","","","","","76","L","3","","","75","main_expt","",""
"","bandit","159","792207","0.0-117.0-0.0","87417917","wem/bandit_party_1","A1DJBDVXF6Z1KK","either","6","221","","","","","","","0","0","1","","0.06912044911","0.8","0.6","0.2","0.4","0.131742089","0.1981976751","0.08192786134","0.06912044911","","","","","","","","","","","","","","76","L","3","","","76","main_expt","",""
"","bandit","160","794222","0.0-118.0-0.0","87417917","wem/bandit_party_1","A1DJBDVXF6Z1KK","either","6","498","","","","","","","0","0","1","","0.06151132513","0.8","0.6","0.2","0.4","0.1382621175","0.2302368041","0.03620126105","0.06151132513","","","","","","","","","","","","","","76","L","3","","","77","main_expt","",""
"","bandit","161","796443","0.0-119.0-0.0","87417917","wem/bandit_party_1","A1DJBDVXF6Z1KK","either","6","703","","","","","","","0","0","1","","0.03362754592","0.8","0.6","0.2","0.4","0.1351161864","0.2538269909","0.03362754592","0.08824794056","","","","","","","","","","","","","","75","K","2","","","78","main_expt","",""
"","bandit","162","798284","0.0-120.0-0.0","87417917","wem/bandit_party_1","A1DJBDVXF6Z1KK","either","6","325","","","","","","","0","0","1","","0.03917851348","0.8","0.6","0.2","0.4","0.1125986002","0.221492582","0.03917851348","0.08425003046","","","","","","","","","","","","","","75","K","2","","","79","main_expt","",""
"","bandit","163","800396","0.0-121.0-0.0","87417917","wem/bandit_party_1","A1DJBDVXF6Z1KK","either","6","599","","","","","","","0","0","1","","0.2126184008","0.8","0.6","0.2","0.4","0.1071358869","0.2126184008","0.06916691586","0.1059393704","","","","","","","","","","","","","","74","J","1","","","80","main_expt","",""
"","bandit","164","802751","0.0-122.0-0.0","87417917","wem/bandit_party_1","A1DJBDVXF6Z1KK","either","6","846","","","","","","","0","1","0","","0.1803612399","0.8","0.6","0.2","0.4","0.1410751298","0.1803612399","0.1110223174","0.114990546","","","","","","","","","","","","","","74","J","1","","","81","main_expt","",""
"","bandit","165","804817","0.0-123.0-0.0","87417917","wem/bandit_party_1","A1DJBDVXF6Z1KK","either","6","547","","","","","","","0","0","1","","0.08899533144","0.8","0.6","0.2","0.4","0.1518454263","0.1883980103","0.08899533144","0.1246300745","","","","","","","","","","","","","","75","K","2","","","82","main_expt","",""
"","bandit","166","806669","0.0-124.0-0.0","87417917","wem/bandit_party_1","A1DJBDVXF6Z1KK","either","6","333","","","","","","","0","0","1","","0.1383499545","0.8","0.6","0.2","0.4","0.1285150734","0.2099895667","0.1383499545","0.1523433176","","","","","","","","","","","","","","75","K","2","","","83","main_expt","",""
"","bandit","167","808492","0.0-125.0-0.0","87417917","wem/bandit_party_1","A1DJBDVXF6Z1KK","either","6","309","","","","","","","0","0","1","","0.1815119679","0.8","0.6","0.2","0.4","0.1083679187","0.1760666055","0.1815119679","0.1230513595","","","","","","","","","","","","","","75","K","2","","","84","main_expt","",""
"","bandit","168","810317","0.0-126.0-0.0","87417917","wem/bandit_party_1","A1DJBDVXF6Z1KK","either","6","305","","","","","","","0","0","1","","0.2121304898","0.8","0.6","0.2","0.4","0.08985983991","0.2077415988","0.2121304898","0.1460595132","","","","","","","","","","","","","","75","K","2","","","85","main_expt","",""
"","bandit","169","812141","0.0-127.0-0.0","87417917","wem/bandit_party_1","A1DJBDVXF6Z1KK","either","6","308","","","","","","","0","0","1","","0.1931166697","0.8","0.6","0.2","0.4","0.08377758623","0.1940704576","0.1931166697","0.1578730034","","","","","","","","","","","","","","75","K","2","","","86","main_expt","",""
"","bandit","170","814811","0.0-128.0-0.0","87417917","wem/bandit_party_1","A1DJBDVXF6Z1KK","either","6","1159","","","","","","","0","0","1","","0.1329566931","0.8","0.6","0.2","0.4","0.08340742779","0.1920524506","0.1908876969","0.1329566931","","","","","","","","","","","","","","76","L","3","","","87","main_expt","",""
"","bandit","171","816750","0.0-129.0-0.0","87417917","wem/bandit_party_1","A1DJBDVXF6Z1KK","either","6","422","","","","","","","0","0","1","0.06937011617","","0.8","0.6","0.2","0.4","","","","","0.06937011617","0.2525081946","0.1727332377","0.1156353122","","","","","","","","","","72","H","0","img/none_selected.jpg","","88","main_expt","",""
"","bandit","172","818796","0.0-130.0-0.0","87417917","wem/bandit_party_1","A1DJBDVXF6Z1KK","either","6","526","","","","","","","0","0","1","","0.08556693901","0.8","0.6","0.2","0.4","0.08556693901","0.2476280913","0.1747664758","0.1169245856","","","","","","","","","","","","","","72","H","0","img/none_selected.jpg","","89","main_expt","",""
"","bandit","173","820541","0.0-131.0-0.0","87417917","wem/bandit_party_1","A1DJBDVXF6Z1KK","either","6","229","","","","","","","0","0","1","0.1013294801","","0.8","0.6","0.2","0.4","","","","","0.1013294801","0.2476417222","0.1302891894","0.1276927611","","","","","","","","","","72","H","0","img/none_selected.jpg","","90","main_expt","",""
"","bandit","174","822380","0.0-132.0-0.0","87417917","wem/bandit_party_1","A1DJBDVXF6Z1KK","either","6","322","","","","","","","0","0","1","","0.1633868825","0.8","0.6","0.2","0.4","0.1567130635","0.1875867431","0.1143331172","0.1633868825","","","","","","","","","","","","","","76","L","3","","","91","main_expt","",""
"","bandit","175","824124","0.0-133.0-0.0","87417917","wem/bandit_party_1","A1DJBDVXF6Z1KK","either","6","235","","","","","","","0","0","1","","0.2172033847","0.8","0.6","0.2","0.4","0.1214255195","0.1804963823","0.1674068059","0.2172033847","","","","","","","","","","","","","","76","L","3","","","92","main_expt","",""
"","bandit","176","826092","0.0-134.0-0.0","87417917","wem/bandit_party_1","A1DJBDVXF6Z1KK","either","6","458","","","","","","","0","0","1","0.1317465968","","0.8","0.6","0.2","0.4","","","","","0.1317465968","0.1468121695","0.1405005834","0.2178255547","","","","","","","","","","72","H","0","img/none_selected.jpg","","93","main_expt","",""
"","bandit","177","828188","0.0-135.0-0.0","87417917","wem/bandit_party_1","A1DJBDVXF6Z1KK","either","6","578","","","","","","","0","0","1","","0.1270151289","0.8","0.6","0.2","0.4","0.1810196293","0.1270151289","0.1338278818","0.2058786334","","","","","","","","","","","","","","74","J","1","","","94","main_expt","",""
"","bandit","178","830077","0.0-136.0-0.0","87417917","wem/bandit_party_1","A1DJBDVXF6Z1KK","either","6","373","","","","","","","0","0","1","","0.16416917","0.8","0.6","0.2","0.4","0.1537803575","0.1049494322","0.16416917","0.2009860572","","","","","","","","","","","","","","75","K","2","","","95","main_expt","",""
"","bandit","179","832588","0.0-137.0-0.0","87417917","wem/bandit_party_1","A1DJBDVXF6Z1KK","either","6","1004","","","","","","","1","0","0","0.2255368078","","0.8","0.6","0.2","0.4","","","","","0.2255368078","0.1242023773","0.1075549125","0.2792576191","","","","","","","","","","72","H","0","img/none_selected.jpg","","96","main_expt","",""
"","bandit","180","834846","0.0-138.0-0.0","87417917","wem/bandit_party_1","A1DJBDVXF6Z1KK","either","6","741","","","","","","","0","0","1","","0.1881791955","0.8","0.6","0.2","0.4","0.1881791955","0.101802889","0.07285617598","0.291042229","","","","","","","","","","","","","","72","H","0","img/none_selected.jpg","","97","main_expt","",""
"","bandit","181","837340","0.0-139.0-0.0","87417917","wem/bandit_party_1","A1DJBDVXF6Z1KK","either","6","986","","","","","","","1","0","0","0.1722186849","","0.8","0.6","0.2","0.4","","","","","0.1722186849","0.08559904752","0.1128802937","0.2919937097","","","","","","","","","","72","H","0","img/none_selected.jpg","","98","main_expt","",""
"","bandit","182","839341","0.0-140.0-0.0","87417917","wem/bandit_party_1","A1DJBDVXF6Z1KK","either","6","492","","","","","","","0","0","1","0.2581810796","","0.8","0.6","0.2","0.4","","","","","0.2581810796","0.04480153982","0.07338875894","0.338066437","","","","","","","","","","72","H","0","img/none_selected.jpg","","99","main_expt","",""
"","bandit","183","841854","0.0-141.0-0.0","87417917","wem/bandit_party_1","A1DJBDVXF6Z1KK","either","6","1004","","","","","","","0","0","1","0.3094702251","","0.8","0.6","0.2","0.4","","","","","0.3094702251","0.03694367041","0.06256672301","0.3466775547","","","","","","","","","","72","H","0","img/none_selected.jpg","","100","main_expt","",""
"","bandit","184","844076","0.0-142.0-0.0","87417917","wem/bandit_party_1","A1DJBDVXF6Z1KK","either","6","707","","","","","","","1","0","0","0.3217449289","","0.8","0.6","0.2","0.4","","","","","0.3217449289","0.02534596886","0.06765033746","0.3776837944","","","","","","","","","","72","H","0","img/none_selected.jpg","","101","main_expt","",""
"","bandit","185","846111","0.0-143.0-0.0","87417917","wem/bandit_party_1","A1DJBDVXF6Z1KK","either","6","526","","","","","","","0","0","1","0.3656493725","","0.8","0.6","0.2","0.4","","","","","0.3656493725","0.03456503798","0.08460413752","0.3988278911","","","","","","","","","","72","H","0","img/none_selected.jpg","","102","main_expt","",""
"","bandit","186","847980","0.0-144.0-0.0","87417917","wem/bandit_party_1","A1DJBDVXF6Z1KK","either","6","352","","","","","","","0","0","1","0.4097417878","","0.8","0.6","0.2","0.4","","","","","0.4097417878","0.03116272615","0.1149622558","0.3642388176","","","","","","","","","","72","H","0","img/none_selected.jpg","","103","main_expt","",""
"","bandit","187","849837","0.0-145.0-0.0","87417917","wem/bandit_party_1","A1DJBDVXF6Z1KK","either","6","348","","","","","","","0","0","1","0.4005896235","","0.8","0.6","0.2","0.4","","","","","0.4005896235","0.04034009898","0.1223821921","0.3059376685","","","","","","","","","","72","H","0","img/none_selected.jpg","","104","main_expt","",""
"","bandit","188","851725","0.0-146.0-0.0","87417917","wem/bandit_party_1","A1DJBDVXF6Z1KK","either","6","379","","","","","","","0","0","1","0.3967946647","","0.8","0.6","0.2","0.4","","","","","0.3967946647","0.06132200156","0.1302837569","0.2658022239","","","","","","","","","","72","H","0","img/none_selected.jpg","","105","main_expt","",""
"","bandit","189","853660","0.0-147.0-0.0","87417917","wem/bandit_party_1","A1DJBDVXF6Z1KK","either","6","419","","","","","","","0","0","1","0.3920329447","","0.8","0.6","0.2","0.4","","","","","0.3920329447","0.03171667797","0.1405927316","0.2583534607","","","","","","","","","","72","H","0","img/none_selected.jpg","","106","main_expt","",""
"","bandit","190","855421","0.0-148.0-0.0","87417917","wem/bandit_party_1","A1DJBDVXF6Z1KK","either","6","245","","","","","","","0","0","1","0.3973329777","","0.8","0.6","0.2","0.4","","","","","0.3973329777","0.06603394544","0.1835021143","0.2402432731","","","","","","","","","","72","H","0","img/none_selected.jpg","","107","main_expt","",""
"","bandit","191","857599","0.0-149.0-0.0","87417917","wem/bandit_party_1","A1DJBDVXF6Z1KK","either","6","660","","","","","","","0","0","1","0.3839010997","","0.8","0.6","0.2","0.4","","","","","0.3839010997","0.08137973005","0.2124513917","0.2364509509","","","","","","","","","","72","H","0","img/none_selected.jpg","","108","main_expt","",""
"","bandit","192","859597","0.0-150.0-0.0","87417917","wem/bandit_party_1","A1DJBDVXF6Z1KK","either","6","482","","","","","","","0","0","1","","0.3879107289","0.8","0.6","0.2","0.4","0.3879107289","0.04765661509","0.218007314","0.2164051194","","","","","","","","","","","","","","72","H","0","img/none_selected.jpg","","109","main_expt","",""
"","bandit","193","861708","0.0-151.0-0.0","87417917","wem/bandit_party_1","A1DJBDVXF6Z1KK","either","6","592","","","","","","","1","0","0","0.3989855113","","0.8","0.6","0.2","0.4","","","","","0.3989855113","0.06789381979","0.229469423","0.1611838666","","","","","","","","","","72","H","0","img/none_selected.jpg","","110","main_expt","",""
"","bandit","194","864637","0.0-152.0-0.0","87417917","wem/bandit_party_1","A1DJBDVXF6Z1KK","either","6","1415","","","","","","","0","0","1","0.3959495959","","0.8","0.6","0.2","0.4","","","","","0.3959495959","0.08972795074","0.2923436213","0.2042622235","","","","","","","","","","72","H","0","img/none_selected.jpg","","111","main_expt","",""
"","bandit","195","866956","0.0-153.0-0.0","87417917","wem/bandit_party_1","A1DJBDVXF6Z1KK","either","6","804","","","","","","","0","0","1","0.335596647","","0.8","0.6","0.2","0.4","","","","","0.335596647","0.1176683061","0.2778802509","0.2113733305","","","","","","","","","","72","H","0","img/none_selected.jpg","","112","main_expt","",""
"","bandit","196","868750","0.0-154.0-0.0","87417917","wem/bandit_party_1","A1DJBDVXF6Z1KK","either","6","283","","","","","","","0","0","1","0.2876347753","","0.8","0.6","0.2","0.4","","","","","0.2876347753","0.1973953549","0.2852166322","0.220236308","","","","","","","","","","72","H","0","img/none_selected.jpg","","113","main_expt","",""
"","bandit","197","872091","0.0-155.0-0.0","87417917","wem/bandit_party_1","A1DJBDVXF6Z1KK","either","6","1834","","","","","","","0","1","0","","0.2811359795","0.8","0.6","0.2","0.4","0.2811359795","0.200840576","0.3222351196","0.2453392608","","","","","","","","","","","","","","72","H","0","img/none_selected.jpg","","114","main_expt","",""
"","bandit","198","874301","0.0-156.0-0.0","87417917","wem/bandit_party_1","A1DJBDVXF6Z1KK","either","6","701","","","","","","","1","0","0","0.2056035349","","0.8","0.6","0.2","0.4","","","","","0.2056035349","0.2544006126","0.2865303103","0.2311931225","","","","","","","","","","72","H","0","img/none_selected.jpg","","115","main_expt","",""
"","bandit","199","876475","0.0-157.0-0.0","87417917","wem/bandit_party_1","A1DJBDVXF6Z1KK","either","6","660","","","","","","","1","0","0","0.2435386161","","0.8","0.6","0.2","0.4","","","","","0.2435386161","0.2264812366","0.1901772154","0.2290532582","","","","","","","","","","72","H","0","img/none_selected.jpg","","116","main_expt","",""
"","bandit","200","879679","0.0-158.0-0.0","87417917","wem/bandit_party_1","A1DJBDVXF6Z1KK","either","6","1695","","","","","","","0","0","1","0.2523066444","","0.8","0.6","0.2","0.4","","","","","0.2523066444","0.2535822563","0.1854727963","0.2610634121","","","","","","","","","","72","H","0","img/none_selected.jpg","","117","main_expt","",""
"","bandit","201","884188","0.0-159.0-0.0","87417917","wem/bandit_party_1","A1DJBDVXF6Z1KK","either","6","2992","","","","","","","0","0","1","0.258758296","","0.8","0.6","0.2","0.4","","","","","0.258758296","0.288462609","0.223078523","0.2915584027","","","","","","","","","","72","H","0","img/none_selected.jpg","","118","main_expt","",""
"","bandit","202","886987","0.0-160.0-0.0","87417917","wem/bandit_party_1","A1DJBDVXF6Z1KK","either","6","1282","","","","","","","1","0","0","0.2513882557","","0.8","0.6","0.2","0.4","","","","","0.2513882557","0.3077733757","0.2157898803","0.3240034744","","","","","","","","","","72","H","0","img/none_selected.jpg","","119","main_expt","",""
"","bandit","203","891246","0.0-161.0-0.0","87417917","wem/bandit_party_1","A1DJBDVXF6Z1KK","either","6","2742","","","","","","","0","0","1","0.2178230887","","0.8","0.6","0.2","0.4","","","","","0.2178230887","0.3470363664","0.2055853597","0.3584552205","","","","","","","","","","72","H","0","img/none_selected.jpg","","120","main_expt","",""
"","bandit","204","893932","0.0-162.0-0.0","87417917","wem/bandit_party_1","A1DJBDVXF6Z1KK","either","6","1178","","","","","","","0","0","1","0.2249913612","","0.8","0.6","0.2","0.4","","","","","0.2249913612","0.36369082","0.2308362602","0.3392259721","","","","","","","","","","72","H","0","img/none_selected.jpg","","121","main_expt","",""
"","bandit","205","897230","0.0-163.0-0.0","87417917","wem/bandit_party_1","A1DJBDVXF6Z1KK","either","6","1782","","","","","","","1","0","0","0.2135386538","","0.8","0.6","0.2","0.4","","","","","0.2135386538","0.3740977319","0.1858821776","0.3211990091","","","","","","","","","","72","H","0","img/none_selected.jpg","","122","main_expt","",""
"","bandit","206","900091","0.0-164.0-0.0","87417917","wem/bandit_party_1","A1DJBDVXF6Z1KK","either","6","1346","","","","","","","1","0","0","0.2742148462","","0.8","0.6","0.2","0.4","","","","","0.2742148462","0.3617230251","0.1948645322","0.3082515077","","","","","","","","","","72","H","0","img/none_selected.jpg","","123","main_expt","",""
"","bandit","207","902111","0.0-165.0-0.0","87417917","wem/bandit_party_1","A1DJBDVXF6Z1KK","either","6","503","","","","","","","0","0","1","","0.3092488957","0.8","0.6","0.2","0.4","0.3092488957","0.3189133642","0.1875433284","0.3337980485","","","","","","","","","","","","","","72","H","0","img/none_selected.jpg","","124","main_expt","",""
"","bandit","208","904843","0.0-166.0-0.0","87417917","wem/bandit_party_1","A1DJBDVXF6Z1KK","either","6","1218","","","","","","","0","0","1","0.2832498899","","0.8","0.6","0.2","0.4","","","","","0.2832498899","0.3134342975","0.1805360773","0.2815584253","","","","","","","","","","72","H","0","img/none_selected.jpg","","125","main_expt","",""
"","bandit","209","907035","0.0-167.0-0.0","87417917","wem/bandit_party_1","A1DJBDVXF6Z1KK","either","6","680","","","","","","","0","0","1","","0.321902755","0.8","0.6","0.2","0.4","0.321902755","0.2889117865","0.2199741614","0.2544389989","","","","","","","","","","","","","","72","H","0","img/none_selected.jpg","","126","main_expt","",""
"","bandit","210","911981","0.0-168.0-0.0","87417917","wem/bandit_party_1","A1DJBDVXF6Z1KK","either","6","3428","","","","","","","0","0","1","0.3163630435","","0.8","0.6","0.2","0.4","","","","","0.3163630435","0.3101500906","0.212963778","0.217883989","","","","","","","","","","72","H","0","img/none_selected.jpg","","127","main_expt","",""
"","bandit","211","914513","0.0-169.0-0.0","87417917","wem/bandit_party_1","A1DJBDVXF6Z1KK","either","6","1023","","","","","","","0","0","1","0.3242789072","","0.8","0.6","0.2","0.4","","","","","0.3242789072","0.3257933697","0.1853882534","0.1941215274","","","","","","","","","","72","H","0","img/none_selected.jpg","","128","main_expt","",""
"","bandit","212","916381","0.0-170.0-0.0","87417917","wem/bandit_party_1","A1DJBDVXF6Z1KK","either","6","358","","","","","","","1","0","0","0.3430844202","","0.8","0.6","0.2","0.4","","","","","0.3430844202","0.2767822115","0.1486900389","0.2093197904","","","","","","","","","","72","H","0","img/none_selected.jpg","","129","main_expt","",""
"","bandit","213","919518","0.0-171.0-0.0","87417917","wem/bandit_party_1","A1DJBDVXF6Z1KK","either","6","1620","","","","","","","0","0","1","0.3487272729","","0.8","0.6","0.2","0.4","","","","","0.3487272729","0.3389859305","0.1581202816","0.2325895014","","","","","","","","","","72","H","0","img/none_selected.jpg","","130","main_expt","",""
"","bandit","214","921483","0.0-172.0-0.0","87417917","wem/bandit_party_1","A1DJBDVXF6Z1KK","either","6","455","","","","","","","0","0","1","0.3850752379","","0.8","0.6","0.2","0.4","","","","","0.3850752379","0.2807576759","0.1189605486","0.2680880231","","","","","","","","","","72","H","0","img/none_selected.jpg","","131","main_expt","",""
"","bandit","215","923004","0.0-173.0-0.0","87417917","wem/bandit_party_1","A1DJBDVXF6Z1KK","either","6","4","","","","","","","0","0","1","0.3547422913","","0.8","0.6","0.2","0.4","","","","","0.3547422913","0.2044414959","0.08638656351","0.2053564998","","","","","","","","","","72","H","0","img/none_selected.jpg","","132","main_expt","",""
"","bandit","216","924891","0.0-174.0-0.0","87417917","wem/bandit_party_1","A1DJBDVXF6Z1KK","either","6","380","","","","","","","0","0","1","","0.3256782816","0.8","0.6","0.2","0.4","0.3256782816","0.2352631215","0.104542274","0.2102644512","","","","","","","","","","","","","","72","H","0","img/none_selected.jpg","","133","main_expt","",""
"","bandit","217","927359","0.0-175.0-0.0","87417917","wem/bandit_party_1","A1DJBDVXF6Z1KK","either","6","955","","","","","","","0","0","1","0.2479378245","","0.8","0.6","0.2","0.4","","","","","0.2479378245","0.2808822736","0.1401790922","0.2028105977","","","","","","","","","","72","H","0","img/none_selected.jpg","","134","main_expt","",""
"","bandit","218","929468","0.0-176.0-0.0","87417917","wem/bandit_party_1","A1DJBDVXF6Z1KK","either","6","592","","","","","","","0","0","1","0.24301602","","0.8","0.6","0.2","0.4","","","","","0.24301602","0.3053704558","0.1818128853","0.1556880781","","","","","","","","","","72","H","0","img/none_selected.jpg","","135","main_expt","",""
"","bandit","219","932604","0.0-177.0-0.0","87417917","wem/bandit_party_1","A1DJBDVXF6Z1KK","either","6","1619","","","","","","","0","0","1","","0.2630427063","0.8","0.6","0.2","0.4","0.2630427063","0.3140058771","0.1583738081","0.1428421262","","","","","","","","","","","","","","72","H","0","img/none_selected.jpg","","136","main_expt","",""
"","bandit","220","935920","0.0-178.0-0.0","87417917","wem/bandit_party_1","A1DJBDVXF6Z1KK","either","6","1796","","","","","","","0","0","1","0.3053425806","","0.8","0.6","0.2","0.4","","","","","0.3053425806","0.323699752","0.1497920091","0.1039390038","","","","","","","","","","72","H","0","img/none_selected.jpg","","137","main_expt","",""
"","bandit","221","938637","0.0-179.0-0.0","87417917","wem/bandit_party_1","A1DJBDVXF6Z1KK","either","6","1199","","","","","","","1","0","0","0.3588623722","","0.8","0.6","0.2","0.4","","","","","0.3588623722","0.3435108126","0.1128601551","0.07132433681","","","","","","","","","","72","H","0","img/none_selected.jpg","","138","main_expt","",""
"","bandit","222","943772","0.0-180.0-0.0","87417917","wem/bandit_party_1","A1DJBDVXF6Z1KK","either","6","3618","","","","","","","0","1","0","","0.2762704672","0.8","0.6","0.2","0.4","0.2762704672","0.3505637202","0.1073604677","0.1047165976","","","","","","","","","","","","","","72","H","0","img/none_selected.jpg","","139","main_expt","",""
"","bandit","223","946300","0.0-181.0-0.0","87417917","wem/bandit_party_1","A1DJBDVXF6Z1KK","either","6","1008","","","","","","","0","0","1","0.2475753012","","0.8","0.6","0.2","0.4","","","","","0.2475753012","0.4185251601","0.1376710563","0.09043849554","","","","","","","","","","72","H","0","img/none_selected.jpg","","140","main_expt","",""
"","bandit","224","948636","0.0-182.0-0.0","87417917","wem/bandit_party_1","A1DJBDVXF6Z1KK","either","6","820","","","","","","","0","0","1","","0.2436306075","0.8","0.6","0.2","0.4","0.2436306075","0.4225289085","0.1412662962","0.05096505815","","","","","","","","","","","","","","72","H","0","img/none_selected.jpg","","141","main_expt","",""
"","bandit","225","952924","0.0-183.0-0.0","87417917","wem/bandit_party_1","A1DJBDVXF6Z1KK","either","6","2775","","","","","","","0","0","1","0.1998899021","","0.8","0.6","0.2","0.4","","","","","0.1998899021","0.455259632","0.1543424817","0.02973759478","","","","","","","","","","72","H","0","img/none_selected.jpg","","142","main_expt","",""
"","bandit","226","958048","0.0-184.0-0.0","87417917","wem/bandit_party_1","A1DJBDVXF6Z1KK","either","6","3606","","","","","","","0","0","1","0.2568100034","","0.8","0.6","0.2","0.4","","","","","0.2568100034","0.4287003803","0.1552636118","0.04457260366","","","","","","","","","","72","H","0","img/none_selected.jpg","","143","main_expt","",""
"","bandit","227","960732","0.0-185.0-0.0","87417917","wem/bandit_party_1","A1DJBDVXF6Z1KK","either","6","1168","","","","","","","0","0","1","0.2859833531","","0.8","0.6","0.2","0.4","","","","","0.2859833531","0.4260506414","0.2241753426","0.04060115041","","","","","","","","","","72","H","0","img/none_selected.jpg","","144","main_expt","",""
"","bandit","228","962347","0.0-186.0-0.0","87417917","wem/bandit_party_1","A1DJBDVXF6Z1KK","either","6","98","","","","","","","0","0","1","0.2080640158","","0.8","0.6","0.2","0.4","","","","","0.2080640158","0.4202170594","0.2484131349","0.06712401514","","","","","","","","","","72","H","0","img/none_selected.jpg","","145","main_expt","",""
"","bandit","229","964269","0.0-187.0-0.0","87417917","wem/bandit_party_1","A1DJBDVXF6Z1KK","either","6","411","","","","","","","0","0","1","0.2469639643","","0.8","0.6","0.2","0.4","","","","","0.2469639643","0.4333226383","0.2905032103","0.08780921534","","","","","","","","","","72","H","0","img/none_selected.jpg","","146","main_expt","",""
"","bandit","230","966269","0.0-188.0-0.0","87417917","wem/bandit_party_1","A1DJBDVXF6Z1KK","either","6","483","","","","","","","0","0","1","0.4340954059","","0.8","0.6","0.2","0.4","","","","","0.2169279296","0.4340954059","0.2846703457","0.1333368233","","","","","","","","","","74","J","1","","","147","main_expt","",""
"","bandit","231","968090","0.0-189.0-0.0","87417917","wem/bandit_party_1","A1DJBDVXF6Z1KK","either","6","306","","","","","","","0","0","1","0.3903754431","","0.8","0.6","0.2","0.4","","","","","0.1248284812","0.3903754431","0.3010433131","0.09264147873","","","","","","","","","","74","J","1","","","148","main_expt","",""
"","bandit","232","970156","0.0-190.0-0.0","87417917","wem/bandit_party_1","A1DJBDVXF6Z1KK","either","6","557","","","","","","","0","0","1","","0.3421268102","0.8","0.6","0.2","0.4","0.1498862571","0.4161192262","0.3421268102","0.123708687","","","","","","","","","","","","","","75","K","2","","","149","main_expt","",""
"","bandit","233","972892","0.0-191.0-0.0","87417917","wem/bandit_party_1","A1DJBDVXF6Z1KK","either","6","1229","","","","","","","0","0","1","0.1087811601","","0.8","0.6","0.2","0.4","","","","","0.2044632824","0.4545257836","0.3382865341","0.1087811601","","","","","","","","","","76","L","3","","","150","main_expt","",""
"","bandit","234","975227","0.0-192.0-0.0","87417917","wem/bandit_party_1","A1DJBDVXF6Z1KK","either","6","815","","","","","","","0","0","1","","0.3031951358","0.8","0.6","0.2","0.4","0.1630699797","0.4553704948","0.3031951358","0.1640336927","","","","","","","","","","","","","","75","K","2","","","151","main_expt","",""
"","bandit","235","981169","0.0-193.0-0.0","87417917","wem/bandit_party_1","A1DJBDVXF6Z1KK","either","6","4427","","","","","","","0","0","1","","0.3163498213","0.8","0.6","0.2","0.4","0.1534962237","0.4692720684","0.3163498213","0.1474195158","","","","","","","","","","","","","","75","K","2","","","152","main_expt","",""
"","bandit","236","983788","0.0-194.0-0.0","87417917","wem/bandit_party_1","A1DJBDVXF6Z1KK","either","6","1094","","","","","","","0","0","1","0.4794448159","","0.8","0.6","0.2","0.4","","","","","0.1506701345","0.4794448159","0.3205280093","0.1200421148","","","","","","","","","","74","J","1","","","153","main_expt","",""
"","bandit","237","985373","0.0-195.0-0.0","87417917","wem/bandit_party_1","A1DJBDVXF6Z1KK","either","6","68","","","","","","","0","0","1","0.1295208369","","0.8","0.6","0.2","0.4","","","","","0.1810992197","0.4762011242","0.2780981807","0.1295208369","","","","","","","","","","76","L","3","","","154","main_expt","",""
"","bandit","238","988155","0.0-196.0-0.0","87417917","wem/bandit_party_1","A1DJBDVXF6Z1KK","either","6","1264","","","","","","","0","0","1","","0.2543788853","0.8","0.6","0.2","0.4","0.2574031695","0.4797315341","0.2543788853","0.1189574303","","","","","","","","","","","","","","75","K","2","","","155","main_expt","",""
"","bandit","239","991644","0.0-197.0-0.0","87417917","wem/bandit_party_1","A1DJBDVXF6Z1KK","either","6","1978","","","","","","","1","0","0","0.4815153028","","0.8","0.6","0.2","0.4","","","","","0.1838662476","0.4815153028","0.2601772157","0.1511338071","","","","","","","","","","74","J","1","","","156","main_expt","",""
"","bandit","240","995181","0.0-198.0-0.0","87417917","wem/bandit_party_1","A1DJBDVXF6Z1KK","either","6","2028","","","","","","","0","0","1","","0.27050514","0.8","0.6","0.2","0.4","0.1951262555","0.4769669351","0.27050514","0.1494559257","","","","","","","","","","","","","","75","K","2","","","157","main_expt","",""
"","bandit","241","997549","0.0-199.0-0.0","87417917","wem/bandit_party_1","A1DJBDVXF6Z1KK","either","6","850","","","","","","","0","0","1","0.4819637572","","0.8","0.6","0.2","0.4","","","","","0.1711173681","0.4819637572","0.2912044809","0.1398300683","","","","","","","","","","74","J","1","","","158","main_expt","",""
"","bandit","242","999868","0.0-200.0-0.0","87417917","wem/bandit_party_1","A1DJBDVXF6Z1KK","either","6","801","","","","","","","0","0","1","0.4802617926","","0.8","0.6","0.2","0.4","","","","","0.1262927185","0.4802617926","0.2863852675","0.1482700517","","","","","","","","","","74","J","1","","","159","main_expt","",""
"","bandit","243","1003007","0.0-201.0-0.0","87417917","wem/bandit_party_1","A1DJBDVXF6Z1KK","either","6","1616","","","","","","","1","0","0","0.4834703177","","0.8","0.6","0.2","0.4","","","","","0.1289005464","0.4834703177","0.3188379944","0.1327856751","","","","","","","","","","74","J","1","","","160","main_expt","",""
"","bandit","244","1004988","0.0-202.0-0.0","87417917","wem/bandit_party_1","A1DJBDVXF6Z1KK","either","6","472","","","","","","","0","0","1","","0.3918259889","0.8","0.6","0.2","0.4","0.07062595825","0.4783639554","0.3918259889","0.1936248495","","","","","","","","","","","","","","75","K","2","","","161","main_expt","",""
"","bandit","245","1007483","0.0-203.0-0.0","87417917","wem/bandit_party_1","A1DJBDVXF6Z1KK","either","6","978","","","","","","","0","0","1","","0.3825352776","0.8","0.6","0.2","0.4","0.08554885259","0.4702379588","0.3825352776","0.1917288119","","","","","","","","","","","","","","75","K","2","","","162","main_expt","",""
"","bandit","246","1009884","0.0-204.0-0.0","87417917","wem/bandit_party_1","A1DJBDVXF6Z1KK","either","6","882","","","","","","","0","0","1","","0.4761999765","0.8","0.6","0.2","0.4","0.05790820845","0.4761999765","0.3500114378","0.2410074379","","","","","","","","","","","","","","74","J","1","","","163","main_expt","",""
"","bandit","247","1012077","0.0-205.0-0.0","87417917","wem/bandit_party_1","A1DJBDVXF6Z1KK","either","6","673","","","","","","","0","0","1","","0.3138306729","0.8","0.6","0.2","0.4","0.04744410613","0.4683988395","0.3138306729","0.2717164652","","","","","","","","","","","","","","75","K","2","","","164","main_expt","",""
"","bandit","248","1014989","0.0-206.0-0.0","87417917","wem/bandit_party_1","A1DJBDVXF6Z1KK","either","6","1388","","","","","","","1","0","0","0.4594806004","","0.8","0.6","0.2","0.4","","","","","0.07721988326","0.4594806004","0.3066591237","0.3360488911","","","","","","","","","","74","J","1","","","165","main_expt","",""
"","bandit","249","1020270","0.0-207.0-0.0","87417917","wem/bandit_party_1","A1DJBDVXF6Z1KK","either","6","3763","","","","","","","0","0","1","","0.359337808","0.8","0.6","0.2","0.4","0.09276645858","0.4769271284","0.359337808","0.3288768439","","","","","","","","","","","","","","75","K","2","","","166","main_expt","",""
"","bandit","250","1022077","0.0-208.0-0.0","87417917","wem/bandit_party_1","A1DJBDVXF6Z1KK","either","6","287","","","","","","","0","0","1","0.341079324","","0.8","0.6","0.2","0.4","","","","","0.1092251717","0.4824675089","0.3888119778","0.341079324","","","","","","","","","","76","L","3","","","167","main_expt","",""
"","bandit","251","1023820","0.0-209.0-0.0","87417917","wem/bandit_party_1","A1DJBDVXF6Z1KK","either","6","227","","","","","","","1","0","0","0.4731218304","","0.8","0.6","0.2","0.4","","","","","0.09704797424","0.4731218304","0.3188253523","0.2972081376","","","","","","","","","","74","J","1","","","168","main_expt","",""
"","bandit","252","1025678","0.0-210.0-0.0","87417917","wem/bandit_party_1","A1DJBDVXF6Z1KK","either","6","339","","","","","","","0","0","1","","0.4558692975","0.8","0.6","0.2","0.4","0.1131958007","0.4558692975","0.3035082617","0.2716537329","","","","","","","","","","","","","","74","J","1","","","169","main_expt","",""
"","bandit","253","1027434","0.0-211.0-0.0","87417917","wem/bandit_party_1","A1DJBDVXF6Z1KK","either","6","240","","","","","","","1","0","0","0.424927817","","0.8","0.6","0.2","0.4","","","","","0.1636150477","0.424927817","0.3540810543","0.3705489528","","","","","","","","","","74","J","1","","","170","main_expt","",""
"","bandit","254","1029611","0.0-212.0-0.0","87417917","wem/bandit_party_1","A1DJBDVXF6Z1KK","either","6","668","","","","","","","0","1","0","","0.4254050478","0.8","0.6","0.2","0.4","0.1889182236","0.4254050478","0.2912941695","0.3259531709","","","","","","","","","","","","","","74","J","1","","","171","main_expt","",""
"","bandit","255","1031343","0.0-213.0-0.0","87417917","wem/bandit_party_1","A1DJBDVXF6Z1KK","either","6","213","","","","","","","0","0","1","0.4319935488","","0.8","0.6","0.2","0.4","","","","","0.1494540944","0.4319935488","0.2964718019","0.3253578443","","","","","","","","","","74","J","1","","","172","main_expt","",""
"","bandit","256","1033870","0.0-214.0-0.0","87417917","wem/bandit_party_1","A1DJBDVXF6Z1KK","either","6","1008","","","","","","","0","1","0","","0.4157756128","0.8","0.6","0.2","0.4","0.1700291406","0.4157756128","0.2411205861","0.3133285256","","","","","","","","","","","","","","74","J","1","","","173","main_expt","",""
"","bandit","257","1036269","0.0-215.0-0.0","87417917","wem/bandit_party_1","A1DJBDVXF6Z1KK","either","6","881","","","","","","","0","0","1","0.3650518631","","0.8","0.6","0.2","0.4","","","","","0.2007600912","0.3650518631","0.2132737127","0.3470844982","","","","","","","","","","74","J","1","","","174","main_expt","",""
"","bandit","258","1038239","0.0-216.0-0.0","87417917","wem/bandit_party_1","A1DJBDVXF6Z1KK","either","6","452","","","","","","","0","0","1","0.3583375904","","0.8","0.6","0.2","0.4","","","","","0.1613291475","0.3583375904","0.2722172758","0.3615725976","","","","","","","","","","74","J","1","","","175","main_expt","",""
"","bandit","259","1040288","0.0-217.0-0.0","87417917","wem/bandit_party_1","A1DJBDVXF6Z1KK","either","6","525","","","","","","","0","0","1","","0.3849487833","0.8","0.6","0.2","0.4","0.1618540135","0.3849487833","0.3158297255","0.3592449917","","","","","","","","","","","","","","74","J","1","","","176","main_expt","",""
"","bandit","260","1042529","0.0-218.0-0.0","87417917","wem/bandit_party_1","A1DJBDVXF6Z1KK","either","6","721","","","","","","","0","1","0","","0.3741193846","0.8","0.6","0.2","0.4","0.1337509382","0.3741193846","0.3033070912","0.3614776984","","","","","","","","","","","","","","74","J","1","","","177","main_expt","",""
"","bandit","261","1044684","0.0-219.0-0.0","87417917","wem/bandit_party_1","A1DJBDVXF6Z1KK","either","6","637","","","","","","","0","1","0","","0.3070990366","0.8","0.6","0.2","0.4","0.172909152","0.3704436283","0.3070990366","0.4042649322","","","","","","","","","","","","","","75","K","2","","","178","main_expt","",""
"","bandit","262","1046622","0.0-220.0-0.0","87417917","wem/bandit_party_1","A1DJBDVXF6Z1KK","either","6","429","","","","","","","0","0","1","","0.349206168","0.8","0.6","0.2","0.4","0.2306318455","0.3718647044","0.349206168","0.3626499081","","","","","","","","","","","","","","75","K","2","","","179","main_expt","",""
"","bandit","263","1049037","0.0-221.0-0.0","87417917","wem/bandit_party_1","A1DJBDVXF6Z1KK","either","6","898","","","","","","","1","0","0","0.3533593609","","0.8","0.6","0.2","0.4","","","","","0.2531752843","0.3144845341","0.3533593609","0.365831292","","","","","","","","","","75","K","2","","","180","main_expt","",""
"","bandit","264","1053869","0.0-222.0-0.0","87417917","wem/bandit_party_1","A1DJBDVXF6Z1KK","either","6","3312","","","","","","","0","0","1","0.2995137733","","0.8","0.6","0.2","0.4","","","","","0.2995137733","0.3328992573","0.3792633926","0.3720079561","","","","","","","","","","72","H","0","img/none_selected.jpg","","181","main_expt","",""
"","bandit","265","1055740","0.0-223.0-0.0","87417917","wem/bandit_party_1","A1DJBDVXF6Z1KK","either","6","347","","","","","","","0","1","0","","0.3747751333","0.8","0.6","0.2","0.4","0.2818604164","0.3443004049","0.4170401524","0.3747751333","","","","","","","","","","","","","","76","L","3","","","182","main_expt","",""
"","bandit","266","1057630","0.0-224.0-0.0","87417917","wem/bandit_party_1","A1DJBDVXF6Z1KK","either","6","374","","","","","","","1","0","0","0.4349898381","","0.8","0.6","0.2","0.4","","","","","0.2706787236","0.3572445505","0.4349898381","0.3772869326","","","","","","","","","","75","K","2","","","183","main_expt","",""
"","bandit","267","1059451","0.0-225.0-0.0","87417917","wem/bandit_party_1","A1DJBDVXF6Z1KK","either","6","305","","","","","","","0","1","0","","0.4355724899","0.8","0.6","0.2","0.4","0.2788381055","0.358140682","0.4355724899","0.3719200221","","","","","","","","","","","","","","75","K","2","","","184","main_expt","",""
"","bandit","268","1061226","0.0-226.0-0.0","87417917","wem/bandit_party_1","A1DJBDVXF6Z1KK","either","6","251","","","","","","","0","0","1","","0.2938856532","0.8","0.6","0.2","0.4","0.2591604306","0.2938856532","0.443517249","0.3759280431","","","","","","","","","","","","","","74","J","1","","","185","main_expt","",""
"","bandit","269","1063116","0.0-227.0-0.0","87417917","wem/bandit_party_1","A1DJBDVXF6Z1KK","either","6","370","","","","","","","1","0","0","0.2570442146","","0.8","0.6","0.2","0.4","","","","","0.1717283936","0.2570442146","0.4185550765","0.3686405037","","","","","","","","","","74","J","1","","","186","main_expt","",""
"","bandit","270","1064844","0.0-228.0-0.0","87417917","wem/bandit_party_1","A1DJBDVXF6Z1KK","either","6","214","","","","","","","0","0","1","0.2781151114","","0.8","0.6","0.2","0.4","","","","","0.1399016055","0.2781151114","0.4582246802","0.3693778387","","","","","","","","","","74","J","1","","","187","main_expt","",""
"","bandit","271","1066779","0.0-229.0-0.0","87417917","wem/bandit_party_1","A1DJBDVXF6Z1KK","either","6","414","","","","","","","1","0","0","0.2510368257","","0.8","0.6","0.2","0.4","","","","","0.116743447","0.2510368257","0.4499637214","0.3858781765","","","","","","","","","","74","J","1","","","188","main_expt","",""
"","bandit","272","1069005","0.0-230.0-0.0","87417917","wem/bandit_party_1","A1DJBDVXF6Z1KK","either","6","708","","","","","","","0","0","1","","0.2299291889","0.8","0.6","0.2","0.4","0.09810356538","0.2299291889","0.4681283031","0.353665234","","","","","","","","","","","","","","74","J","1","","","189","main_expt","",""
"","bandit","273","1070908","0.0-231.0-0.0","87417917","wem/bandit_party_1","A1DJBDVXF6Z1KK","either","6","394","","","","","","","0","0","1","","0.2957770397","0.8","0.6","0.2","0.4","0.1333212727","0.2957770397","0.4672384316","0.3702546744","","","","","","","","","","","","","","74","J","1","","","190","main_expt","",""
"","bandit","274","1072764","0.0-232.0-0.0","87417917","wem/bandit_party_1","A1DJBDVXF6Z1KK","either","6","335","","","","","","","0","0","1","0.2806998676","","0.8","0.6","0.2","0.4","","","","","0.07289491444","0.2806998676","0.4633056668","0.3373283559","","","","","","","","","","74","J","1","","","191","main_expt","",""
"","bandit","275","1074652","0.0-233.0-0.0","87417917","wem/bandit_party_1","A1DJBDVXF6Z1KK","either","6","362","","","","","","","0","0","1","0.2578649702","","0.8","0.6","0.2","0.4","","","","","0.09060717316","0.2578649702","0.4701423021","0.3717228864","","","","","","","","","","74","J","1","","","192","main_expt","",""
"","bandit","276","1076413","0.0-234.0-0.0","87417917","wem/bandit_party_1","A1DJBDVXF6Z1KK","either","6","238","","","","","","","0","0","1","","0.3019093773","0.8","0.6","0.2","0.4","0.1038106097","0.3019093773","0.4625827917","0.3861484819","","","","","","","","","","","","","","74","J","1","","","193","main_expt","",""
"","bandit","277","1078188","0.0-235.0-0.0","87417917","wem/bandit_party_1","A1DJBDVXF6Z1KK","either","6","261","","","","","","","1","0","0","0.3028603149","","0.8","0.6","0.2","0.4","","","","","0.1222204007","0.3028603149","0.4480064119","0.3884838939","","","","","","","","","","74","J","1","","","194","main_expt","",""
"","bandit","278","1080030","0.0-236.0-0.0","87417917","wem/bandit_party_1","A1DJBDVXF6Z1KK","either","6","324","","","","","","","0","0","1","0.2933095063","","0.8","0.6","0.2","0.4","","","","","0.1230179676","0.2933095063","0.4263193963","0.4058549971","","","","","","","","","","74","J","1","","","195","main_expt","",""
"","bandit","279","1081869","0.0-237.0-0.0","87417917","wem/bandit_party_1","A1DJBDVXF6Z1KK","either","6","329","","","","","","","1","0","0","0.3333663608","","0.8","0.6","0.2","0.4","","","","","0.1972068901","0.3333663608","0.4399191733","0.3894648227","","","","","","","","","","74","J","1","","","196","main_expt","",""
"","bandit","280","1083679","0.0-238.0-0.0","87417917","wem/bandit_party_1","A1DJBDVXF6Z1KK","either","6","292","","","","","","","0","0","1","0.3472763543","","0.8","0.6","0.2","0.4","","","","","0.2091218652","0.3472763543","0.4303685687","0.3452919481","","","","","","","","","","74","J","1","","","197","main_expt","",""
"","bandit","281","1085515","0.0-239.0-0.0","87417917","wem/bandit_party_1","A1DJBDVXF6Z1KK","either","6","328","","","","","","","0","0","1","0.3420385624","","0.8","0.6","0.2","0.4","","","","","0.2316117542","0.3420385624","0.4166638701","0.3571156804","","","","","","","","","","74","J","1","","","198","main_expt","",""
"","bandit","282","1087308","0.0-240.0-0.0","87417917","wem/bandit_party_1","A1DJBDVXF6Z1KK","either","6","269","","","","","","","1","0","0","0.3009927129","","0.8","0.6","0.2","0.4","","","","","0.1983173389","0.3009927129","0.4166192342","0.3761278261","","","","","","","","","","74","J","1","","","199","main_expt","",""
"","bandit","283","1089147","0.0-241.0-0.0","87417917","wem/bandit_party_1","A1DJBDVXF6Z1KK","either","6","316","","","","","","","0","1","0","","0.2834367318","0.8","0.6","0.2","0.4","0.2275108597","0.2834367318","0.4065109498","0.3623939384","","","","","","","","","","","","","","74","J","1","","","200","main_expt","",""
"","bandit","284","1091022","0.0-242.0-0.0","87417917","wem/bandit_party_1","A1DJBDVXF6Z1KK","either","6","353","","","","","","","1","0","0","0.2305195973","","0.8","0.6","0.2","0.4","","","","","0.2753755663","0.2305195973","0.4210367682","0.3470966653","","","","","","","","","","74","J","1","","","201","main_expt","",""
"","bandit","285","1093100","0.0-243.0-0.0","87417917","wem/bandit_party_1","A1DJBDVXF6Z1KK","either","6","563","","","","","","","0","0","1","0.236439039","","0.8","0.6","0.2","0.4","","","","","0.2867984519","0.236439039","0.4059774394","0.3738670455","","","","","","","","","","74","J","1","","","202","main_expt","",""
"","bandit","286","1095468","0.0-244.0-0.0","87417917","wem/bandit_party_1","A1DJBDVXF6Z1KK","either","6","849","","","","","","","0","0","1","0.207292508","","0.8","0.6","0.2","0.4","","","","","0.227681123","0.207292508","0.4217634448","0.4434414113","","","","","","","","","","74","J","1","","","203","main_expt","",""
"","bandit","287","1097245","0.0-245.0-0.0","87417917","wem/bandit_party_1","A1DJBDVXF6Z1KK","either","6","260","","","","","","","0","0","1","","0.2706274655","0.8","0.6","0.2","0.4","0.2421814767","0.2706274655","0.417590799","0.4363530878","","","","","","","","","","","","","","74","J","1","","","204","main_expt","",""
"","bandit","288","1099388","0.0-246.0-0.0","87417917","wem/bandit_party_1","A1DJBDVXF6Z1KK","either","6","622","","","","","","","1","0","0","0.2688171721","","0.8","0.6","0.2","0.4","","","","","0.2250127273","0.2688171721","0.3892328218","0.4390009565","","","","","","","","","","74","J","1","","","205","main_expt","",""
"","bandit","289","1101181","0.0-247.0-0.0","87417917","wem/bandit_party_1","A1DJBDVXF6Z1KK","either","6","278","","","","","","","0","1","0","","0.2774640617","0.8","0.6","0.2","0.4","0.2148063869","0.2774640617","0.3877758809","0.4606838579","","","","","","","","","","","","","","74","J","1","","","206","main_expt","",""
"","bandit","290","1102956","0.0-248.0-0.0","87417917","wem/bandit_party_1","A1DJBDVXF6Z1KK","either","6","252","","","","","","","0","1","0","","0.31303597","0.8","0.6","0.2","0.4","0.2370073307","0.31303597","0.3344078408","0.4679198071","","","","","","","","","","","","","","74","J","1","","","207","main_expt","",""
"","bandit","291","1104909","0.0-249.0-0.0","87417917","wem/bandit_party_1","A1DJBDVXF6Z1KK","either","6","433","","","","","","","0","0","1","","0.3285414067","0.8","0.6","0.2","0.4","0.1736764344","0.3187850143","0.3285414067","0.4731710197","","","","","","","","","","","","","","75","K","2","","","208","main_expt","",""
"","bandit","292","1106701","0.0-250.0-0.0","87417917","wem/bandit_party_1","A1DJBDVXF6Z1KK","either","6","272","","","","","","","0","0","1","","0.337659841","0.8","0.6","0.2","0.4","0.2033963155","0.3031297305","0.337659841","0.472507437","","","","","","","","","","","","","","75","K","2","","","209","main_expt","",""
"","bandit","293","1108494","0.0-251.0-0.0","87417917","wem/bandit_party_1","A1DJBDVXF6Z1KK","either","6","271","","","","","","","0","1","0","","0.322880172","0.8","0.6","0.2","0.4","0.1849029676","0.3593083662","0.322880172","0.4759946166","","","","","","","","","","","","","","75","K","2","","","210","main_expt","",""
"","bandit","294","1110282","0.0-252.0-0.0","87417917","wem/bandit_party_1","A1DJBDVXF6Z1KK","either","6","267","","","","","","","1","0","0","0.4838002785","","0.8","0.6","0.2","0.4","","","","","0.08033524441","0.3758292662","0.3440981268","0.4838002785","","","","","","","","","","76","L","3","","","211","main_expt","",""
"","bandit","295","1112141","0.0-253.0-0.0","87417917","wem/bandit_party_1","A1DJBDVXF6Z1KK","either","6","343","","","","","","","0","1","0","","0.4871609062","0.8","0.6","0.2","0.4","0.1024936548","0.3771764803","0.3135232579","0.4871609062","","","","","","","","","","","","","","76","L","3","","","212","main_expt","",""
"","bandit","296","1113981","0.0-254.0-0.0","87417917","wem/bandit_party_1","A1DJBDVXF6Z1KK","either","6","320","","","","","","","0","0","1","","0.4829725273","0.8","0.6","0.2","0.4","0.1380366818","0.3935517348","0.328558382","0.4829725273","","","","","","","","","","","","","","76","L","3","","","213","main_expt","",""
"","bandit","297","1115787","0.0-255.0-0.0","87417917","wem/bandit_party_1","A1DJBDVXF6Z1KK","either","6","282","","","","","","","0","0","1","0.4742933803","","0.8","0.6","0.2","0.4","","","","","0.1206441992","0.3792377037","0.3024402918","0.4742933803","","","","","","","","","","76","L","3","","","214","main_expt","",""
"","bandit","298","1117677","0.0-256.0-0.0","87417917","wem/bandit_party_1","A1DJBDVXF6Z1KK","either","6","379","","","","","","","1","0","0","0.4754417465","","0.8","0.6","0.2","0.4","","","","","0.1320715796","0.3364308411","0.3024001881","0.4754417465","","","","","","","","","","76","L","3","","","215","main_expt","",""
"","bandit","299","1120829","0.0-257.0-0.0","87417917","wem/bandit_party_1","A1DJBDVXF6Z1KK","either","6","1630","","","","","","","0","0","1","","0.4764866221","0.8","0.6","0.2","0.4","0.1152906885","0.3348871659","0.2975117226","0.4764866221","","","","","","","","","","","","","","76","L","3","","","216","main_expt","",""
"","bandit","300","1122574","0.0-258.0-0.0","87417917","wem/bandit_party_1","A1DJBDVXF6Z1KK","either","6","223","","","","","","","0","0","1","0.1191406027","","0.8","0.6","0.2","0.4","","","","","0.1191406027","0.321293363","0.3331298207","0.4727866334","","","","","","","","","","72","H","0","img/none_selected.jpg","","217","main_expt","",""
"","bandit","301","1124396","0.0-259.0-0.0","87417917","wem/bandit_party_1","A1DJBDVXF6Z1KK","either","6","313","","","","","","","1","0","0","0.1177717736","","0.8","0.6","0.2","0.4","","","","","0.1177717736","0.3530973922","0.2905667849","0.4664653133","","","","","","","","","","72","H","0","img/none_selected.jpg","","218","main_expt","",""
"","bandit","302","1126329","0.0-260.0-0.0","87417917","wem/bandit_party_1","A1DJBDVXF6Z1KK","either","6","426","","","","","","","0","0","1","","0.1178729669","0.8","0.6","0.2","0.4","0.1178729669","0.3837093308","0.2701708387","0.4636837267","","","","","","","","","","","","","","72","H","0","img/none_selected.jpg","","219","main_expt","",""
"","bandit","303","1128444","0.0-261.0-0.0","87417917","wem/bandit_party_1","A1DJBDVXF6Z1KK","either","6","592","","","","","","","0","0","1","0.1284790336","","0.8","0.6","0.2","0.4","","","","","0.1284790336","0.3651541458","0.2395453957","0.4599900571","","","","","","","","","","72","H","0","img/none_selected.jpg","","220","main_expt","",""
"","bandit","304","1131019","0.0-262.0-0.0","87417917","wem/bandit_party_1","A1DJBDVXF6Z1KK","either","6","1054","","","","","","","0","0","1","0.147465279","","0.8","0.6","0.2","0.4","","","","","0.147465279","0.254085412","0.2770622605","0.4490722186","","","","","","","","","","72","H","0","img/none_selected.jpg","","221","main_expt","",""
"","bandit","305","1133282","0.0-263.0-0.0","87417917","wem/bandit_party_1","A1DJBDVXF6Z1KK","either","6","741","","","","","","","0","0","1","","0.1441925756","0.8","0.6","0.2","0.4","0.1441925756","0.2590796483","0.3390746663","0.4253353094","","","","","","","","","","","","","","72","H","0","img/none_selected.jpg","","222","main_expt","",""
"","bandit","306","1135680","0.0-264.0-0.0","87417917","wem/bandit_party_1","A1DJBDVXF6Z1KK","either","6","871","","","","","","","0","0","1","0.1731110736","","0.8","0.6","0.2","0.4","","","","","0.1731110736","0.2640852941","0.384843876","0.4559825987","","","","","","","","","","72","H","0","img/none_selected.jpg","","223","main_expt","",""
"","bandit","307","1137532","0.0-265.0-0.0","87417917","wem/bandit_party_1","A1DJBDVXF6Z1KK","either","6","330","","","","","","","0","0","1","0.1124600034","","0.8","0.6","0.2","0.4","","","","","0.1124600034","0.2636590797","0.4367619307","0.464560515","","","","","","","","","","72","H","0","img/none_selected.jpg","","224","main_expt","",""
"","bandit","308","1139708","0.0-266.0-0.0","87417917","wem/bandit_party_1","A1DJBDVXF6Z1KK","either","6","652","","","","","","","0","0","1","0.1174510337","","0.8","0.6","0.2","0.4","","","","","0.1174510337","0.3110444069","0.42055701","0.4528378766","","","","","","","","","","72","H","0","img/none_selected.jpg","","225","main_expt","",""
"","bandit","309","1142892","0.0-267.0-0.0","87417917","wem/bandit_party_1","A1DJBDVXF6Z1KK","either","6","1666","","","","","","","0","0","1","0.1494320736","","0.8","0.6","0.2","0.4","","","","","0.1494320736","0.3268768972","0.4282593698","0.4585160156","","","","","","","","","","72","H","0","img/none_selected.jpg","","226","main_expt","",""
"","bandit","310","1146317","0.0-268.0-0.0","87417917","wem/bandit_party_1","A1DJBDVXF6Z1KK","either","6","1905","","","","","","","1","0","0","0.1655037845","","0.8","0.6","0.2","0.4","","","","","0.1655037845","0.3112991039","0.4213985596","0.4525914875","","","","","","","","","","72","H","0","img/none_selected.jpg","","227","main_expt","",""
"","bandit","311","1148987","0.0-269.0-0.0","87417917","wem/bandit_party_1","A1DJBDVXF6Z1KK","either","6","1151","","","","","","","0","0","1","0.1595877114","","0.8","0.6","0.2","0.4","","","","","0.1595877114","0.3481066565","0.4115599459","0.4618810074","","","","","","","","","","72","H","0","img/none_selected.jpg","","228","main_expt","",""
