"consent","trial_type","trial_index","time_elapsed","internal_node_id","subjID","study","MID","cond","drift","rt","responses","button_pressed","key_press","like","value","connected","gems","bombs","no_reward","GemPrChosen","BombPrChosen","GainOverPainPr_0","GainOverPainPr_1","GainOverPainPr_2","GainOverPainPr_3","LosePr_0","LosePr_1","LosePr_2","LosePr_3","WinPr_0","WinPr_1","WinPr_2","WinPr_3","Q0","Q1","Q2","gender","age","ethnicity","label","expt_phase","target","respCharCode","respKey","respChoiceNum","respChoice","practice","trial_counter","trial_label","Q0_index"
"GDM/GDM_behavioral_consent_30min_online.html","consent","0","14603","0.0-0.0","87600101","wem/bandit_party_1","A1HKCTDOTL6C9I","either","8","","","","","","","","","","","","","","","","","","","","","","","","","","","","","","","","","","","","","","","","",""
"","survey-text","1","26988","0.0-1.0","87600101","wem/bandit_party_1","A1HKCTDOTL6C9I","either","8","11374","{""Q0"":""A1HKCTDOTL6C9I""}","","","","","","","","","","","","","","","","","","","","","","","","","","","","","","","","","","","","","","",""
"","button-response","2","30672","0.0-2.0","87600101","wem/bandit_party_1","A1HKCTDOTL6C9I","either","8","2679","","1","","","","","","","","","","","","","","","","","","","","","","","","","","","","","","","","","","","","","",""
"","text-replacement","3","63470","0.0-3.0","87600101","wem/bandit_party_1","A1HKCTDOTL6C9I","either","8","31794","","","32","","","","","","","","","","","","","","","","","","","","","","","","","","","","","","","","","","","","",""
"","text-replacement","4","76550","0.0-4.0","87600101","wem/bandit_party_1","A1HKCTDOTL6C9I","either","8","13077","","","32","","","","","","","","","","","","","","","","","","","","","","","","","","","","","","","","","","","","",""
"","identification","5","88003","0.0-6.0-0.0","87600101","wem/bandit_party_1","A1HKCTDOTL6C9I","either","8","11434","","","","4","4","4","","","","","","","","","","","","","","","","","","","","","","","","pre","identification_pre","the Democratic Party","","","","","","","",""
"","identification","6","98386","0.0-6.0-1.0","87600101","wem/bandit_party_1","A1HKCTDOTL6C9I","either","8","9365","","","","3","2","2","","","","","","","","","","","","","","","","","","","","","","","","pre","identification_pre","the Republican party","","","","","","","",""
"","text-replacement","7","110048","0.0-7.0","87600101","wem/bandit_party_1","A1HKCTDOTL6C9I","either","8","10660","","","32","","","","","","","","","","","","","","","","","","","","","","","","","","","","","","","","","","","","",""
"","text-replacement","8","121330","0.0-8.0","87600101","wem/bandit_party_1","A1HKCTDOTL6C9I","either","8","11279","","","32","","","","","","","","","","","","","","","","","","","","","","","","","","","","","","","","","","","","",""
"","text-replacement","9","134258","0.0-9.0","87600101","wem/bandit_party_1","A1HKCTDOTL6C9I","either","8","12924","","","32","","","","","","","","","","","","","","","","","","","","","","","","","","","","","","","","","","","","",""
"","text-replacement","10","140945","0.0-10.0","87600101","wem/bandit_party_1","A1HKCTDOTL6C9I","either","8","6686","","","32","","","","","","","","","","","","","","","","","","","","","","","","","","","","","","","","","","","","",""
"","text-replacement","11","154363","0.0-11.0","87600101","wem/bandit_party_1","A1HKCTDOTL6C9I","either","8","13416","","","32","","","","","","","","","","","","","","","","","","","","","","","","","","","","","","","","","","","","",""
"","bandit","12","159372","0.0-12.0-0.0","87600101","wem/bandit_party_1","A1HKCTDOTL6C9I","either","8","3498","","","","","","","0","0","1","0","0","","","","","0","","","","0","","","","","","","","","","","","","74","J","0","img/none_selected_demo.jpg","true","0","",""
"","bandit","13","162307","0.0-13.0-0.0","87600101","wem/bandit_party_1","A1HKCTDOTL6C9I","either","8","1427","","","","","","","0","0","1","0","0","","","","","0","","","","0","","","","","","","","","","","","","75","K","0","img/none_selected_demo.jpg","true","0","",""
"","text-replacement","14","173325","0.0-14.0","87600101","wem/bandit_party_1","A1HKCTDOTL6C9I","either","8","11015","","","32","","","","","","","","","","","","","","","","","","","","","","","","","","","","","","","","","","","","",""
"","text-replacement","15","182836","0.0-15.0","87600101","wem/bandit_party_1","A1HKCTDOTL6C9I","either","8","9509","","","32","","","","","","","","","","","","","","","","","","","","","","","","","","","","","","","","","","","","",""
"","text-replacement","16","191590","0.0-16.0","87600101","wem/bandit_party_1","A1HKCTDOTL6C9I","either","8","8752","","","32","","","","","","","","","","","","","","","","","","","","","","","","","","","","","","","","","","","","",""
"","text-replacement","17","196005","0.0-17.0","87600101","wem/bandit_party_1","A1HKCTDOTL6C9I","either","8","4413","","","32","","","","","","","","","","","","","","","","","","","","","","","","","","","","","","","","","","","","",""
"","bandit","18","198724","0.0-18.0-0.0","87600101","wem/bandit_party_1","A1HKCTDOTL6C9I","either","8","1213","","","","","","","1","0","0","0.8","","0.5","0.5","","","","","","","0.8","0.2","","","","","","","","","","","","74","J","0","img/none_selected_demo.jpg","true","0","80_20_practice",""
"","bandit","19","200788","0.0-18.0-1.0","87600101","wem/bandit_party_1","A1HKCTDOTL6C9I","either","8","557","","","","","","","0","0","1","0.2","","0.5","0.5","","","","","","","0.8","0.2","","","","","","","","","","","","75","K","1","","true","0","80_20_practice",""
"","bandit","20","202812","0.0-18.0-2.0","87600101","wem/bandit_party_1","A1HKCTDOTL6C9I","either","8","518","","","","","","","1","0","0","0.8","","0.5","0.5","","","","","","","0.8","0.2","","","","","","","","","","","","74","J","0","img/none_selected_demo.jpg","true","0","80_20_practice",""
"","bandit","21","204983","0.0-18.0-3.0","87600101","wem/bandit_party_1","A1HKCTDOTL6C9I","either","8","663","","","","","","","0","1","0","","0.8","0.5","0.5","","","0.8","0.2","","","","","","","","","","","","","","","","74","J","0","img/none_selected_demo.jpg","true","0","80_20_practice",""
"","bandit","22","206837","0.0-18.0-4.0","87600101","wem/bandit_party_1","A1HKCTDOTL6C9I","either","8","348","","","","","","","1","0","0","0.8","","0.5","0.5","","","","","","","0.8","0.2","","","","","","","","","","","","74","J","0","img/none_selected_demo.jpg","true","0","80_20_practice",""
"","bandit","23","208668","0.0-18.0-5.0","87600101","wem/bandit_party_1","A1HKCTDOTL6C9I","either","8","326","","","","","","","1","0","0","0.8","","0.5","0.5","","","","","","","0.8","0.2","","","","","","","","","","","","74","J","0","img/none_selected_demo.jpg","true","0","80_20_practice",""
"","bandit","24","210821","0.0-18.0-6.0","87600101","wem/bandit_party_1","A1HKCTDOTL6C9I","either","8","646","","","","","","","0","1","0","","0.8","0.5","0.5","","","0.8","0.2","","","","","","","","","","","","","","","","74","J","0","img/none_selected_demo.jpg","true","0","80_20_practice",""
"","bandit","25","212677","0.0-18.0-7.0","87600101","wem/bandit_party_1","A1HKCTDOTL6C9I","either","8","350","","","","","","","0","1","0","","0.8","0.5","0.5","","","0.8","0.2","","","","","","","","","","","","","","","","74","J","0","img/none_selected_demo.jpg","true","0","80_20_practice",""
"","bandit","26","214518","0.0-18.0-8.0","87600101","wem/bandit_party_1","A1HKCTDOTL6C9I","either","8","334","","","","","","","0","1","0","","0.8","0.5","0.5","","","0.8","0.2","","","","","","","","","","","","","","","","74","J","0","img/none_selected_demo.jpg","true","0","80_20_practice",""
"","bandit","27","216687","0.0-18.0-9.0","87600101","wem/bandit_party_1","A1HKCTDOTL6C9I","either","8","663","","","","","","","1","0","0","0.8","","0.5","0.5","","","","","","","0.8","0.2","","","","","","","","","","","","74","J","0","img/none_selected_demo.jpg","true","0","80_20_practice",""
"","bandit","28","218550","0.0-18.0-10.0","87600101","wem/bandit_party_1","A1HKCTDOTL6C9I","either","8","356","","","","","","","0","0","1","","0.8","0.5","0.5","","","0.8","0.2","","","","","","","","","","","","","","","","74","J","0","img/none_selected_demo.jpg","true","0","80_20_practice",""
"","bandit","29","220406","0.0-18.0-11.0","87600101","wem/bandit_party_1","A1HKCTDOTL6C9I","either","8","349","","","","","","","0","1","0","","0.8","0.5","0.5","","","0.8","0.2","","","","","","","","","","","","","","","","74","J","0","img/none_selected_demo.jpg","true","0","80_20_practice",""
"","bandit","30","222606","0.0-18.0-12.0","87600101","wem/bandit_party_1","A1HKCTDOTL6C9I","either","8","693","","","","","","","0","0","1","0.8","","0.5","0.5","","","","","","","0.8","0.2","","","","","","","","","","","","74","J","0","img/none_selected_demo.jpg","true","0","80_20_practice",""
"","bandit","31","224590","0.0-18.0-13.0","87600101","wem/bandit_party_1","A1HKCTDOTL6C9I","either","8","477","","","","","","","0","1","0","","0.8","0.5","0.5","","","0.8","0.2","","","","","","","","","","","","","","","","74","J","0","img/none_selected_demo.jpg","true","0","80_20_practice",""
"","bandit","32","226447","0.0-18.0-14.0","87600101","wem/bandit_party_1","A1HKCTDOTL6C9I","either","8","350","","","","","","","1","0","0","0.8","","0.5","0.5","","","","","","","0.8","0.2","","","","","","","","","","","","74","J","0","img/none_selected_demo.jpg","true","0","80_20_practice",""
"","bandit","33","228263","0.0-18.0-15.0","87600101","wem/bandit_party_1","A1HKCTDOTL6C9I","either","8","310","","","","","","","0","1","0","","0.8","0.5","0.5","","","0.8","0.2","","","","","","","","","","","","","","","","74","J","0","img/none_selected_demo.jpg","true","0","80_20_practice",""
"","bandit","34","230158","0.0-18.0-16.0","87600101","wem/bandit_party_1","A1HKCTDOTL6C9I","either","8","388","","","","","","","0","1","0","","0.8","0.5","0.5","","","0.8","0.2","","","","","","","","","","","","","","","","74","J","0","img/none_selected_demo.jpg","true","0","80_20_practice",""
"","bandit","35","232017","0.0-18.0-17.0","87600101","wem/bandit_party_1","A1HKCTDOTL6C9I","either","8","351","","","","","","","0","1","0","","0.8","0.5","0.5","","","0.8","0.2","","","","","","","","","","","","","","","","74","J","0","img/none_selected_demo.jpg","true","0","80_20_practice",""
"","bandit","36","234135","0.0-18.0-18.0","87600101","wem/bandit_party_1","A1HKCTDOTL6C9I","either","8","612","","","","","","","1","0","0","0.8","","0.5","0.5","","","","","","","0.8","0.2","","","","","","","","","","","","74","J","0","img/none_selected_demo.jpg","true","0","80_20_practice",""
"","bandit","37","235959","0.0-18.0-19.0","87600101","wem/bandit_party_1","A1HKCTDOTL6C9I","either","8","317","","","","","","","0","1","0","","0.8","0.5","0.5","","","0.8","0.2","","","","","","","","","","","","","","","","74","J","0","img/none_selected_demo.jpg","true","0","80_20_practice",""
"","text-replacement","38","240745","0.0-19.0","87600101","wem/bandit_party_1","A1HKCTDOTL6C9I","either","8","4783","","","32","","","","","","","","","","","","","","","","","","","","","","","","","","","","","","","","","","","","",""
"","bandit","39","244736","0.0-20.0-0.0","87600101","wem/bandit_party_1","A1HKCTDOTL6C9I","either","8","2484","","","","","","","1","0","0","1","0","","","","","0","1","","","1","0","","","","","","","","","","","","74","J","0","img/none_selected_demo.jpg","true","0","",""
"","text-replacement","40","249641","0.0-21.0","87600101","wem/bandit_party_1","A1HKCTDOTL6C9I","either","8","4902","","","32","","","","","","","","","","","","","","","","","","","","","","","","","","","","","","","","","","","","",""
"","text-replacement","41","253827","0.0-22.0","87600101","wem/bandit_party_1","A1HKCTDOTL6C9I","either","8","4184","","","32","","","","","","","","","","","","","","","","","","","","","","","","","","","","","","","","","","","","",""
"","text-replacement","42","257353","0.0-23.0","87600101","wem/bandit_party_1","A1HKCTDOTL6C9I","either","8","3524","","","32","","","","","","","","","","","","","","","","","","","","","","","","","","","","","","","","","","","","",""
"","text-replacement","43","262354","0.0-24.0","87600101","wem/bandit_party_1","A1HKCTDOTL6C9I","either","8","4998","","","32","","","","","","","","","","","","","","","","","","","","","","","","","","","","","","","","","","","","",""
"","text-replacement","44","273539","0.0-25.0","87600101","wem/bandit_party_1","A1HKCTDOTL6C9I","either","8","11183","","","32","","","","","","","","","","","","","","","","","","","","","","","","","","","","","","","","","","","","",""
"","text-replacement","45","278355","0.0-26.0","87600101","wem/bandit_party_1","A1HKCTDOTL6C9I","either","8","4813","","","32","","","","","","","","","","","","","","","","","","","","","","","","","","","","","","","","","","","","",""
"","text-replacement","46","283844","0.0-27.0","87600101","wem/bandit_party_1","A1HKCTDOTL6C9I","either","8","5487","","","32","","","","","","","","","","","","","","","","","","","","","","","","","","","","","","","","","","","","",""
"","text-replacement","47","290108","0.0-28.0","87600101","wem/bandit_party_1","A1HKCTDOTL6C9I","either","8","6261","","","32","","","","","","","","","","","","","","","","","","","","","","","","","","","","","","","","","","","","",""
"","text-replacement","48","299349","0.0-29.0","87600101","wem/bandit_party_1","A1HKCTDOTL6C9I","either","8","9238","","","32","","","","","","","","","","","","","","","","","","","","","","","","","","","","","","","","","","","","",""
"","text-replacement","49","301572","0.0-30.0","87600101","wem/bandit_party_1","A1HKCTDOTL6C9I","either","8","2221","","","32","","","","","","","","","","","","","","","","","","","","","","","","","","","","","","","","","","","","",""
"","text-replacement","50","307037","0.0-31.0","87600101","wem/bandit_party_1","A1HKCTDOTL6C9I","either","8","5463","","","32","","","","","","","","","","","","","","","","","","","","","","","","","","","","","","","","","","","","",""
"","bandit","51","309989","0.0-32.0-0.0","87600101","wem/bandit_party_1","A1HKCTDOTL6C9I","either","8","1445","","","","","","","0","1","0","","0.8","0.5","0.5","0.5","0.5","0.8","0.2","0.6","0.2","","","","","","","","","","","","","","72","H","0","img/none_selected.jpg","true","0","full_practice",""
"","bandit","52","311822","0.0-32.0-1.0","87600101","wem/bandit_party_1","A1HKCTDOTL6C9I","either","8","325","","","","","","","1","0","0","0.8","","0.5","0.5","0.5","0.5","","","","","0.8","0.2","0.6","0.2","","","","","","","","","","72","H","0","img/none_selected.jpg","true","0","full_practice",""
"","bandit","53","313660","0.0-32.0-2.0","87600101","wem/bandit_party_1","A1HKCTDOTL6C9I","either","8","330","","","","","","","1","0","0","0.8","","0.5","0.5","0.5","0.5","","","","","0.8","0.2","0.6","0.2","","","","","","","","","","72","H","0","img/none_selected.jpg","true","0","full_practice",""
"","bandit","54","315637","0.0-32.0-3.0","87600101","wem/bandit_party_1","A1HKCTDOTL6C9I","either","8","470","","","","","","","1","0","0","0.8","","0.5","0.5","0.5","0.5","","","","","0.8","0.2","0.6","0.2","","","","","","","","","","72","H","0","img/none_selected.jpg","true","0","full_practice",""
"","bandit","55","317517","0.0-32.0-4.0","87600101","wem/bandit_party_1","A1HKCTDOTL6C9I","either","8","372","","","","","","","0","1","0","","0.8","0.5","0.5","0.5","0.5","0.8","0.2","0.6","0.2","","","","","","","","","","","","","","72","H","0","img/none_selected.jpg","true","0","full_practice",""
"","bandit","56","319431","0.0-32.0-5.0","87600101","wem/bandit_party_1","A1HKCTDOTL6C9I","either","8","404","","","","","","","0","0","1","0.8","","0.5","0.5","0.5","0.5","","","","","0.8","0.2","0.6","0.2","","","","","","","","","","72","H","0","img/none_selected.jpg","true","0","full_practice",""
"","bandit","57","321286","0.0-32.0-6.0","87600101","wem/bandit_party_1","A1HKCTDOTL6C9I","either","8","348","","","","","","","1","0","0","0.2","","0.5","0.5","0.5","0.5","","","","","0.8","0.2","0.6","0.2","","","","","","","","","","74","J","1","","true","0","full_practice",""
"","bandit","58","323071","0.0-32.0-7.0","87600101","wem/bandit_party_1","A1HKCTDOTL6C9I","either","8","276","","","","","","","0","0","1","","0.2","0.5","0.5","0.5","0.5","0.8","0.2","0.6","0.2","","","","","","","","","","","","","","74","J","1","","true","0","full_practice",""
"","bandit","59","325253","0.0-32.0-8.0","87600101","wem/bandit_party_1","A1HKCTDOTL6C9I","either","8","675","","","","","","","0","0","1","0.2","","0.5","0.5","0.5","0.5","","","","","0.8","0.2","0.6","0.2","","","","","","","","","","74","J","1","","true","0","full_practice",""
"","bandit","60","326837","0.0-32.0-9.0","87600101","wem/bandit_party_1","A1HKCTDOTL6C9I","either","8","77","","","","","","","0","0","1","","0.6","0.5","0.5","0.5","0.5","0.8","0.2","0.6","0.2","","","","","","","","","","","","","","75","K","2","","true","0","full_practice",""
"","bandit","61","328894","0.0-32.0-10.0","87600101","wem/bandit_party_1","A1HKCTDOTL6C9I","either","8","550","","","","","","","0","0","1","","0.2","0.5","0.5","0.5","0.5","0.8","0.2","0.6","0.2","","","","","","","","","","","","","","74","J","1","","true","0","full_practice",""
"","bandit","62","330806","0.0-32.0-11.0","87600101","wem/bandit_party_1","A1HKCTDOTL6C9I","either","8","402","","","","","","","1","0","0","0.6","","0.5","0.5","0.5","0.5","","","","","0.8","0.2","0.6","0.2","","","","","","","","","","75","K","2","","true","0","full_practice",""
"","bandit","63","332726","0.0-32.0-12.0","87600101","wem/bandit_party_1","A1HKCTDOTL6C9I","either","8","413","","","","","","","0","0","1","0.6","","0.5","0.5","0.5","0.5","","","","","0.8","0.2","0.6","0.2","","","","","","","","","","75","K","2","","true","0","full_practice",""
"","bandit","64","334679","0.0-32.0-13.0","87600101","wem/bandit_party_1","A1HKCTDOTL6C9I","either","8","445","","","","","","","0","0","1","","0.2","0.5","0.5","0.5","0.5","0.8","0.2","0.6","0.2","","","","","","","","","","","","","","76","L","3","","true","0","full_practice",""
"","bandit","65","336527","0.0-32.0-14.0","87600101","wem/bandit_party_1","A1HKCTDOTL6C9I","either","8","341","","","","","","","0","0","1","","0.2","0.5","0.5","0.5","0.5","0.8","0.2","0.6","0.2","","","","","","","","","","","","","","76","L","3","","true","0","full_practice",""
"","bandit","66","338421","0.0-32.0-15.0","87600101","wem/bandit_party_1","A1HKCTDOTL6C9I","either","8","387","","","","","","","0","1","0","","0.8","0.5","0.5","0.5","0.5","0.8","0.2","0.6","0.2","","","","","","","","","","","","","","72","H","0","img/none_selected.jpg","true","0","full_practice",""
"","bandit","67","340254","0.0-32.0-16.0","87600101","wem/bandit_party_1","A1HKCTDOTL6C9I","either","8","326","","","","","","","0","1","0","","0.8","0.5","0.5","0.5","0.5","0.8","0.2","0.6","0.2","","","","","","","","","","","","","","72","H","0","img/none_selected.jpg","true","0","full_practice",""
"","bandit","68","342039","0.0-32.0-17.0","87600101","wem/bandit_party_1","A1HKCTDOTL6C9I","either","8","277","","","","","","","1","0","0","0.8","","0.5","0.5","0.5","0.5","","","","","0.8","0.2","0.6","0.2","","","","","","","","","","72","H","0","img/none_selected.jpg","true","0","full_practice",""
"","bandit","69","343856","0.0-32.0-18.0","87600101","wem/bandit_party_1","A1HKCTDOTL6C9I","either","8","309","","","","","","","0","1","0","","0.8","0.5","0.5","0.5","0.5","0.8","0.2","0.6","0.2","","","","","","","","","","","","","","72","H","0","img/none_selected.jpg","true","0","full_practice",""
"","bandit","70","345687","0.0-32.0-19.0","87600101","wem/bandit_party_1","A1HKCTDOTL6C9I","either","8","325","","","","","","","0","0","1","","0.8","0.5","0.5","0.5","0.5","0.8","0.2","0.6","0.2","","","","","","","","","","","","","","72","H","0","img/none_selected.jpg","true","0","full_practice",""
"","text","71","349296","0.0-33.0","87600101","wem/bandit_party_1","A1HKCTDOTL6C9I","either","8","3601","","","32","","","","","","","","","","","","","","","","","","","","","","","","","","","","","","","","","","","","",""
"","text-replacement","72","378746","0.0-34.0","87600101","wem/bandit_party_1","A1HKCTDOTL6C9I","either","8","28446","","","32","","","","","","","","","","","","","","","","","","","","","","","","","","","","","","","","","","","","",""
"","text-replacement","73","397915","0.0-35.0","87600101","wem/bandit_party_1","A1HKCTDOTL6C9I","either","8","19167","","","32","","","","","","","","","","","","","","","","","","","","","","","","","","","","","","","","","","","","",""
"","text-replacement","74","405563","0.0-36.0","87600101","wem/bandit_party_1","A1HKCTDOTL6C9I","either","8","7646","","","32","","","","","","","","","","","","","","","","","","","","","","","","","","","","","","","","","","","","",""
"","text-replacement","75","414437","0.0-37.0","87600101","wem/bandit_party_1","A1HKCTDOTL6C9I","either","8","8871","","","32","","","","","","","","","","","","","","","","","","","","","","","","","","","","","","","","","","","","",""
"","text-replacement","76","419244","0.0-38.0","87600101","wem/bandit_party_1","A1HKCTDOTL6C9I","either","8","4805","","","32","","","","","","","","","","","","","","","","","","","","","","","","","","","","","","","","","","","","",""
"","survey-multi-choice-replacement","77","428074","0.0-39.0-0.0","87600101","wem/bandit_party_1","A1HKCTDOTL6C9I","either","8","8820","","","","","","","","","","","","","","","","","","","","","","","","Money will be added to the pool for <span style='color:blue;'>DEMOCRATS</span>","","","","","","","attn_check","","","","","","","","","0"
"","survey-multi-choice-replacement","78","437404","0.0-40.0-0.0","87600101","wem/bandit_party_1","A1HKCTDOTL6C9I","either","8","8319","","","","","","","","","","","","","","","","","","","","","","","","Equal amounts of money will be added to the pool for <span style='color:blue;'>DEMOCRATS</span> and subtracted from the pool for <span style='color:red;'>REPUBLICANS</span>","","","","","","","attn_check","","","","","","","","","2"
"","survey-multi-choice-replacement","79","442884","0.0-41.0-0.0","87600101","wem/bandit_party_1","A1HKCTDOTL6C9I","either","8","4471","","","","","","","","","","","","","","","","","","","","","","","","No money will be added to either pool","","","","","","","attn_check","","","","","","","","","3"
"","bandit","80","450590","0.0-42.0-0.0","87600101","wem/bandit_party_1","A1HKCTDOTL6C9I","either","8","5193","","","","","","","0","0","1","0.2928194041","","0.2","0.6","0.8","0.4","","","","","0.3540548627","0.2928194041","0.2637293772","0.1351790469","","","","","","","","","","74","J","1","","","1","main_expt",""
"","bandit","81","452424","0.0-43.0-0.0","87600101","wem/bandit_party_1","A1HKCTDOTL6C9I","either","8","325","","","","","","","0","0","1","0.3812516843","","0.2","0.6","0.8","0.4","","","","","0.3812516843","0.3040419902","0.2760013096","0.125602744","","","","","","","","","","72","H","0","img/none_selected.jpg","","2","main_expt",""
"","bandit","82","454246","0.0-44.0-0.0","87600101","wem/bandit_party_1","A1HKCTDOTL6C9I","either","8","313","","","","","","","0","0","1","0.09574082279","","0.2","0.6","0.8","0.4","","","","","0.3901316494","0.2875251023","0.3240499928","0.09574082279","","","","","","","","","","76","L","3","","","3","main_expt",""
"","bandit","83","456063","0.0-45.0-0.0","87600101","wem/bandit_party_1","A1HKCTDOTL6C9I","either","8","309","","","","","","","1","0","0","0.3510822359","","0.2","0.6","0.8","0.4","","","","","0.3945399471","0.2965567903","0.3510822359","0.0913382225","","","","","","","","","","75","K","2","","","4","main_expt",""
"","bandit","84","457863","0.0-46.0-0.0","87600101","wem/bandit_party_1","A1HKCTDOTL6C9I","either","8","290","","","","","","","0","0","1","0.3522827721","","0.2","0.6","0.8","0.4","","","","","0.3997977613","0.2681113314","0.3522827721","0.106177601","","","","","","","","","","75","K","2","","","5","main_expt",""
"","bandit","85","459696","0.0-47.0-0.0","87600101","wem/bandit_party_1","A1HKCTDOTL6C9I","either","8","322","","","","","","","1","0","0","0.382674005","","0.2","0.6","0.8","0.4","","","","","0.390783501","0.2330443498","0.382674005","0.08998955495","","","","","","","","","","75","K","2","","","6","main_expt",""
"","bandit","86","461616","0.0-48.0-0.0","87600101","wem/bandit_party_1","A1HKCTDOTL6C9I","either","8","409","","","","","","","0","0","1","0.3998463606","","0.2","0.6","0.8","0.4","","","","","0.3305693427","0.1630509172","0.3998463606","0.1077526668","","","","","","","","","","75","K","2","","","7","main_expt",""
"","bandit","87","463408","0.0-49.0-0.0","87600101","wem/bandit_party_1","A1HKCTDOTL6C9I","either","8","286","","","","","","","0","1","0","","0.3832029687","0.2","0.6","0.8","0.4","0.3056545716","0.2002468685","0.3832029687","0.1243697388","","","","","","","","","","","","","","75","K","2","","","8","main_expt",""
"","bandit","88","465263","0.0-50.0-0.0","87600101","wem/bandit_party_1","A1HKCTDOTL6C9I","either","8","347","","","","","","","0","0","1","0.3796681134","","0.2","0.6","0.8","0.4","","","","","0.3278889804","0.1835034381","0.3796681134","0.1698108096","","","","","","","","","","75","K","2","","","9","main_expt",""
"","bandit","89","467024","0.0-51.0-0.0","87600101","wem/bandit_party_1","A1HKCTDOTL6C9I","either","8","248","","","","","","","0","0","1","0.1939723001","","0.2","0.6","0.8","0.4","","","","","0.3137855556","0.1939723001","0.3614311416","0.221757114","","","","","","","","","","74","J","1","","","10","main_expt",""
"","bandit","90","468792","0.0-52.0-0.0","87600101","wem/bandit_party_1","A1HKCTDOTL6C9I","either","8","260","","","","","","","0","0","1","0.3938737051","","0.2","0.6","0.8","0.4","","","","","0.3253079181","0.1949806013","0.3938737051","0.1961062924","","","","","","","","","","75","K","2","","","11","main_expt",""
"","bandit","91","470591","0.0-53.0-0.0","87600101","wem/bandit_party_1","A1HKCTDOTL6C9I","either","8","291","","","","","","","0","0","1","","0.3298150516","0.2","0.6","0.8","0.4","0.3298150516","0.2587943474","0.3810544723","0.1907056259","","","","","","","","","","","","","","72","H","0","img/none_selected.jpg","","12","main_expt",""
"","bandit","92","472368","0.0-54.0-0.0","87600101","wem/bandit_party_1","A1HKCTDOTL6C9I","either","8","269","","","","","","","1","0","0","0.3707046684","","0.2","0.6","0.8","0.4","","","","","0.3673307406","0.3085985727","0.3707046684","0.2162865666","","","","","","","","","","75","K","2","","","13","main_expt",""
"","bandit","93","474273","0.0-55.0-0.0","87600101","wem/bandit_party_1","A1HKCTDOTL6C9I","either","8","397","","","","","","","0","0","1","0.3486531997","","0.2","0.6","0.8","0.4","","","","","0.3679224674","0.2464992766","0.3486531997","0.2399362825","","","","","","","","","","75","K","2","","","14","main_expt",""
"","bandit","94","476040","0.0-56.0-0.0","87600101","wem/bandit_party_1","A1HKCTDOTL6C9I","either","8","258","","","","","","","0","0","1","","0.1986859052","0.2","0.6","0.8","0.4","0.3062507314","0.2474611475","0.3263578384","0.1986859052","","","","","","","","","","","","","","76","L","3","","","15","main_expt",""
"","bandit","95","478161","0.0-57.0-0.0","87600101","wem/bandit_party_1","A1HKCTDOTL6C9I","either","8","613","","","","","","","0","0","1","0.3514189979","","0.2","0.6","0.8","0.4","","","","","0.2892976033","0.2835538477","0.3514189979","0.1865641621","","","","","","","","","","75","K","2","","","16","main_expt",""
"","bandit","96","480336","0.0-58.0-0.0","87600101","wem/bandit_party_1","A1HKCTDOTL6C9I","either","8","666","","","","","","","0","0","1","","0.2035525071","0.2","0.6","0.8","0.4","0.2861796528","0.3256112075","0.3532592314","0.2035525071","","","","","","","","","","","","","","76","L","3","","","17","main_expt",""
"","bandit","97","482153","0.0-59.0-0.0","87600101","wem/bandit_party_1","A1HKCTDOTL6C9I","either","8","308","","","","","","","1","0","0","0.3858608091","","0.2","0.6","0.8","0.4","","","","","0.2958570682","0.3802227677","0.3858608091","0.2039336531","","","","","","","","","","75","K","2","","","18","main_expt",""
"","bandit","98","484480","0.0-60.0-0.0","87600101","wem/bandit_party_1","A1HKCTDOTL6C9I","either","8","821","","","","","","","1","0","0","0.3837638756","","0.2","0.6","0.8","0.4","","","","","0.3353028819","0.360566968","0.3837638756","0.1598579642","","","","","","","","","","75","K","2","","","19","main_expt",""
"","bandit","99","486392","0.0-61.0-0.0","87600101","wem/bandit_party_1","A1HKCTDOTL6C9I","either","8","405","","","","","","","0","0","1","0.2872100501","","0.2","0.6","0.8","0.4","","","","","0.3139704528","0.3696799013","0.2872100501","0.1437622327","","","","","","","","","","75","K","2","","","20","main_expt",""
"","bandit","100","488225","0.0-62.0-0.0","87600101","wem/bandit_party_1","A1HKCTDOTL6C9I","either","8","325","","","","","","","1","0","0","0.2975414498","","0.2","0.6","0.8","0.4","","","","","0.2524707143","0.4006907501","0.2975414498","0.07974703335","","","","","","","","","","75","K","2","","","21","main_expt",""
"","bandit","101","490434","0.0-63.0-0.0","87600101","wem/bandit_party_1","A1HKCTDOTL6C9I","either","8","701","","","","","","","0","0","1","0.2741965999","","0.2","0.6","0.8","0.4","","","","","0.248326021","0.4081217326","0.2741965999","0.1361132429","","","","","","","","","","75","K","2","","","22","main_expt",""
"","bandit","102","492250","0.0-64.0-0.0","87600101","wem/bandit_party_1","A1HKCTDOTL6C9I","either","8","307","","","","","","","0","0","1","","0.2379064449","0.2","0.6","0.8","0.4","0.2937153481","0.3740207531","0.2379064449","0.1705973249","","","","","","","","","","","","","","75","K","2","","","23","main_expt",""
"","bandit","103","494024","0.0-65.0-0.0","87600101","wem/bandit_party_1","A1HKCTDOTL6C9I","either","8","268","","","","","","","0","0","1","","0.3913756451","0.2","0.6","0.8","0.4","0.2625315469","0.3913756451","0.2078598572","0.1392759225","","","","","","","","","","","","","","74","J","1","","","24","main_expt",""
"","bandit","104","496475","0.0-66.0-0.0","87600101","wem/bandit_party_1","A1HKCTDOTL6C9I","either","8","941","","","","","","","0","0","1","","0.2405651368","0.2","0.6","0.8","0.4","0.2405651368","0.4100905738","0.2764850733","0.1800538527","","","","","","","","","","","","","","72","H","0","img/none_selected.jpg","","25","main_expt",""
"","bandit","105","498282","0.0-67.0-0.0","87600101","wem/bandit_party_1","A1HKCTDOTL6C9I","either","8","296","","","","","","","0","0","1","0.3600668969","","0.2","0.6","0.8","0.4","","","","","0.2503350336","0.3600668969","0.3080191348","0.2146400533","","","","","","","","","","74","J","1","","","26","main_expt",""
"","bandit","106","500114","0.0-68.0-0.0","87600101","wem/bandit_party_1","A1HKCTDOTL6C9I","either","8","322","","","","","","","0","0","1","0.3606197488","","0.2","0.6","0.8","0.4","","","","","0.354091838","0.3703096079","0.3606197488","0.1948367851","","","","","","","","","","75","K","2","","","27","main_expt",""
"","bandit","107","502433","0.0-69.0-0.0","87600101","wem/bandit_party_1","A1HKCTDOTL6C9I","either","8","810","","","","","","","1","0","0","0.3696097963","","0.2","0.6","0.8","0.4","","","","","0.3419366675","0.3527269899","0.3696097963","0.2282666016","","","","","","","","","","75","K","2","","","28","main_expt",""
"","bandit","108","504530","0.0-70.0-0.0","87600101","wem/bandit_party_1","A1HKCTDOTL6C9I","either","8","588","","","","","","","0","0","1","0.3434444954","","0.2","0.6","0.8","0.4","","","","","0.361896517","0.2854860911","0.3434444954","0.1842618798","","","","","","","","","","75","K","2","","","29","main_expt",""
"","bandit","109","506587","0.0-71.0-0.0","87600101","wem/bandit_party_1","A1HKCTDOTL6C9I","either","8","549","","","","","","","0","0","1","0.3528183973","","0.2","0.6","0.8","0.4","","","","","0.3701160785","0.2971434158","0.3528183973","0.1930267653","","","","","","","","","","75","K","2","","","30","main_expt",""
"","bandit","110","508466","0.0-72.0-0.0","87600101","wem/bandit_party_1","A1HKCTDOTL6C9I","either","8","367","","","","","","","0","1","0","","0.2279264959","0.2","0.6","0.8","0.4","0.3602312343","0.3192935598","0.3436926249","0.2279264959","","","","","","","","","","","","","","76","L","3","","","31","main_expt",""
"","bandit","111","510323","0.0-73.0-0.0","87600101","wem/bandit_party_1","A1HKCTDOTL6C9I","either","8","347","","","","","","","0","0","1","","0.1922668126","0.2","0.6","0.8","0.4","0.3550043818","0.2910845839","0.3392376576","0.1922668126","","","","","","","","","","","","","","76","L","3","","","32","main_expt",""
"","bandit","112","512204","0.0-74.0-0.0","87600101","wem/bandit_party_1","A1HKCTDOTL6C9I","either","8","372","","","","","","","0","0","1","0.1503247695","","0.2","0.6","0.8","0.4","","","","","0.3927862597","0.2956883229","0.2524106513","0.1503247695","","","","","","","","","","76","L","3","","","33","main_expt",""
"","bandit","113","514283","0.0-75.0-0.0","87600101","wem/bandit_party_1","A1HKCTDOTL6C9I","either","8","571","","","","","","","0","0","1","0.2378308988","","0.2","0.6","0.8","0.4","","","","","0.4185963197","0.2918182698","0.2378308988","0.1875072744","","","","","","","","","","75","K","2","","","34","main_expt",""
"","bandit","114","516306","0.0-76.0-0.0","87600101","wem/bandit_party_1","A1HKCTDOTL6C9I","either","8","513","","","","","","","0","0","1","","0.2135507624","0.2","0.6","0.8","0.4","0.441983755","0.3063909307","0.2683654211","0.2135507624","","","","","","","","","","","","","","76","L","3","","","35","main_expt",""
"","bandit","115","518238","0.0-77.0-0.0","87600101","wem/bandit_party_1","A1HKCTDOTL6C9I","either","8","422","","","","","","","0","0","1","0.2820805085","","0.2","0.6","0.8","0.4","","","","","0.4352827683","0.2820805085","0.2645223933","0.2042402853","","","","","","","","","","74","J","1","","","36","main_expt",""
"","bandit","116","520115","0.0-78.0-0.0","87600101","wem/bandit_party_1","A1HKCTDOTL6C9I","either","8","367","","","","","","","0","0","1","","0.2360561858","0.2","0.6","0.8","0.4","0.450520142","0.2610370824","0.2360561858","0.2024605481","","","","","","","","","","","","","","75","K","2","","","37","main_expt",""
"","bandit","117","521995","0.0-79.0-0.0","87600101","wem/bandit_party_1","A1HKCTDOTL6C9I","either","8","373","","","","","","","0","0","1","","0.4681224698","0.2","0.6","0.8","0.4","0.4681224698","0.1896233007","0.2001865083","0.1677713785","","","","","","","","","","","","","","72","H","0","img/none_selected.jpg","","38","main_expt",""
"","bandit","118","523804","0.0-80.0-0.0","87600101","wem/bandit_party_1","A1HKCTDOTL6C9I","either","8","300","","","","","","","0","1","0","","0.4711022053","0.2","0.6","0.8","0.4","0.4711022053","0.168851025","0.1687915361","0.221779122","","","","","","","","","","","","","","72","H","0","img/none_selected.jpg","","39","main_expt",""
"","bandit","119","525691","0.0-81.0-0.0","87600101","wem/bandit_party_1","A1HKCTDOTL6C9I","either","8","378","","","","","","","0","0","1","0.4559447699","","0.2","0.6","0.8","0.4","","","","","0.4559447699","0.1615787635","0.1503151413","0.2722397218","","","","","","","","","","72","H","0","img/none_selected.jpg","","40","main_expt",""
"","bandit","120","527557","0.0-82.0-0.0","87600101","wem/bandit_party_1","A1HKCTDOTL6C9I","either","8","354","","","","","","","1","0","0","0.1472326003","","0.2","0.6","0.8","0.4","","","","","0.4412687596","0.1472326003","0.08168262283","0.3298230943","","","","","","","","","","74","J","1","","","41","main_expt",""
"","bandit","121","529492","0.0-83.0-0.0","87600101","wem/bandit_party_1","A1HKCTDOTL6C9I","either","8","428","","","","","","","0","1","0","","0.1533480506","0.2","0.6","0.8","0.4","0.4457751761","0.1533480506","0.07668629145","0.3104885444","","","","","","","","","","","","","","74","J","1","","","42","main_expt",""
"","bandit","122","531371","0.0-84.0-0.0","87600101","wem/bandit_party_1","A1HKCTDOTL6C9I","either","8","370","","","","","","","0","0","1","0.1414351437","","0.2","0.6","0.8","0.4","","","","","0.4298378352","0.1414351437","0.07394587158","0.3005355489","","","","","","","","","","74","J","1","","","43","main_expt",""
"","bandit","123","533356","0.0-85.0-0.0","87600101","wem/bandit_party_1","A1HKCTDOTL6C9I","either","8","476","","","","","","","0","0","1","","0.1067646429","0.2","0.6","0.8","0.4","0.4416915379","0.1067646429","0.1192337685","0.2456242138","","","","","","","","","","","","","","74","J","1","","","44","main_expt",""
"","bandit","124","535365","0.0-86.0-0.0","87600101","wem/bandit_party_1","A1HKCTDOTL6C9I","either","8","500","","","","","","","0","0","1","0.1285724119","","0.2","0.6","0.8","0.4","","","","","0.3915522423","0.1250796286","0.1285724119","0.2839901561","","","","","","","","","","75","K","2","","","45","main_expt",""
"","bandit","125","537317","0.0-87.0-0.0","87600101","wem/bandit_party_1","A1HKCTDOTL6C9I","either","8","443","","","","","","","0","0","1","0.1927264636","","0.2","0.6","0.8","0.4","","","","","0.4318427431","0.1927264636","0.1112684106","0.2353621531","","","","","","","","","","74","J","1","","","46","main_expt",""
"","bandit","126","539140","0.0-88.0-0.0","87600101","wem/bandit_party_1","A1HKCTDOTL6C9I","either","8","315","","","","","","","0","0","1","","0.4395998441","0.2","0.6","0.8","0.4","0.4395998441","0.1804488412","0.1207340475","0.2405257196","","","","","","","","","","","","","","72","H","0","img/none_selected.jpg","","47","main_expt",""
"","bandit","127","540733","0.0-89.0-0.0","87600101","wem/bandit_party_1","A1HKCTDOTL6C9I","either","8","85","","","","","","","0","0","1","0.1182533935","","0.2","0.6","0.8","0.4","","","","","0.4630443269","0.168268176","0.1182533935","0.2629408555","","","","","","","","","","75","K","2","","","48","main_expt",""
"","bandit","128","542549","0.0-90.0-0.0","87600101","wem/bandit_party_1","A1HKCTDOTL6C9I","either","8","306","","","","","","","0","0","1","0.2902453213","","0.2","0.6","0.8","0.4","","","","","0.4794982466","0.1466838001","0.1460801474","0.2902453213","","","","","","","","","","76","L","3","","","49","main_expt",""
"","bandit","129","544316","0.0-91.0-0.0","87600101","wem/bandit_party_1","A1HKCTDOTL6C9I","either","8","259","","","","","","","1","0","0","0.3033715012","","0.2","0.6","0.8","0.4","","","","","0.4562783041","0.1336340117","0.1765155983","0.3033715012","","","","","","","","","","76","L","3","","","50","main_expt",""
"","bandit","130","546133","0.0-92.0-0.0","87600101","wem/bandit_party_1","A1HKCTDOTL6C9I","either","8","308","","","","","","","0","0","1","","0.3536831403","0.2","0.6","0.8","0.4","0.4515646323","0.1067821754","0.1614266163","0.3536831403","","","","","","","","","","","","","","76","L","3","","","51","main_expt",""
"","bandit","131","548140","0.0-93.0-0.0","87600101","wem/bandit_party_1","A1HKCTDOTL6C9I","either","8","499","","","","","","","0","1","0","","0.4344137529","0.2","0.6","0.8","0.4","0.4344137529","0.07294577227","0.1938643747","0.3058792917","","","","","","","","","","","","","","72","H","0","img/none_selected.jpg","","52","main_expt",""
"","bandit","132","549990","0.0-94.0-0.0","87600101","wem/bandit_party_1","A1HKCTDOTL6C9I","either","8","339","","","","","","","0","0","1","","0.4421766306","0.2","0.6","0.8","0.4","0.4421766306","0.07676454597","0.1721886996","0.3466820038","","","","","","","","","","","","","","72","H","0","img/none_selected.jpg","","53","main_expt",""
"","bandit","133","552013","0.0-95.0-0.0","87600101","wem/bandit_party_1","A1HKCTDOTL6C9I","either","8","514","","","","","","","0","1","0","","0.4591875032","0.2","0.6","0.8","0.4","0.4591875032","0.07707135067","0.1542880765","0.3159173384","","","","","","","","","","","","","","72","H","0","img/none_selected.jpg","","54","main_expt",""
"","bandit","134","553893","0.0-96.0-0.0","87600101","wem/bandit_party_1","A1HKCTDOTL6C9I","either","8","371","","","","","","","0","0","1","","0.4455250987","0.2","0.6","0.8","0.4","0.4455250987","0.08227932488","0.2155598061","0.3205246683","","","","","","","","","","","","","","72","H","0","img/none_selected.jpg","","55","main_expt",""
"","bandit","135","555766","0.0-97.0-0.0","87600101","wem/bandit_party_1","A1HKCTDOTL6C9I","either","8","362","","","","","","","0","0","1","","0.4200701886","0.2","0.6","0.8","0.4","0.4200701886","0.09013031375","0.199350645","0.3067659888","","","","","","","","","","","","","","72","H","0","img/none_selected.jpg","","56","main_expt",""
"","bandit","136","557773","0.0-98.0-0.0","87600101","wem/bandit_party_1","A1HKCTDOTL6C9I","either","8","496","","","","","","","0","1","0","","0.3635567377","0.2","0.6","0.8","0.4","0.3635567377","0.106866739","0.1991981904","0.3786279545","","","","","","","","","","","","","","72","H","0","img/none_selected.jpg","","57","main_expt",""
"","bandit","137","559687","0.0-99.0-0.0","87600101","wem/bandit_party_1","A1HKCTDOTL6C9I","either","8","405","","","","","","","0","1","0","","0.3647217687","0.2","0.6","0.8","0.4","0.3647217687","0.0915584437","0.1307276253","0.3796022377","","","","","","","","","","","","","","72","H","0","img/none_selected.jpg","","58","main_expt",""
"","bandit","138","561558","0.0-100.0-0.0","87600101","wem/bandit_party_1","A1HKCTDOTL6C9I","either","8","359","","","","","","","0","0","1","","0.3975499765","0.2","0.6","0.8","0.4","0.3975499765","0.1036540812","0.1540949786","0.3570845549","","","","","","","","","","","","","","72","H","0","img/none_selected.jpg","","59","main_expt",""
"","bandit","139","563742","0.0-101.0-0.0","87600101","wem/bandit_party_1","A1HKCTDOTL6C9I","either","8","675","","","","","","","0","0","1","","0.376383165","0.2","0.6","0.8","0.4","0.376383165","0.07948280662","0.1187181044","0.398525789","","","","","","","","","","","","","","72","H","0","img/none_selected.jpg","","60","main_expt",""
"","bandit","140","565495","0.0-102.0-0.0","87600101","wem/bandit_party_1","A1HKCTDOTL6C9I","either","8","243","","","","","","","0","0","1","0.1734870435","","0.2","0.6","0.8","0.4","","","","","0.3384437455","0.0685056185","0.1734870435","0.380986593","","","","","","","","","","75","K","2","","","61","main_expt",""
"","bandit","141","567198","0.0-103.0-0.0","87600101","wem/bandit_party_1","A1HKCTDOTL6C9I","either","8","193","","","","","","","0","0","1","0.2056999461","","0.2","0.6","0.8","0.4","","","","","0.3086389155","0.04196312691","0.2056999461","0.3928002855","","","","","","","","","","75","K","2","","","62","main_expt",""
"","bandit","142","569326","0.0-104.0-0.0","87600101","wem/bandit_party_1","A1HKCTDOTL6C9I","either","8","620","","","","","","","0","0","1","","0.2421495796","0.2","0.6","0.8","0.4","0.3098998428","0.06524357318","0.2421495796","0.4097838671","","","","","","","","","","","","","","75","K","2","","","63","main_expt",""
"","bandit","143","571119","0.0-105.0-0.0","87600101","wem/bandit_party_1","A1HKCTDOTL6C9I","either","8","283","","","","","","","0","0","1","0.2859800092","","0.2","0.6","0.8","0.4","","","","","0.2859800092","0.04599317762","0.2678986655","0.3942475769","","","","","","","","","","72","H","0","img/none_selected.jpg","","64","main_expt",""
"","bandit","144","572943","0.0-106.0-0.0","87600101","wem/bandit_party_1","A1HKCTDOTL6C9I","either","8","314","","","","","","","0","0","1","0.2780623804","","0.2","0.6","0.8","0.4","","","","","0.2780623804","0.04738713632","0.2780805564","0.3756823908","","","","","","","","","","72","H","0","img/none_selected.jpg","","65","main_expt",""
"","bandit","145","575167","0.0-107.0-0.0","87600101","wem/bandit_party_1","A1HKCTDOTL6C9I","either","8","715","","","","","","","0","0","1","","0.2740889186","0.2","0.6","0.8","0.4","0.2740889186","0.02873144913","0.2923516192","0.3780323226","","","","","","","","","","","","","","72","H","0","img/none_selected.jpg","","66","main_expt",""
"","bandit","146","576968","0.0-108.0-0.0","87600101","wem/bandit_party_1","A1HKCTDOTL6C9I","either","8","291","","","","","","","0","0","1","0.0355516853","","0.2","0.6","0.8","0.4","","","","","0.3122756929","0.0355516853","0.3481747094","0.382091886","","","","","","","","","","74","J","1","","","67","main_expt",""
"","bandit","147","578832","0.0-109.0-0.0","87600101","wem/bandit_party_1","A1HKCTDOTL6C9I","either","8","351","","","","","","","0","0","1","0.04483006882","","0.2","0.6","0.8","0.4","","","","","0.3004294993","0.04483006882","0.3540590834","0.4080562953","","","","","","","","","","74","J","1","","","68","main_expt",""
"","bandit","148","580639","0.0-110.0-0.0","87600101","wem/bandit_party_1","A1HKCTDOTL6C9I","either","8","299","","","","","","","0","0","1","0.04300650393","","0.2","0.6","0.8","0.4","","","","","0.3312842332","0.04300650393","0.3348318208","0.419826639","","","","","","","","","","74","J","1","","","69","main_expt",""
"","bandit","149","582576","0.0-111.0-0.0","87600101","wem/bandit_party_1","A1HKCTDOTL6C9I","either","8","427","","","","","","","0","1","0","","0.3889643965","0.2","0.6","0.8","0.4","0.2362018798","0.03960880855","0.3844983113","0.3889643965","","","","","","","","","","","","","","76","L","3","","","70","main_expt",""
"","bandit","150","584342","0.0-112.0-0.0","87600101","wem/bandit_party_1","A1HKCTDOTL6C9I","either","8","258","","","","","","","0","1","0","","0.3492343966","0.2","0.6","0.8","0.4","0.1838323472","0.02401392238","0.3753843975","0.3492343966","","","","","","","","","","","","","","76","L","3","","","71","main_expt",""
"","bandit","151","586353","0.0-113.0-0.0","87600101","wem/bandit_party_1","A1HKCTDOTL6C9I","either","8","501","","","","","","","1","0","0","0.3502155883","","0.2","0.6","0.8","0.4","","","","","0.1749810972","0.008756159955","0.3861429343","0.3502155883","","","","","","","","","","76","L","3","","","72","main_expt",""
"","bandit","152","588296","0.0-114.0-0.0","87600101","wem/bandit_party_1","A1HKCTDOTL6C9I","either","8","430","","","","","","","0","0","1","0.3568691787","","0.2","0.6","0.8","0.4","","","","","0.1664097112","0.006257651783","0.3978436086","0.3568691787","","","","","","","","","","76","L","3","","","73","main_expt",""
"","bandit","153","590232","0.0-115.0-0.0","87600101","wem/bandit_party_1","A1HKCTDOTL6C9I","either","8","427","","","","","","","0","0","1","","0.3303653739","0.2","0.6","0.8","0.4","0.2001176207","0.004732084297","0.3847979518","0.3303653739","","","","","","","","","","","","","","76","L","3","","","74","main_expt",""
"","bandit","154","592360","0.0-116.0-0.0","87600101","wem/bandit_party_1","A1HKCTDOTL6C9I","either","8","615","","","","","","","0","0","1","","0.1848717924","0.2","0.6","0.8","0.4","0.1848717924","0.006967558871","0.3974319157","0.3353283381","","","","","","","","","","","","","","72","H","0","img/none_selected.jpg","","75","main_expt",""
"","bandit","155","594169","0.0-117.0-0.0","87600101","wem/bandit_party_1","A1HKCTDOTL6C9I","either","8","299","","","","","","","0","0","1","0.004525860487","","0.2","0.6","0.8","0.4","","","","","0.1510178238","0.004525860487","0.3987985884","0.3009524994","","","","","","","","","","74","J","1","","","76","main_expt",""
"","bandit","156","596055","0.0-118.0-0.0","87600101","wem/bandit_party_1","A1HKCTDOTL6C9I","either","8","378","","","","","","","0","0","1","0.007245535115","","0.2","0.6","0.8","0.4","","","","","0.2089633591","0.007245535115","0.4127312768","0.3316028908","","","","","","","","","","74","J","1","","","77","main_expt",""
"","bandit","157","598089","0.0-119.0-0.0","87600101","wem/bandit_party_1","A1HKCTDOTL6C9I","either","8","525","","","","","","","1","0","0","0.4257675477","","0.2","0.6","0.8","0.4","","","","","0.2285147345","0.00483057751","0.4257675477","0.3571024926","","","","","","","","","","75","K","2","","","78","main_expt",""
"","bandit","158","599905","0.0-120.0-0.0","87600101","wem/bandit_party_1","A1HKCTDOTL6C9I","either","8","306","","","","","","","0","0","1","0.4331167668","","0.2","0.6","0.8","0.4","","","","","0.2246975601","0.005956317848","0.4331167668","0.3542776451","","","","","","","","","","75","K","2","","","79","main_expt",""
"","bandit","159","601768","0.0-121.0-0.0","87600101","wem/bandit_party_1","A1HKCTDOTL6C9I","either","8","354","","","","","","","1","0","0","0.4294395537","","0.2","0.6","0.8","0.4","","","","","0.1878766281","0.0076590047","0.4294395537","0.3201174307","","","","","","","","","","75","K","2","","","80","main_expt",""
"","bandit","160","603969","0.0-122.0-0.0","87600101","wem/bandit_party_1","A1HKCTDOTL6C9I","either","8","691","","","","","","","0","1","0","","0.4234249918","0.2","0.6","0.8","0.4","0.2436254364","0.009115568074","0.4234249918","0.3503003334","","","","","","","","","","","","","","75","K","2","","","81","main_expt",""
"","bandit","161","605849","0.0-123.0-0.0","87600101","wem/bandit_party_1","A1HKCTDOTL6C9I","either","8","371","","","","","","","1","0","0","0.3956977209","","0.2","0.6","0.8","0.4","","","","","0.2627531714","0.01382977225","0.3956977209","0.3509066846","","","","","","","","","","75","K","2","","","82","main_expt",""
"","bandit","162","607737","0.0-124.0-0.0","87600101","wem/bandit_party_1","A1HKCTDOTL6C9I","either","8","379","","","","","","","0","0","1","","0.4248650233","0.2","0.6","0.8","0.4","0.2672212524","0.01500629599","0.4248650233","0.3951868033","","","","","","","","","","","","","","75","K","2","","","83","main_expt",""
"","bandit","163","609939","0.0-125.0-0.0","87600101","wem/bandit_party_1","A1HKCTDOTL6C9I","either","8","691","","","","","","","0","0","1","0.4196907627","","0.2","0.6","0.8","0.4","","","","","0.2817484998","0.02310127573","0.4196907627","0.4131477378","","","","","","","","","","75","K","2","","","84","main_expt",""
"","bandit","164","611769","0.0-126.0-0.0","87600101","wem/bandit_party_1","A1HKCTDOTL6C9I","either","8","320","","","","","","","0","0","1","","0.3074775227","0.2","0.6","0.8","0.4","0.3074775227","0.02639065846","0.435633498","0.3889697292","","","","","","","","","","","","","","72","H","0","img/none_selected.jpg","","85","main_expt",""
"","bandit","165","613569","0.0-127.0-0.0","87600101","wem/bandit_party_1","A1HKCTDOTL6C9I","either","8","291","","","","","","","0","0","1","0.2717847629","","0.2","0.6","0.8","0.4","","","","","0.2717847629","0.01746441632","0.4322222521","0.3885636443","","","","","","","","","","72","H","0","img/none_selected.jpg","","86","main_expt",""
"","bandit","166","615625","0.0-128.0-0.0","87600101","wem/bandit_party_1","A1HKCTDOTL6C9I","either","8","543","","","","","","","0","1","0","","0.4028282504","0.2","0.6","0.8","0.4","0.2183858348","0.01256144444","0.4476119451","0.4028282504","","","","","","","","","","","","","","76","L","3","","","87","main_expt",""
"","bandit","167","617443","0.0-129.0-0.0","87600101","wem/bandit_party_1","A1HKCTDOTL6C9I","either","8","307","","","","","","","0","1","0","","0.4306890759","0.2","0.6","0.8","0.4","0.2054961256","0.01178158386","0.4073123198","0.4306890759","","","","","","","","","","","","","","76","L","3","","","88","main_expt",""
"","bandit","168","619290","0.0-130.0-0.0","87600101","wem/bandit_party_1","A1HKCTDOTL6C9I","either","8","338","","","","","","","0","1","0","","0.4103738654","0.2","0.6","0.8","0.4","0.1452714398","0.008722555822","0.3862301724","0.4103738654","","","","","","","","","","","","","","76","L","3","","","89","main_expt",""
"","bandit","169","621324","0.0-131.0-0.0","87600101","wem/bandit_party_1","A1HKCTDOTL6C9I","either","8","524","","","","","","","0","1","0","","0.3980827974","0.2","0.6","0.8","0.4","0.1077779513","0.008232471735","0.3596745144","0.3980827974","","","","","","","","","","","","","","76","L","3","","","90","main_expt",""
"","bandit","170","623131","0.0-132.0-0.0","87600101","wem/bandit_party_1","A1HKCTDOTL6C9I","either","8","298","","","","","","","1","0","0","0.4040531024","","0.2","0.6","0.8","0.4","","","","","0.1308407065","0.01249180717","0.3082854458","0.4040531024","","","","","","","","","","76","L","3","","","91","main_expt",""
"","bandit","171","624970","0.0-133.0-0.0","87600101","wem/bandit_party_1","A1HKCTDOTL6C9I","either","8","327","","","","","","","0","0","1","0.3462944796","","0.2","0.6","0.8","0.4","","","","","0.1652322036","0.01470986316","0.312225492","0.3462944796","","","","","","","","","","76","L","3","","","92","main_expt",""
"","bandit","172","627210","0.0-134.0-0.0","87600101","wem/bandit_party_1","A1HKCTDOTL6C9I","either","8","731","","","","","","","0","0","1","","0.3411451966","0.2","0.6","0.8","0.4","0.1344678182","0.02655281846","0.3671658277","0.3411451966","","","","","","","","","","","","","","76","L","3","","","93","main_expt",""
"","bandit","173","629026","0.0-135.0-0.0","87600101","wem/bandit_party_1","A1HKCTDOTL6C9I","either","8","304","","","","","","","1","0","0","0.3401731108","","0.2","0.6","0.8","0.4","","","","","0.1301314301","0.02575246025","0.3401731108","0.3384154489","","","","","","","","","","75","K","2","","","94","main_expt",""
"","bandit","174","630835","0.0-136.0-0.0","87600101","wem/bandit_party_1","A1HKCTDOTL6C9I","either","8","298","","","","","","","0","0","1","0.3413923724","","0.2","0.6","0.8","0.4","","","","","0.1746055711","0.02262355665","0.3413923724","0.3126988266","","","","","","","","","","75","K","2","","","95","main_expt",""
"","bandit","175","633026","0.0-137.0-0.0","87600101","wem/bandit_party_1","A1HKCTDOTL6C9I","either","8","680","","","","","","","0","0","1","0.3570420485","","0.2","0.6","0.8","0.4","","","","","0.1994244555","0.02047181149","0.3570420485","0.3800019137","","","","","","","","","","75","K","2","","","96","main_expt",""
"","bandit","176","634819","0.0-138.0-0.0","87600101","wem/bandit_party_1","A1HKCTDOTL6C9I","either","8","282","","","","","","","1","0","0","0.3328121005","","0.2","0.6","0.8","0.4","","","","","0.1834602947","0.0207754381","0.3435474977","0.3328121005","","","","","","","","","","76","L","3","","","97","main_expt",""
"","bandit","177","636699","0.0-139.0-0.0","87600101","wem/bandit_party_1","A1HKCTDOTL6C9I","either","8","368","","","","","","","0","0","1","","0.332228596","0.2","0.6","0.8","0.4","0.1719221531","0.02955834597","0.3614714926","0.332228596","","","","","","","","","","","","","","76","L","3","","","98","main_expt",""
"","bandit","178","638683","0.0-140.0-0.0","87600101","wem/bandit_party_1","A1HKCTDOTL6C9I","either","8","475","","","","","","","0","0","1","0.2843854285","","0.2","0.6","0.8","0.4","","","","","0.1183399241","0.0383131093","0.3176405447","0.2843854285","","","","","","","","","","76","L","3","","","99","main_expt",""
"","bandit","179","640532","0.0-141.0-0.0","87600101","wem/bandit_party_1","A1HKCTDOTL6C9I","either","8","339","","","","","","","1","0","0","0.3586553183","","0.2","0.6","0.8","0.4","","","","","0.1558635017","0.03580757471","0.3586553183","0.309751149","","","","","","","","","","75","K","2","","","100","main_expt",""
"","bandit","180","642332","0.0-142.0-0.0","87600101","wem/bandit_party_1","A1HKCTDOTL6C9I","either","8","291","","","","","","","1","0","0","0.2951503345","","0.2","0.6","0.8","0.4","","","","","0.1389665978","0.04899620691","0.2951503345","0.2993195944","","","","","","","","","","75","K","2","","","101","main_expt",""
"","bandit","181","644516","0.0-143.0-0.0","87600101","wem/bandit_party_1","A1HKCTDOTL6C9I","either","8","675","","","","","","","0","0","1","","0.2998391809","0.2","0.6","0.8","0.4","0.1377203561","0.08055650644","0.2998391809","0.3551890872","","","","","","","","","","","","","","75","K","2","","","102","main_expt",""
"","bandit","182","646380","0.0-144.0-0.0","87600101","wem/bandit_party_1","A1HKCTDOTL6C9I","either","8","355","","","","","","","0","0","1","","0.3148404956","0.2","0.6","0.8","0.4","0.1285548106","0.1040447627","0.2791823827","0.3148404956","","","","","","","","","","","","","","76","L","3","","","103","main_expt",""
"","bandit","183","648163","0.0-145.0-0.0","87600101","wem/bandit_party_1","A1HKCTDOTL6C9I","either","8","273","","","","","","","1","0","0","0.3286912191","","0.2","0.6","0.8","0.4","","","","","0.1555523735","0.1143547335","0.3382769334","0.3286912191","","","","","","","","","","76","L","3","","","104","main_expt",""
"","bandit","184","650355","0.0-146.0-0.0","87600101","wem/bandit_party_1","A1HKCTDOTL6C9I","either","8","684","","","","","","","0","1","0","","0.298340497","0.2","0.6","0.8","0.4","0.1775592141","0.1487676438","0.3339697125","0.298340497","","","","","","","","","","","","","","76","L","3","","","105","main_expt",""
"","bandit","185","652213","0.0-147.0-0.0","87600101","wem/bandit_party_1","A1HKCTDOTL6C9I","either","8","347","","","","","","","0","0","1","0.3504464386","","0.2","0.6","0.8","0.4","","","","","0.2263451353","0.152088545","0.3124129253","0.3504464386","","","","","","","","","","76","L","3","","","106","main_expt",""
"","bandit","186","654269","0.0-148.0-0.0","87600101","wem/bandit_party_1","A1HKCTDOTL6C9I","either","8","542","","","","","","","0","0","1","0.3400683723","","0.2","0.6","0.8","0.4","","","","","0.1679769802","0.2406734145","0.3400683723","0.3510410077","","","","","","","","","","75","K","2","","","107","main_expt",""
"","bandit","187","656389","0.0-149.0-0.0","87600101","wem/bandit_party_1","A1HKCTDOTL6C9I","either","8","611","","","","","","","0","0","1","","0.3557340834","0.2","0.6","0.8","0.4","0.1999870147","0.3048040024","0.3557340834","0.3282766846","","","","","","","","","","","","","","75","K","2","","","108","main_expt",""
"","bandit","188","658333","0.0-150.0-0.0","87600101","wem/bandit_party_1","A1HKCTDOTL6C9I","either","8","432","","","","","","","0","0","1","","0.3561186451","0.2","0.6","0.8","0.4","0.208992856","0.3418503096","0.3846418901","0.3561186451","","","","","","","","","","","","","","76","L","3","","","109","main_expt",""
"","bandit","189","660350","0.0-151.0-0.0","87600101","wem/bandit_party_1","A1HKCTDOTL6C9I","either","8","507","","","","","","","0","0","1","","0.1716040471","0.2","0.6","0.8","0.4","0.1716040471","0.3198501315","0.4057962062","0.3576445865","","","","","","","","","","","","","","72","H","0","img/none_selected.jpg","","110","main_expt",""
"","bandit","190","662556","0.0-152.0-0.0","87600101","wem/bandit_party_1","A1HKCTDOTL6C9I","either","8","697","","","","","","","0","0","1","","0.3377543854","0.2","0.6","0.8","0.4","0.08984071331","0.3681534847","0.3692451483","0.3377543854","","","","","","","","","","","","","","76","L","3","","","111","main_expt",""
"","bandit","191","664390","0.0-153.0-0.0","87600101","wem/bandit_party_1","A1HKCTDOTL6C9I","either","8","320","","","","","","","0","0","1","0.3577317973","","0.2","0.6","0.8","0.4","","","","","0.1243463141","0.3757830796","0.3577317973","0.286234052","","","","","","","","","","75","K","2","","","112","main_expt",""
"","bandit","192","666182","0.0-154.0-0.0","87600101","wem/bandit_party_1","A1HKCTDOTL6C9I","either","8","280","","","","","","","0","0","1","0.3838999828","","0.2","0.6","0.8","0.4","","","","","0.1433440675","0.3838999828","0.3328808086","0.1932674395","","","","","","","","","","74","J","1","","","113","main_expt",""
"","bandit","193","668055","0.0-155.0-0.0","87600101","wem/bandit_party_1","A1HKCTDOTL6C9I","either","8","363","","","","","","","0","0","1","","0.4157938717","0.2","0.6","0.8","0.4","0.1510662198","0.4157938717","0.3416979579","0.2403040534","","","","","","","","","","","","","","74","J","1","","","114","main_expt",""
"","bandit","194","670093","0.0-156.0-0.0","87600101","wem/bandit_party_1","A1HKCTDOTL6C9I","either","8","528","","","","","","","0","0","1","","0.3377137281","0.2","0.6","0.8","0.4","0.09845245139","0.4055870595","0.3377137281","0.254937398","","","","","","","","","","","","","","75","K","2","","","115","main_expt",""
"","bandit","195","672158","0.0-157.0-0.0","87600101","wem/bandit_party_1","A1HKCTDOTL6C9I","either","8","554","","","","","","","0","0","1","","0.107393795","0.2","0.6","0.8","0.4","0.107393795","0.4161015278","0.3039448029","0.2605063941","","","","","","","","","","","","","","72","H","0","img/none_selected.jpg","","116","main_expt",""
"","bandit","196","674334","0.0-158.0-0.0","87600101","wem/bandit_party_1","A1HKCTDOTL6C9I","either","8","662","","","","","","","0","0","1","0.2161328783","","0.2","0.6","0.8","0.4","","","","","0.07879800556","0.414877819","0.2974336912","0.2161328783","","","","","","","","","","76","L","3","","","117","main_expt",""
"","bandit","197","676237","0.0-159.0-0.0","87600101","wem/bandit_party_1","A1HKCTDOTL6C9I","either","8","395","","","","","","","0","0","1","","0.08383735875","0.2","0.6","0.8","0.4","0.08383735875","0.3968259953","0.2651867246","0.1931197841","","","","","","","","","","","","","","72","H","0","img/none_selected.jpg","","118","main_expt",""
"","bandit","198","678078","0.0-160.0-0.0","87600101","wem/bandit_party_1","A1HKCTDOTL6C9I","either","8","330","","","","","","","0","0","1","","0.1392474383","0.2","0.6","0.8","0.4","0.1392474383","0.4198241006","0.3131666206","0.1638183597","","","","","","","","","","","","","","72","H","0","img/none_selected.jpg","","119","main_expt",""
"","bandit","199","679960","0.0-161.0-0.0","87600101","wem/bandit_party_1","A1HKCTDOTL6C9I","either","8","371","","","","","","","1","0","0","0.358829095","","0.2","0.6","0.8","0.4","","","","","0.1649404926","0.4286088018","0.358829095","0.1893282748","","","","","","","","","","75","K","2","","","120","main_expt",""
"","bandit","200","681807","0.0-162.0-0.0","87600101","wem/bandit_party_1","A1HKCTDOTL6C9I","either","8","335","","","","","","","0","0","1","0.3189860171","","0.2","0.6","0.8","0.4","","","","","0.1764152442","0.4253829576","0.3189860171","0.2290368179","","","","","","","","","","75","K","2","","","121","main_expt",""
"","bandit","201","683686","0.0-163.0-0.0","87600101","wem/bandit_party_1","A1HKCTDOTL6C9I","either","8","370","","","","","","","1","0","0","0.3011672979","","0.2","0.6","0.8","0.4","","","","","0.2092397698","0.4235175979","0.3011672979","0.2445441383","","","","","","","","","","75","K","2","","","122","main_expt",""
"","bandit","202","685775","0.0-164.0-0.0","87600101","wem/bandit_party_1","A1HKCTDOTL6C9I","either","8","577","","","","","","","0","0","1","","0.3037948063","0.2","0.6","0.8","0.4","0.1884058447","0.4182090072","0.3037948063","0.2091075756","","","","","","","","","","","","","","75","K","2","","","123","main_expt",""
"","bandit","203","687543","0.0-165.0-0.0","87600101","wem/bandit_party_1","A1HKCTDOTL6C9I","either","8","255","","","","","","","0","0","1","","0.2216111921","0.2","0.6","0.8","0.4","0.1876417206","0.4356016004","0.2446200253","0.2216111921","","","","","","","","","","","","","","76","L","3","","","124","main_expt",""
"","bandit","204","689384","0.0-166.0-0.0","87600101","wem/bandit_party_1","A1HKCTDOTL6C9I","either","8","329","","","","","","","0","0","1","","0.1622020501","0.2","0.6","0.8","0.4","0.1890564589","0.403953628","0.2464628806","0.1622020501","","","","","","","","","","","","","","76","L","3","","","125","main_expt",""
"","bandit","205","691632","0.0-167.0-0.0","87600101","wem/bandit_party_1","A1HKCTDOTL6C9I","either","8","738","","","","","","","0","0","1","0.281169445","","0.2","0.6","0.8","0.4","","","","","0.1659850756","0.4020675328","0.281169445","0.173533554","","","","","","","","","","75","K","2","","","126","main_expt",""
"","bandit","206","693463","0.0-168.0-0.0","87600101","wem/bandit_party_1","A1HKCTDOTL6C9I","either","8","319","","","","","","","1","0","0","0.290080064","","0.2","0.6","0.8","0.4","","","","","0.2006343121","0.338443572","0.290080064","0.189829559","","","","","","","","","","75","K","2","","","127","main_expt",""
"","bandit","207","695272","0.0-169.0-0.0","87600101","wem/bandit_party_1","A1HKCTDOTL6C9I","either","8","297","","","","","","","0","0","1","0.3280989756","","0.2","0.6","0.8","0.4","","","","","0.2637444583","0.323123489","0.3280989756","0.1764696366","","","","","","","","","","75","K","2","","","128","main_expt",""
"","bandit","208","697432","0.0-170.0-0.0","87600101","wem/bandit_party_1","A1HKCTDOTL6C9I","either","8","647","","","","","","","0","0","1","0.3052704822","","0.2","0.6","0.8","0.4","","","","","0.2783394686","0.3615310162","0.3052704822","0.172709194","","","","","","","","","","75","K","2","","","129","main_expt",""
"","bandit","209","699457","0.0-171.0-0.0","87600101","wem/bandit_party_1","A1HKCTDOTL6C9I","either","8","512","","","","","","","0","0","1","","0.2674474002","0.2","0.6","0.8","0.4","0.2674474002","0.3667448715","0.314718742","0.1407460215","","","","","","","","","","","","","","72","H","0","img/none_selected.jpg","","130","main_expt",""
"","bandit","210","701256","0.0-172.0-0.0","87600101","wem/bandit_party_1","A1HKCTDOTL6C9I","either","8","287","","","","","","","0","0","1","","0.2122920843","0.2","0.6","0.8","0.4","0.2122920843","0.341745941","0.2492347367","0.143826562","","","","","","","","","","","","","","72","H","0","img/none_selected.jpg","","131","main_expt",""
"","bandit","211","703224","0.0-173.0-0.0","87600101","wem/bandit_party_1","A1HKCTDOTL6C9I","either","8","458","","","","","","","0","0","1","","0.2615325727","0.2","0.6","0.8","0.4","0.1969346152","0.2615325727","0.2495736985","0.1862992663","","","","","","","","","","","","","","74","J","1","","","132","main_expt",""
"","bandit","212","705048","0.0-174.0-0.0","87600101","wem/bandit_party_1","A1HKCTDOTL6C9I","either","8","314","","","","","","","0","0","1","","0.27905624","0.2","0.6","0.8","0.4","0.1390835973","0.27905624","0.2487120015","0.185648564","","","","","","","","","","","","","","74","J","1","","","133","main_expt",""
"","bandit","213","706913","0.0-175.0-0.0","87600101","wem/bandit_party_1","A1HKCTDOTL6C9I","either","8","354","","","","","","","0","0","1","","0.2002276213","0.2","0.6","0.8","0.4","0.1437640715","0.2751163123","0.3239420422","0.2002276213","","","","","","","","","","","","","","76","L","3","","","134","main_expt",""
"","bandit","214","709065","0.0-176.0-0.0","87600101","wem/bandit_party_1","A1HKCTDOTL6C9I","either","8","641","","","","","","","0","0","1","0.2474552851","","0.2","0.6","0.8","0.4","","","","","0.1175999949","0.2586507773","0.3903525049","0.2474552851","","","","","","","","","","76","L","3","","","135","main_expt",""
"","bandit","215","710897","0.0-177.0-0.0","87600101","wem/bandit_party_1","A1HKCTDOTL6C9I","either","8","320","","","","","","","1","0","0","0.3703049055","","0.2","0.6","0.8","0.4","","","","","0.1108499649","0.2385277364","0.3703049055","0.2454982057","","","","","","","","","","75","K","2","","","136","main_expt",""
"","bandit","216","712697","0.0-178.0-0.0","87600101","wem/bandit_party_1","A1HKCTDOTL6C9I","either","8","289","","","","","","","0","0","1","0.3657944308","","0.2","0.6","0.8","0.4","","","","","0.1208727618","0.1935782534","0.3657944308","0.2708690816","","","","","","","","","","75","K","2","","","137","main_expt",""
"","bandit","217","714873","0.0-179.0-0.0","87600101","wem/bandit_party_1","A1HKCTDOTL6C9I","either","8","664","","","","","","","0","0","1","","0.3452946514","0.2","0.6","0.8","0.4","0.1098805161","0.14087624","0.3452946514","0.2219039101","","","","","","","","","","","","","","75","K","2","","","138","main_expt",""
"","bandit","218","716713","0.0-180.0-0.0","87600101","wem/bandit_party_1","A1HKCTDOTL6C9I","either","8","329","","","","","","","0","0","1","","0.2485571535","0.2","0.6","0.8","0.4","0.1359731218","0.1340930794","0.3225052804","0.2485571535","","","","","","","","","","","","","","76","L","3","","","139","main_expt",""
"","bandit","219","718521","0.0-181.0-0.0","87600101","wem/bandit_party_1","A1HKCTDOTL6C9I","either","8","297","","","","","","","0","1","0","","0.2605640439","0.2","0.6","0.8","0.4","0.1419248406","0.1170750994","0.2997250911","0.2605640439","","","","","","","","","","","","","","76","L","3","","","140","main_expt",""
"","bandit","220","720441","0.0-182.0-0.0","87600101","wem/bandit_party_1","A1HKCTDOTL6C9I","either","8","410","","","","","","","0","0","1","0.2260680923","","0.2","0.6","0.8","0.4","","","","","0.1269577117","0.1316830279","0.311933389","0.2260680923","","","","","","","","","","76","L","3","","","141","main_expt",""
"","bandit","221","722673","0.0-183.0-0.0","87600101","wem/bandit_party_1","A1HKCTDOTL6C9I","either","8","723","","","","","","","0","0","1","0.2354846983","","0.2","0.6","0.8","0.4","","","","","0.1073819056","0.09490366034","0.3442568425","0.2354846983","","","","","","","","","","76","L","3","","","142","main_expt",""
"","bandit","222","724481","0.0-184.0-0.0","87600101","wem/bandit_party_1","A1HKCTDOTL6C9I","either","8","298","","","","","","","0","0","1","0.3117203045","","0.2","0.6","0.8","0.4","","","","","0.1152767294","0.1246024154","0.3117203045","0.2089358464","","","","","","","","","","75","K","2","","","143","main_expt",""
"","bandit","223","726826","0.0-185.0-0.0","87600101","wem/bandit_party_1","A1HKCTDOTL6C9I","either","8","834","","","","","","","0","0","1","0.3080771123","","0.2","0.6","0.8","0.4","","","","","0.1317444946","0.1179874238","0.3080771123","0.1844607625","","","","","","","","","","75","K","2","","","144","main_expt",""
"","bandit","224","728731","0.0-186.0-0.0","87600101","wem/bandit_party_1","A1HKCTDOTL6C9I","either","8","393","","","","","","","0","0","1","","0.1058600218","0.2","0.6","0.8","0.4","0.1058600218","0.1211842963","0.3146876691","0.1940384654","","","","","","","","","","","","","","72","H","0","img/none_selected.jpg","","145","main_expt",""
"","bandit","225","730642","0.0-187.0-0.0","87600101","wem/bandit_party_1","A1HKCTDOTL6C9I","either","8","399","","","","","","","0","0","1","","0.1862633901","0.2","0.6","0.8","0.4","0.1862633901","0.06212451067","0.3526806189","0.2532022814","","","","","","","","","","","","","","72","H","0","img/none_selected.jpg","","146","main_expt",""
"","bandit","226","732859","0.0-188.0-0.0","87600101","wem/bandit_party_1","A1HKCTDOTL6C9I","either","8","706","","","","","","","0","0","1","0.3859334927","","0.2","0.6","0.8","0.4","","","","","0.1944793183","0.05826033827","0.3859334927","0.272856749","","","","","","","","","","75","K","2","","","147","main_expt",""
"","bandit","227","734698","0.0-189.0-0.0","87600101","wem/bandit_party_1","A1HKCTDOTL6C9I","either","8","330","","","","","","","1","0","0","0.4089873985","","0.2","0.6","0.8","0.4","","","","","0.1572605535","0.04847575149","0.4089873985","0.2441255329","","","","","","","","","","75","K","2","","","148","main_expt",""
"","bandit","228","736586","0.0-190.0-0.0","87600101","wem/bandit_party_1","A1HKCTDOTL6C9I","either","8","378","","","","","","","0","0","1","0.3317076441","","0.2","0.6","0.8","0.4","","","","","0.1632070519","0.07397138717","0.3317076441","0.2304797635","","","","","","","","","","75","K","2","","","149","main_expt",""
"","bandit","229","738835","0.0-191.0-0.0","87600101","wem/bandit_party_1","A1HKCTDOTL6C9I","either","8","738","","","","","","","0","0","1","","0.2514439341","0.2","0.6","0.8","0.4","0.2162169298","0.1178437277","0.2514439341","0.2645424191","","","","","","","","","","","","","","75","K","2","","","150","main_expt",""
"","bandit","230","740674","0.0-192.0-0.0","87600101","wem/bandit_party_1","A1HKCTDOTL6C9I","either","8","328","","","","","","","0","0","1","0.2919476008","","0.2","0.6","0.8","0.4","","","","","0.2806681102","0.1116740648","0.2209696772","0.2919476008","","","","","","","","","","76","L","3","","","151","main_expt",""
"","bandit","231","742468","0.0-193.0-0.0","87600101","wem/bandit_party_1","A1HKCTDOTL6C9I","either","8","282","","","","","","","0","0","1","","0.3004198658","0.2","0.6","0.8","0.4","0.25223767","0.09681320826","0.2004300668","0.3004198658","","","","","","","","","","","","","","76","L","3","","","152","main_expt",""
"","bandit","232","744651","0.0-194.0-0.0","87600101","wem/bandit_party_1","A1HKCTDOTL6C9I","either","8","671","","","","","","","0","0","1","","0.2910243242","0.2","0.6","0.8","0.4","0.2259503681","0.1162344283","0.1803159607","0.2910243242","","","","","","","","","","","","","","76","L","3","","","153","main_expt",""
"","bandit","233","746443","0.0-195.0-0.0","87600101","wem/bandit_party_1","A1HKCTDOTL6C9I","either","8","282","","","","","","","0","0","1","","0.2520515582","0.2","0.6","0.8","0.4","0.2520515582","0.1441765144","0.1793353988","0.2858680692","","","","","","","","","","","","","","72","H","0","img/none_selected.jpg","","154","main_expt",""
"","bandit","234","748258","0.0-196.0-0.0","87600101","wem/bandit_party_1","A1HKCTDOTL6C9I","either","8","305","","","","","","","0","0","1","0.1506434262","","0.2","0.6","0.8","0.4","","","","","0.246895917","0.1506434262","0.175125938","0.276906037","","","","","","","","","","74","J","1","","","155","main_expt",""
"","bandit","235","750307","0.0-197.0-0.0","87600101","wem/bandit_party_1","A1HKCTDOTL6C9I","either","8","540","","","","","","","0","0","1","","0.1691825384","0.2","0.6","0.8","0.4","0.2067462234","0.1691825384","0.19004546","0.3087514371","","","","","","","","","","","","","","74","J","1","","","156","main_expt",""
"","bandit","236","752141","0.0-198.0-0.0","87600101","wem/bandit_party_1","A1HKCTDOTL6C9I","either","8","319","","","","","","","0","0","1","0.1538528063","","0.2","0.6","0.8","0.4","","","","","0.1736677602","0.1465267651","0.1538528063","0.3400763937","","","","","","","","","","75","K","2","","","157","main_expt",""
"","bandit","237","753987","0.0-199.0-0.0","87600101","wem/bandit_party_1","A1HKCTDOTL6C9I","either","8","337","","","","","","","0","0","1","0.1624419901","","0.2","0.6","0.8","0.4","","","","","0.2437422656","0.1517260174","0.1624419901","0.3388441277","","","","","","","","","","75","K","2","","","158","main_expt",""
"","bandit","238","756172","0.0-200.0-0.0","87600101","wem/bandit_party_1","A1HKCTDOTL6C9I","either","8","674","","","","","","","0","0","1","","0.3496437485","0.2","0.6","0.8","0.4","0.2627628197","0.143579764","0.1749682205","0.3496437485","","","","","","","","","","","","","","76","L","3","","","159","main_expt",""
"","bandit","239","757963","0.0-201.0-0.0","87600101","wem/bandit_party_1","A1HKCTDOTL6C9I","either","8","278","","","","","","","0","1","0","","0.3347491532","0.2","0.6","0.8","0.4","0.2532756584","0.1701049762","0.2227833177","0.3347491532","","","","","","","","","","","","","","76","L","3","","","160","main_expt",""
"","bandit","240","759764","0.0-202.0-0.0","87600101","wem/bandit_party_1","A1HKCTDOTL6C9I","either","8","290","","","","","","","0","0","1","0.3036625801","","0.2","0.6","0.8","0.4","","","","","0.2846030245","0.1596038406","0.1616195486","0.3036625801","","","","","","","","","","76","L","3","","","161","main_expt",""
"","bandit","241","761996","0.0-203.0-0.0","87600101","wem/bandit_party_1","A1HKCTDOTL6C9I","either","8","721","","","","","","","0","0","1","0.2735804545","","0.2","0.6","0.8","0.4","","","","","0.2480450928","0.1186271452","0.1440802068","0.2735804545","","","","","","","","","","76","L","3","","","162","main_expt",""
"","bandit","242","763814","0.0-204.0-0.0","87600101","wem/bandit_party_1","A1HKCTDOTL6C9I","either","8","306","","","","","","","0","0","1","0.1349250059","","0.2","0.6","0.8","0.4","","","","","0.3217860246","0.1460830151","0.1349250059","0.2219233964","","","","","","","","","","75","K","2","","","163","main_expt",""
"","bandit","243","765661","0.0-205.0-0.0","87600101","wem/bandit_party_1","A1HKCTDOTL6C9I","either","8","334","","","","","","","0","0","1","0.1482528248","","0.2","0.6","0.8","0.4","","","","","0.3528623486","0.1924179555","0.1482528248","0.2489701673","","","","","","","","","","75","K","2","","","164","main_expt",""
"","bandit","244","767534","0.0-206.0-0.0","87600101","wem/bandit_party_1","A1HKCTDOTL6C9I","either","8","359","","","","","","","0","0","1","0.1444116863","","0.2","0.6","0.8","0.4","","","","","0.3113737792","0.1909643941","0.1444116863","0.2424219606","","","","","","","","","","75","K","2","","","165","main_expt",""
"","bandit","245","769485","0.0-207.0-0.0","87600101","wem/bandit_party_1","A1HKCTDOTL6C9I","either","8","438","","","","","","","0","0","1","0.1621449425","","0.2","0.6","0.8","0.4","","","","","0.2820045276","0.1917506842","0.1621449425","0.1899742571","","","","","","","","","","75","K","2","","","166","main_expt",""
"","bandit","246","771292","0.0-208.0-0.0","87600101","wem/bandit_party_1","A1HKCTDOTL6C9I","either","8","297","","","","","","","0","0","1","","0.2298880826","0.2","0.6","0.8","0.4","0.2539690707","0.2238056512","0.1695256229","0.2298880826","","","","","","","","","","","","","","76","L","3","","","167","main_expt",""
"","bandit","247","773117","0.0-209.0-0.0","87600101","wem/bandit_party_1","A1HKCTDOTL6C9I","either","8","315","","","","","","","0","0","1","0.2177565821","","0.2","0.6","0.8","0.4","","","","","0.2177565821","0.2132240521","0.1712445676","0.241220494","","","","","","","","","","72","H","0","img/none_selected.jpg","","168","main_expt",""
"","bandit","248","774981","0.0-210.0-0.0","87600101","wem/bandit_party_1","A1HKCTDOTL6C9I","either","8","353","","","","","","","0","0","1","","0.183214586","0.2","0.6","0.8","0.4","0.183214586","0.1363713625","0.191079104","0.2113351254","","","","","","","","","","","","","","72","H","0","img/none_selected.jpg","","169","main_expt",""
"","bandit","249","776830","0.0-211.0-0.0","87600101","wem/bandit_party_1","A1HKCTDOTL6C9I","either","8","337","","","","","","","0","0","1","","0.1757282231","0.2","0.6","0.8","0.4","0.1757282231","0.2007690262","0.2227666825","0.2224744884","","","","","","","","","","","","","","72","H","0","img/none_selected.jpg","","170","main_expt",""
"","bandit","250","779031","0.0-212.0-0.0","87600101","wem/bandit_party_1","A1HKCTDOTL6C9I","either","8","687","","","","","","","0","0","1","0.1238998316","","0.2","0.6","0.8","0.4","","","","","0.1679331046","0.1238998316","0.2719914804","0.262177911","","","","","","","","","","74","J","1","","","171","main_expt",""
"","bandit","251","780828","0.0-213.0-0.0","87600101","wem/bandit_party_1","A1HKCTDOTL6C9I","either","8","285","","","","","","","0","0","1","0.09746419185","","0.2","0.6","0.8","0.4","","","","","0.14560319","0.09746419185","0.2330128459","0.2822992514","","","","","","","","","","74","J","1","","","172","main_expt",""
"","bandit","252","782645","0.0-214.0-0.0","87600101","wem/bandit_party_1","A1HKCTDOTL6C9I","either","8","306","","","","","","","0","0","1","0.1018164217","","0.2","0.6","0.8","0.4","","","","","0.1341549344","0.1018164217","0.2840251313","0.2545762091","","","","","","","","","","74","J","1","","","173","main_expt",""
"","bandit","253","784982","0.0-215.0-0.0","87600101","wem/bandit_party_1","A1HKCTDOTL6C9I","either","8","824","","","","","","","0","0","1","0.2739042306","","0.2","0.6","0.8","0.4","","","","","0.1471305278","0.1401689619","0.2739042306","0.2838184637","","","","","","","","","","75","K","2","","","174","main_expt",""
"","bandit","254","786813","0.0-216.0-0.0","87600101","wem/bandit_party_1","A1HKCTDOTL6C9I","either","8","318","","","","","","","1","0","0","0.3444735506","","0.2","0.6","0.8","0.4","","","","","0.173963405","0.1697524679","0.3444735506","0.3002790513","","","","","","","","","","75","K","2","","","175","main_expt",""
"","bandit","255","788629","0.0-217.0-0.0","87600101","wem/bandit_party_1","A1HKCTDOTL6C9I","either","8","302","","","","","","","1","0","0","0.3223017316","","0.2","0.6","0.8","0.4","","","","","0.1821857965","0.1896898672","0.3223017316","0.3771690292","","","","","","","","","","75","K","2","","","176","main_expt",""
"","bandit","256","790774","0.0-218.0-0.0","87600101","wem/bandit_party_1","A1HKCTDOTL6C9I","either","8","634","","","","","","","1","0","0","0.2964924158","","0.2","0.6","0.8","0.4","","","","","0.1444884472","0.2441254625","0.2964924158","0.4047809956","","","","","","","","","","75","K","2","","","177","main_expt",""
"","bandit","257","792678","0.0-219.0-0.0","87600101","wem/bandit_party_1","A1HKCTDOTL6C9I","either","8","389","","","","","","","0","0","1","0.2780576925","","0.2","0.6","0.8","0.4","","","","","0.1207783293","0.2427722412","0.2780576925","0.4344960837","","","","","","","","","","75","K","2","","","178","main_expt",""
"","bandit","258","794470","0.0-220.0-0.0","87600101","wem/bandit_party_1","A1HKCTDOTL6C9I","either","8","277","","","","","","","0","0","1","0.2859751729","","0.2","0.6","0.8","0.4","","","","","0.111585665","0.2284650367","0.2859751729","0.4287912686","","","","","","","","","","75","K","2","","","179","main_expt",""
"","bandit","259","796198","0.0-221.0-0.0","87600101","wem/bandit_party_1","A1HKCTDOTL6C9I","either","8","215","","","","","","","0","1","0","","0.4294180747","0.2","0.6","0.8","0.4","0.06891525065","0.2694081366","0.283533164","0.4294180747","","","","","","","","","","","","","","76","L","3","","","180","main_expt",""
"","bandit","260","798135","0.0-222.0-0.0","87600101","wem/bandit_party_1","A1HKCTDOTL6C9I","either","8","425","","","","","","","1","0","0","0.3887332701","","0.2","0.6","0.8","0.4","","","","","0.07407739619","0.2471628034","0.2430023428","0.3887332701","","","","","","","","","","76","L","3","","","181","main_expt",""
"","bandit","261","800001","0.0-223.0-0.0","87600101","wem/bandit_party_1","A1HKCTDOTL6C9I","either","8","351","","","","","","","0","0","1","","0.3910635387","0.2","0.6","0.8","0.4","0.07501704201","0.275372354","0.223254837","0.3910635387","","","","","","","","","","","","","","76","L","3","","","182","main_expt",""
"","bandit","262","802015","0.0-224.0-0.0","87600101","wem/bandit_party_1","A1HKCTDOTL6C9I","either","8","501","","","","","","","0","0","1","","0.2274286797","0.2","0.6","0.8","0.4","0.09354103142","0.2378950907","0.2274286797","0.3957792538","","","","","","","","","","","","","","75","K","2","","","183","main_expt",""
"","bandit","263","803823","0.0-225.0-0.0","87600101","wem/bandit_party_1","A1HKCTDOTL6C9I","either","8","293","","","","","","","0","0","1","","0.2485964068","0.2","0.6","0.8","0.4","0.06673830493","0.2611999536","0.2485964068","0.3777829694","","","","","","","","","","","","","","75","K","2","","","184","main_expt",""
"","bandit","264","805689","0.0-226.0-0.0","87600101","wem/bandit_party_1","A1HKCTDOTL6C9I","either","8","353","","","","","","","0","0","1","","0.4130939835","0.2","0.6","0.8","0.4","0.08617836821","0.2799245071","0.2080173303","0.4130939835","","","","","","","","","","","","","","76","L","3","","","185","main_expt",""
"","bandit","265","807831","0.0-227.0-0.0","87600101","wem/bandit_party_1","A1HKCTDOTL6C9I","either","8","628","","","","","","","0","1","0","","0.376930599","0.2","0.6","0.8","0.4","0.05054014018","0.2275386122","0.2538883687","0.376930599","","","","","","","","","","","","","","76","L","3","","","186","main_expt",""
"","bandit","266","809665","0.0-228.0-0.0","87600101","wem/bandit_party_1","A1HKCTDOTL6C9I","either","8","322","","","","","","","0","0","1","0.3934592684","","0.2","0.6","0.8","0.4","","","","","0.1101456656","0.2558518805","0.2267652077","0.3934592684","","","","","","","","","","76","L","3","","","187","main_expt",""
"","bandit","267","811489","0.0-229.0-0.0","87600101","wem/bandit_party_1","A1HKCTDOTL6C9I","either","8","311","","","","","","","0","0","1","0.4086060551","","0.2","0.6","0.8","0.4","","","","","0.1076418148","0.2757393749","0.2583789709","0.4086060551","","","","","","","","","","76","L","3","","","188","main_expt",""
"","bandit","268","813672","0.0-230.0-0.0","87600101","wem/bandit_party_1","A1HKCTDOTL6C9I","either","8","668","","","","","","","1","0","0","0.447145564","","0.2","0.6","0.8","0.4","","","","","0.1230456027","0.3326758055","0.2329768584","0.447145564","","","","","","","","","","76","L","3","","","189","main_expt",""
"","bandit","269","815520","0.0-231.0-0.0","87600101","wem/bandit_party_1","A1HKCTDOTL6C9I","either","8","335","","","","","","","0","0","1","","0.386091063","0.2","0.6","0.8","0.4","0.1872873117","0.332927569","0.2002510669","0.386091063","","","","","","","","","","","","","","76","L","3","","","190","main_expt",""
"","bandit","270","817416","0.0-232.0-0.0","87600101","wem/bandit_party_1","A1HKCTDOTL6C9I","either","8","383","","","","","","","1","0","0","0.4221145333","","0.2","0.6","0.8","0.4","","","","","0.1413073252","0.3859199101","0.2182600554","0.4221145333","","","","","","","","","","76","L","3","","","191","main_expt",""
"","bandit","271","819615","0.0-233.0-0.0","87600101","wem/bandit_party_1","A1HKCTDOTL6C9I","either","8","685","","","","","","","0","0","1","0.3913199708","","0.2","0.6","0.8","0.4","","","","","0.1868627967","0.392668484","0.2681613901","0.3913199708","","","","","","","","","","76","L","3","","","192","main_expt",""
"","bandit","272","821657","0.0-234.0-0.0","87600101","wem/bandit_party_1","A1HKCTDOTL6C9I","either","8","529","","","","","","","0","0","1","0.4013624592","","0.2","0.6","0.8","0.4","","","","","0.2312719224","0.3789843676","0.3035027483","0.4013624592","","","","","","","","","","76","L","3","","","193","main_expt",""
"","bandit","273","823504","0.0-235.0-0.0","87600101","wem/bandit_party_1","A1HKCTDOTL6C9I","either","8","336","","","","","","","1","0","0","0.275531754","","0.2","0.6","0.8","0.4","","","","","0.2585201677","0.3689216281","0.275531754","0.3668237699","","","","","","","","","","75","K","2","","","194","main_expt",""
"","bandit","274","825425","0.0-236.0-0.0","87600101","wem/bandit_party_1","A1HKCTDOTL6C9I","either","8","410","","","","","","","0","0","1","0.2716401532","","0.2","0.6","0.8","0.4","","","","","0.2786104129","0.4136905162","0.2716401532","0.3856266791","","","","","","","","","","75","K","2","","","195","main_expt",""
"","bandit","275","826954","0.0-237.0-0.0","87600101","wem/bandit_party_1","A1HKCTDOTL6C9I","either","8","13","","","","","","","0","0","1","","0.2814611543","0.2","0.6","0.8","0.4","0.2407834285","0.4258575101","0.2814611543","0.3702439493","","","","","","","","","","","","","","75","K","2","","","196","main_expt",""
"","bandit","276","828881","0.0-238.0-0.0","87600101","wem/bandit_party_1","A1HKCTDOTL6C9I","either","8","409","","","","","","","0","0","1","0.2588010394","","0.2","0.6","0.8","0.4","","","","","0.2550568011","0.3976178043","0.2588010394","0.3665926528","","","","","","","","","","75","K","2","","","197","main_expt",""
"","bandit","277","831009","0.0-239.0-0.0","87600101","wem/bandit_party_1","A1HKCTDOTL6C9I","either","8","611","","","","","","","0","0","1","0.3094610495","","0.2","0.6","0.8","0.4","","","","","0.3094863904","0.3802378075","0.3094610495","0.3432124584","","","","","","","","","","75","K","2","","","198","main_expt",""
"","bandit","278","832849","0.0-240.0-0.0","87600101","wem/bandit_party_1","A1HKCTDOTL6C9I","either","8","328","","","","","","","0","1","0","","0.4096574544","0.2","0.6","0.8","0.4","0.3012985694","0.3926800246","0.3139278769","0.4096574544","","","","","","","","","","","","","","76","L","3","","","199","main_expt",""
"","bandit","279","834778","0.0-241.0-0.0","87600101","wem/bandit_party_1","A1HKCTDOTL6C9I","either","8","416","","","","","","","0","0","1","0.3799023259","","0.2","0.6","0.8","0.4","","","","","0.3149132519","0.3814844917","0.3459706187","0.3799023259","","","","","","","","","","76","L","3","","","200","main_expt",""
"","bandit","280","837106","0.0-242.0-0.0","87600101","wem/bandit_party_1","A1HKCTDOTL6C9I","either","8","816","","","","","","","0","0","1","","0.3513783521","0.2","0.6","0.8","0.4","0.3236307962","0.3831630738","0.3038365479","0.3513783521","","","","","","","","","","","","","","76","L","3","","","201","main_expt",""
"","bandit","281","839018","0.0-243.0-0.0","87600101","wem/bandit_party_1","A1HKCTDOTL6C9I","either","8","399","","","","","","","0","0","1","0.2964599608","","0.2","0.6","0.8","0.4","","","","","0.3163717903","0.3957430938","0.2964599608","0.3439351057","","","","","","","","","","75","K","2","","","202","main_expt",""
"","bandit","282","840850","0.0-244.0-0.0","87600101","wem/bandit_party_1","A1HKCTDOTL6C9I","either","8","314","","","","","","","0","0","1","","0.280336616","0.2","0.6","0.8","0.4","0.3165936227","0.4175506619","0.280336616","0.2615327891","","","","","","","","","","","","","","75","K","2","","","203","main_expt",""
"","bandit","283","843033","0.0-245.0-0.0","87600101","wem/bandit_party_1","A1HKCTDOTL6C9I","either","8","671","","","","","","","0","0","1","0.2211517471","","0.2","0.6","0.8","0.4","","","","","0.3166231072","0.4356800279","0.262900641","0.2211517471","","","","","","","","","","76","L","3","","","204","main_expt",""
"","bandit","284","844961","0.0-246.0-0.0","87600101","wem/bandit_party_1","A1HKCTDOTL6C9I","either","8","416","","","","","","","0","0","1","","0.1955747294","0.2","0.6","0.8","0.4","0.2983153058","0.4342993254","0.3403150927","0.1955747294","","","","","","","","","","","","","","76","L","3","","","205","main_expt",""
"","bandit","285","846747","0.0-247.0-0.0","87600101","wem/bandit_party_1","A1HKCTDOTL6C9I","either","8","272","","","","","","","0","0","1","0.3407188883","","0.2","0.6","0.8","0.4","","","","","0.255573156","0.4515967499","0.3407188883","0.3137251184","","","","","","","","","","75","K","2","","","206","main_expt",""
"","bandit","286","849188","0.0-248.0-0.0","87600101","wem/bandit_party_1","A1HKCTDOTL6C9I","either","8","925","","","","","","","0","0","1","","0.2816724171","0.2","0.6","0.8","0.4","0.2816724171","0.4559700358","0.2955601217","0.2982459604","","","","","","","","","","","","","","72","H","0","img/none_selected.jpg","","207","main_expt",""
"","bandit","287","850987","0.0-249.0-0.0","87600101","wem/bandit_party_1","A1HKCTDOTL6C9I","either","8","286","","","","","","","0","0","1","","0.2462622089","0.2","0.6","0.8","0.4","0.2462622089","0.4711787588","0.2832193826","0.2359404152","","","","","","","","","","","","","","72","H","0","img/none_selected.jpg","","208","main_expt",""
"","bandit","288","852842","0.0-250.0-0.0","87600101","wem/bandit_party_1","A1HKCTDOTL6C9I","either","8","343","","","","","","","0","1","0","","0.2608633631","0.2","0.6","0.8","0.4","0.2608633631","0.4859779177","0.25637755","0.2396635106","","","","","","","","","","","","","","72","H","0","img/none_selected.jpg","","209","main_expt",""
"","bandit","289","854777","0.0-251.0-0.0","87600101","wem/bandit_party_1","A1HKCTDOTL6C9I","either","8","425","","","","","","","0","0","1","","0.2649708152","0.2","0.6","0.8","0.4","0.2649708152","0.4798195452","0.2500912527","0.2320506775","","","","","","","","","","","","","","72","H","0","img/none_selected.jpg","","210","main_expt",""
"","bandit","290","856658","0.0-252.0-0.0","87600101","wem/bandit_party_1","A1HKCTDOTL6C9I","either","8","365","","","","","","","0","0","1","0.2658594566","","0.2","0.6","0.8","0.4","","","","","0.2658594566","0.4754072522","0.2481129288","0.1894847828","","","","","","","","","","72","H","0","img/none_selected.jpg","","211","main_expt",""
"","bandit","291","858523","0.0-253.0-0.0","87600101","wem/bandit_party_1","A1HKCTDOTL6C9I","either","8","352","","","","","","","0","0","1","0.4780703898","","0.2","0.6","0.8","0.4","","","","","0.2648449814","0.4780703898","0.3192168596","0.2330804604","","","","","","","","","","74","J","1","","","212","main_expt",""
"","bandit","292","860414","0.0-254.0-0.0","87600101","wem/bandit_party_1","A1HKCTDOTL6C9I","either","8","378","","","","","","","0","1","0","","0.4883488692","0.2","0.6","0.8","0.4","0.286492297","0.4883488692","0.2361953268","0.2484053244","","","","","","","","","","","","","","74","J","1","","","213","main_expt",""
"","bandit","293","862251","0.0-255.0-0.0","87600101","wem/bandit_party_1","A1HKCTDOTL6C9I","either","8","322","","","","","","","0","0","1","0.4872562331","","0.2","0.6","0.8","0.4","","","","","0.2540339129","0.4872562331","0.2308921763","0.2182548364","","","","","","","","","","74","J","1","","","214","main_expt",""
"","bandit","294","864107","0.0-256.0-0.0","87600101","wem/bandit_party_1","A1HKCTDOTL6C9I","either","8","344","","","","","","","0","0","1","0.4749609167","","0.2","0.6","0.8","0.4","","","","","0.254651127","0.4749609167","0.2161033537","0.1824073789","","","","","","","","","","74","J","1","","","215","main_expt",""
"","bandit","295","865964","0.0-257.0-0.0","87600101","wem/bandit_party_1","A1HKCTDOTL6C9I","either","8","344","","","","","","","1","0","0","0.1896756427","","0.2","0.6","0.8","0.4","","","","","0.3140517816","0.4798413464","0.1896756427","0.1923730387","","","","","","","","","","75","K","2","","","216","main_expt",""
"","bandit","296","867828","0.0-258.0-0.0","87600101","wem/bandit_party_1","A1HKCTDOTL6C9I","either","8","350","","","","","","","0","0","1","0.1724286307","","0.2","0.6","0.8","0.4","","","","","0.3338676317","0.4865144435","0.1724286307","0.2266612446","","","","","","","","","","75","K","2","","","217","main_expt",""
"","bandit","297","869667","0.0-259.0-0.0","87600101","wem/bandit_party_1","A1HKCTDOTL6C9I","either","8","325","","","","","","","0","0","1","0.161168334","","0.2","0.6","0.8","0.4","","","","","0.3397001125","0.4789145001","0.161168334","0.1702705737","","","","","","","","","","75","K","2","","","218","main_expt",""
"","bandit","298","871852","0.0-260.0-0.0","87600101","wem/bandit_party_1","A1HKCTDOTL6C9I","either","8","674","","","","","","","0","0","1","0.2021763003","","0.2","0.6","0.8","0.4","","","","","0.2982528089","0.4834748692","0.2021763003","0.1159766116","","","","","","","","","","75","K","2","","","219","main_expt",""
"","bandit","299","873716","0.0-261.0-0.0","87600101","wem/bandit_party_1","A1HKCTDOTL6C9I","either","8","351","","","","","","","0","0","1","0.2142164272","","0.2","0.6","0.8","0.4","","","","","0.2770934022","0.4722371777","0.2142164272","0.09529473055","","","","","","","","","","75","K","2","","","220","main_expt",""
"","bandit","300","875548","0.0-262.0-0.0","87600101","wem/bandit_party_1","A1HKCTDOTL6C9I","either","8","320","","","","","","","0","0","1","0.09060922323","","0.2","0.6","0.8","0.4","","","","","0.2696770889","0.4654689219","0.189068297","0.09060922323","","","","","","","","","","76","L","3","","","221","main_expt",""
"","bandit","301","877708","0.0-263.0-0.0","87600101","wem/bandit_party_1","A1HKCTDOTL6C9I","either","8","647","","","","","","","0","0","1","0.1250772464","","0.2","0.6","0.8","0.4","","","","","0.3103502417","0.4533789701","0.2120997892","0.1250772464","","","","","","","","","","76","L","3","","","222","main_expt",""
"","bandit","302","879548","0.0-264.0-0.0","87600101","wem/bandit_party_1","A1HKCTDOTL6C9I","either","8","329","","","","","","","0","0","1","","0.1177235221","0.2","0.6","0.8","0.4","0.3477728299","0.4473019993","0.1937664477","0.1177235221","","","","","","","","","","","","","","76","L","3","","","223","main_expt",""
"","bandit","303","881364","0.0-265.0-0.0","87600101","wem/bandit_party_1","A1HKCTDOTL6C9I","either","8","304","","","","","","","0","0","1","","0.1589673504","0.2","0.6","0.8","0.4","0.3230244909","0.4651086175","0.2195846313","0.1589673504","","","","","","","","","","","","","","76","L","3","","","224","main_expt",""
"","bandit","304","883158","0.0-266.0-0.0","87600101","wem/bandit_party_1","A1HKCTDOTL6C9I","either","8","281","","","","","","","0","0","1","0.4704934375","","0.2","0.6","0.8","0.4","","","","","0.3641913847","0.4704934375","0.1973587738","0.1582937281","","","","","","","","","","74","J","1","","","225","main_expt",""
"","bandit","305","885052","0.0-267.0-0.0","87600101","wem/bandit_party_1","A1HKCTDOTL6C9I","either","8","380","","","","","","","0","1","0","","0.3211822138","0.2","0.6","0.8","0.4","0.3211822138","0.4545632724","0.2029059012","0.1585786296","","","","","","","","","","","","","","72","H","0","img/none_selected.jpg","","226","main_expt",""
"","bandit","306","886852","0.0-268.0-0.0","87600101","wem/bandit_party_1","A1HKCTDOTL6C9I","either","8","287","","","","","","","0","0","1","","0.3318596792","0.2","0.6","0.8","0.4","0.3318596792","0.4313330006","0.1677618241","0.1614007709","","","","","","","","","","","","","","72","H","0","img/none_selected.jpg","","227","main_expt",""
"","bandit","307","888908","0.0-269.0-0.0","87600101","wem/bandit_party_1","A1HKCTDOTL6C9I","either","8","544","","","","","","","0","0","1","0.2079318551","","0.2","0.6","0.8","0.4","","","","","0.3715738924","0.4253897179","0.2079318551","0.1160982884","","","","","","","","","","75","K","2","","","228","main_expt",""
"","bandit","308","890821","0.0-270.0-0.0","87600101","wem/bandit_party_1","A1HKCTDOTL6C9I","either","8","399","","","","","","","0","0","1","0.3571583743","","0.2","0.6","0.8","0.4","","","","","0.3571583743","0.4416009531","0.1860779256","0.1327168588","","","","","","","","","","72","H","0","img/none_selected.jpg","","229","main_expt",""
"","bandit","309","892668","0.0-271.0-0.0","87600101","wem/bandit_party_1","A1HKCTDOTL6C9I","either","8","335","","","","","","","0","0","1","0.1751239199","","0.2","0.6","0.8","0.4","","","","","0.3455313741","0.4612445757","0.1294985144","0.1751239199","","","","","","","","","","76","L","3","","","230","main_expt",""
"","bandit","310","894974","0.0-272.0-0.0","87600101","wem/bandit_party_1","A1HKCTDOTL6C9I","either","8","794","","","","","","","0","0","1","0.2080149414","","0.2","0.6","0.8","0.4","","","","","0.3114256563","0.4455927364","0.1424139305","0.2080149414","","","","","","","","","","76","L","3","","","231","main_expt",""
"","bandit","311","896789","0.0-273.0-0.0","87600101","wem/bandit_party_1","A1HKCTDOTL6C9I","either","8","303","","","","","","","0","0","1","","0.1777617008","0.2","0.6","0.8","0.4","0.3127001645","0.4449483857","0.1777617008","0.2305008548","","","","","","","","","","","","","","75","K","2","","","232","main_expt",""
"","bandit","312","898615","0.0-274.0-0.0","87600101","wem/bandit_party_1","A1HKCTDOTL6C9I","either","8","312","","","","","","","1","0","0","0.1408291819","","0.2","0.6","0.8","0.4","","","","","0.2953609795","0.4570404202","0.1408291819","0.2331895239","","","","","","","","","","75","K","2","","","233","main_expt",""
"","bandit","313","900823","0.0-275.0-0.0","87600101","wem/bandit_party_1","A1HKCTDOTL6C9I","either","8","695","","","","","","","0","0","1","0.09563300426","","0.2","0.6","0.8","0.4","","","","","0.2743769666","0.4785018613","0.09563300426","0.2007149185","","","","","","","","","","75","K","2","","","234","main_expt",""
"","bandit","314","902725","0.0-276.0-0.0","87600101","wem/bandit_party_1","A1HKCTDOTL6C9I","either","8","390","","","","","","","0","0","1","","0.06508254785","0.2","0.6","0.8","0.4","0.2842570603","0.4708517218","0.06508254785","0.1428876463","","","","","","","","","","","","","","75","K","2","","","235","main_expt",""
"","bandit","315","904589","0.0-277.0-0.0","87600101","wem/bandit_party_1","A1HKCTDOTL6C9I","either","8","351","","","","","","","0","0","1","0.05272484418","","0.2","0.6","0.8","0.4","","","","","0.3536106974","0.4721911582","0.05272484418","0.1327756685","","","","","","","","","","75","K","2","","","236","main_expt",""
"","bandit","316","906790","0.0-278.0-0.0","87600101","wem/bandit_party_1","A1HKCTDOTL6C9I","either","8","687","","","","","","","0","0","1","","0.3777879982","0.2","0.6","0.8","0.4","0.3777879982","0.4567984566","0.05000735717","0.1969646424","","","","","","","","","","","","","","72","H","0","img/none_selected.jpg","","237","main_expt",""
