"consent","trial_type","trial_index","time_elapsed","internal_node_id","subjID","study","MID","cond","drift","rt","responses","button_pressed","key_press","like","value","connected","gems","bombs","no_reward","GemPrChosen","BombPrChosen","GainOverPainPr_0","GainOverPainPr_1","GainOverPainPr_2","GainOverPainPr_3","LosePr_0","LosePr_1","LosePr_2","LosePr_3","WinPr_0","WinPr_1","WinPr_2","WinPr_3","Q0","Q1","Q2","gender","age","ethnicity","label","expt_phase","target","respCharCode","respKey","respChoiceNum","respChoice","practice","trial_counter","trial_label","Q0_index"
"GDM/GDM_behavioral_consent_30min_online.html","consent","0","10238","0.0-0.0","88081406","wem/bandit_party_1","A2NTS2HNDOLRCR","either","4","","","","","","","","","","","","","","","","","","","","","","","","","","","","","","","","","","","","","","","","",""
"","survey-text","1","26186","0.0-1.0","88081406","wem/bandit_party_1","A2NTS2HNDOLRCR","either","4","14945","{""Q0"":""A2NTS2HNDOLRCR""}","","","","","","","","","","","","","","","","","","","","","","","","","","","","","","","","","","","","","","",""
"","button-response","2","28579","0.0-2.0","88081406","wem/bandit_party_1","A2NTS2HNDOLRCR","either","4","1390","","1","","","","","","","","","","","","","","","","","","","","","","","","","","","","","","","","","","","","","",""
"","text-replacement","3","37878","0.0-3.0","88081406","wem/bandit_party_1","A2NTS2HNDOLRCR","either","4","8297","","","32","","","","","","","","","","","","","","","","","","","","","","","","","","","","","","","","","","","","",""
"","text-replacement","4","45248","0.0-4.0","88081406","wem/bandit_party_1","A2NTS2HNDOLRCR","either","4","7369","","","32","","","","","","","","","","","","","","","","","","","","","","","","","","","","","","","","","","","","",""
"","identification","5","51540","0.0-6.0-0.0","88081406","wem/bandit_party_1","A2NTS2HNDOLRCR","either","4","6286","","","","4","4","4","","","","","","","","","","","","","","","","","","","","","","","","pre","identification_pre","the Democratic Party","","","","","","","",""
"","identification","6","54152","0.0-6.0-1.0","88081406","wem/bandit_party_1","A2NTS2HNDOLRCR","either","4","1607","","","","2","2","2","","","","","","","","","","","","","","","","","","","","","","","","pre","identification_pre","the Republican party","","","","","","","",""
"","text-replacement","7","59859","0.0-7.0","88081406","wem/bandit_party_1","A2NTS2HNDOLRCR","either","4","4705","","","32","","","","","","","","","","","","","","","","","","","","","","","","","","","","","","","","","","","","",""
"","text-replacement","8","60349","0.0-8.0","88081406","wem/bandit_party_1","A2NTS2HNDOLRCR","either","4","490","","","32","","","","","","","","","","","","","","","","","","","","","","","","","","","","","","","","","","","","",""
"","text-replacement","9","66829","0.0-9.0","88081406","wem/bandit_party_1","A2NTS2HNDOLRCR","either","4","6478","","","32","","","","","","","","","","","","","","","","","","","","","","","","","","","","","","","","","","","","",""
"","text-replacement","10","69529","0.0-10.0","88081406","wem/bandit_party_1","A2NTS2HNDOLRCR","either","4","2700","","","32","","","","","","","","","","","","","","","","","","","","","","","","","","","","","","","","","","","","",""
"","text-replacement","11","72420","0.0-11.0","88081406","wem/bandit_party_1","A2NTS2HNDOLRCR","either","4","2890","","","32","","","","","","","","","","","","","","","","","","","","","","","","","","","","","","","","","","","","",""
"","bandit","12","76181","0.0-12.0-0.0","88081406","wem/bandit_party_1","A2NTS2HNDOLRCR","either","4","2257","","","","","","","0","0","1","0","0","","","","","0","","","","0","","","","","","","","","","","","","74","J","0","img/none_selected_demo.jpg","true","0","",""
"","bandit","13","78812","0.0-13.0-0.0","88081406","wem/bandit_party_1","A2NTS2HNDOLRCR","either","4","1129","","","","","","","0","0","1","0","0","","","","","0","","","","0","","","","","","","","","","","","","75","K","0","img/none_selected_demo.jpg","true","0","",""
"","text-replacement","14","83653","0.0-14.0","88081406","wem/bandit_party_1","A2NTS2HNDOLRCR","either","4","4841","","","32","","","","","","","","","","","","","","","","","","","","","","","","","","","","","","","","","","","","",""
"","text-replacement","15","91822","0.0-15.0","88081406","wem/bandit_party_1","A2NTS2HNDOLRCR","either","4","8168","","","32","","","","","","","","","","","","","","","","","","","","","","","","","","","","","","","","","","","","",""
"","text-replacement","16","96609","0.0-16.0","88081406","wem/bandit_party_1","A2NTS2HNDOLRCR","either","4","4787","","","32","","","","","","","","","","","","","","","","","","","","","","","","","","","","","","","","","","","","",""
"","text-replacement","17","99342","0.0-17.0","88081406","wem/bandit_party_1","A2NTS2HNDOLRCR","either","4","2733","","","32","","","","","","","","","","","","","","","","","","","","","","","","","","","","","","","","","","","","",""
"","bandit","18","101773","0.0-18.0-0.0","88081406","wem/bandit_party_1","A2NTS2HNDOLRCR","either","4","928","","","","","","","0","1","0","","0.8","0.5","0.5","","","0.8","0.2","","","","","","","","","","","","","","","","74","J","0","img/none_selected_demo.jpg","true","0","80_20_practice",""
"","bandit","19","103911","0.0-18.0-1.0","88081406","wem/bandit_party_1","A2NTS2HNDOLRCR","either","4","636","","","","","","","0","1","0","","0.8","0.5","0.5","","","0.8","0.2","","","","","","","","","","","","","","","","74","J","0","img/none_selected_demo.jpg","true","0","80_20_practice",""
"","bandit","20","105762","0.0-18.0-2.0","88081406","wem/bandit_party_1","A2NTS2HNDOLRCR","either","4","349","","","","","","","0","1","0","","0.8","0.5","0.5","","","0.8","0.2","","","","","","","","","","","","","","","","74","J","0","img/none_selected_demo.jpg","true","0","80_20_practice",""
"","bandit","21","107437","0.0-18.0-3.0","88081406","wem/bandit_party_1","A2NTS2HNDOLRCR","either","4","173","","","","","","","0","0","1","","0.8","0.5","0.5","","","0.8","0.2","","","","","","","","","","","","","","","","74","J","0","img/none_selected_demo.jpg","true","0","80_20_practice",""
"","bandit","22","109197","0.0-18.0-4.0","88081406","wem/bandit_party_1","A2NTS2HNDOLRCR","either","4","257","","","","","","","1","0","0","0.8","","0.5","0.5","","","","","","","0.8","0.2","","","","","","","","","","","","74","J","0","img/none_selected_demo.jpg","true","0","80_20_practice",""
"","bandit","23","110932","0.0-18.0-5.0","88081406","wem/bandit_party_1","A2NTS2HNDOLRCR","either","4","233","","","","","","","0","1","0","","0.8","0.5","0.5","","","0.8","0.2","","","","","","","","","","","","","","","","74","J","0","img/none_selected_demo.jpg","true","0","80_20_practice",""
"","bandit","24","112701","0.0-18.0-6.0","88081406","wem/bandit_party_1","A2NTS2HNDOLRCR","either","4","267","","","","","","","0","1","0","","0.8","0.5","0.5","","","0.8","0.2","","","","","","","","","","","","","","","","74","J","0","img/none_selected_demo.jpg","true","0","80_20_practice",""
"","bandit","25","114446","0.0-18.0-7.0","88081406","wem/bandit_party_1","A2NTS2HNDOLRCR","either","4","244","","","","","","","1","0","0","0.8","","0.5","0.5","","","","","","","0.8","0.2","","","","","","","","","","","","74","J","0","img/none_selected_demo.jpg","true","0","80_20_practice",""
"","bandit","26","116105","0.0-18.0-8.0","88081406","wem/bandit_party_1","A2NTS2HNDOLRCR","either","4","156","","","","","","","1","0","0","0.8","","0.5","0.5","","","","","","","0.8","0.2","","","","","","","","","","","","74","J","0","img/none_selected_demo.jpg","true","0","80_20_practice",""
"","bandit","27","117642","0.0-18.0-9.0","88081406","wem/bandit_party_1","A2NTS2HNDOLRCR","either","4","36","","","","","","","0","0","1","","0.8","0.5","0.5","","","0.8","0.2","","","","","","","","","","","","","","","","74","J","0","img/none_selected_demo.jpg","true","0","80_20_practice",""
"","bandit","28","119690","0.0-18.0-10.0","88081406","wem/bandit_party_1","A2NTS2HNDOLRCR","either","4","545","","","","","","","1","0","0","0.8","","0.5","0.5","","","","","","","0.8","0.2","","","","","","","","","","","","74","J","0","img/none_selected_demo.jpg","true","0","80_20_practice",""
"","bandit","29","121475","0.0-18.0-11.0","88081406","wem/bandit_party_1","A2NTS2HNDOLRCR","either","4","283","","","","","","","0","1","0","","0.2","0.5","0.5","","","0.8","0.2","","","","","","","","","","","","","","","","75","K","1","","true","0","80_20_practice",""
"","bandit","30","123197","0.0-18.0-12.0","88081406","wem/bandit_party_1","A2NTS2HNDOLRCR","either","4","220","","","","","","","0","0","1","","0.2","0.5","0.5","","","0.8","0.2","","","","","","","","","","","","","","","","75","K","1","","true","0","80_20_practice",""
"","bandit","31","124730","0.0-18.0-13.0","88081406","wem/bandit_party_1","A2NTS2HNDOLRCR","either","4","31","","","","","","","0","0","1","","0.2","0.5","0.5","","","0.8","0.2","","","","","","","","","","","","","","","","75","K","1","","true","0","80_20_practice",""
"","bandit","32","126264","0.0-18.0-14.0","88081406","wem/bandit_party_1","A2NTS2HNDOLRCR","either","4","33","","","","","","","0","1","0","","0.8","0.5","0.5","","","0.8","0.2","","","","","","","","","","","","","","","","74","J","0","img/none_selected_demo.jpg","true","0","80_20_practice",""
"","bandit","33","127872","0.0-18.0-15.0","88081406","wem/bandit_party_1","A2NTS2HNDOLRCR","either","4","106","","","","","","","0","1","0","","0.8","0.5","0.5","","","0.8","0.2","","","","","","","","","","","","","","","","74","J","0","img/none_selected_demo.jpg","true","0","80_20_practice",""
"","bandit","34","129444","0.0-18.0-16.0","88081406","wem/bandit_party_1","A2NTS2HNDOLRCR","either","4","70","","","","","","","0","1","0","","0.8","0.5","0.5","","","0.8","0.2","","","","","","","","","","","","","","","","74","J","0","img/none_selected_demo.jpg","true","0","80_20_practice",""
"","bandit","35","131089","0.0-18.0-17.0","88081406","wem/bandit_party_1","A2NTS2HNDOLRCR","either","4","143","","","","","","","1","0","0","0.8","","0.5","0.5","","","","","","","0.8","0.2","","","","","","","","","","","","74","J","0","img/none_selected_demo.jpg","true","0","80_20_practice",""
"","bandit","36","132728","0.0-18.0-18.0","88081406","wem/bandit_party_1","A2NTS2HNDOLRCR","either","4","138","","","","","","","1","0","0","0.8","","0.5","0.5","","","","","","","0.8","0.2","","","","","","","","","","","","74","J","0","img/none_selected_demo.jpg","true","0","80_20_practice",""
"","bandit","37","134311","0.0-18.0-19.0","88081406","wem/bandit_party_1","A2NTS2HNDOLRCR","either","4","81","","","","","","","0","1","0","","0.8","0.5","0.5","","","0.8","0.2","","","","","","","","","","","","","","","","74","J","0","img/none_selected_demo.jpg","true","0","80_20_practice",""
"","text-replacement","38","137796","0.0-19.0","88081406","wem/bandit_party_1","A2NTS2HNDOLRCR","either","4","3484","","","32","","","","","","","","","","","","","","","","","","","","","","","","","","","","","","","","","","","","",""
"","bandit","39","140822","0.0-20.0-0.0","88081406","wem/bandit_party_1","A2NTS2HNDOLRCR","either","4","1524","","","","","","","1","0","0","1","0","","","","","0","1","","","1","0","","","","","","","","","","","","74","J","0","img/none_selected_demo.jpg","true","0","",""
"","text-replacement","40","144350","0.0-21.0","88081406","wem/bandit_party_1","A2NTS2HNDOLRCR","either","4","3527","","","32","","","","","","","","","","","","","","","","","","","","","","","","","","","","","","","","","","","","",""
"","text-replacement","41","146733","0.0-22.0","88081406","wem/bandit_party_1","A2NTS2HNDOLRCR","either","4","2382","","","32","","","","","","","","","","","","","","","","","","","","","","","","","","","","","","","","","","","","",""
"","text-replacement","42","147580","0.0-23.0","88081406","wem/bandit_party_1","A2NTS2HNDOLRCR","either","4","845","","","32","","","","","","","","","","","","","","","","","","","","","","","","","","","","","","","","","","","","",""
"","text-replacement","43","149381","0.0-24.0","88081406","wem/bandit_party_1","A2NTS2HNDOLRCR","either","4","1800","","","32","","","","","","","","","","","","","","","","","","","","","","","","","","","","","","","","","","","","",""
"","text-replacement","44","154146","0.0-25.0","88081406","wem/bandit_party_1","A2NTS2HNDOLRCR","either","4","4765","","","32","","","","","","","","","","","","","","","","","","","","","","","","","","","","","","","","","","","","",""
"","text-replacement","45","156518","0.0-26.0","88081406","wem/bandit_party_1","A2NTS2HNDOLRCR","either","4","2370","","","32","","","","","","","","","","","","","","","","","","","","","","","","","","","","","","","","","","","","",""
"","text-replacement","46","159673","0.0-27.0","88081406","wem/bandit_party_1","A2NTS2HNDOLRCR","either","4","3154","","","32","","","","","","","","","","","","","","","","","","","","","","","","","","","","","","","","","","","","",""
"","text-replacement","47","163194","0.0-28.0","88081406","wem/bandit_party_1","A2NTS2HNDOLRCR","either","4","3520","","","32","","","","","","","","","","","","","","","","","","","","","","","","","","","","","","","","","","","","",""
"","text-replacement","48","165510","0.0-29.0","88081406","wem/bandit_party_1","A2NTS2HNDOLRCR","either","4","2315","","","32","","","","","","","","","","","","","","","","","","","","","","","","","","","","","","","","","","","","",""
"","text-replacement","49","166944","0.0-30.0","88081406","wem/bandit_party_1","A2NTS2HNDOLRCR","either","4","1433","","","32","","","","","","","","","","","","","","","","","","","","","","","","","","","","","","","","","","","","",""
"","text-replacement","50","167893","0.0-31.0","88081406","wem/bandit_party_1","A2NTS2HNDOLRCR","either","4","948","","","32","","","","","","","","","","","","","","","","","","","","","","","","","","","","","","","","","","","","",""
"","bandit","51","171467","0.0-32.0-0.0","88081406","wem/bandit_party_1","A2NTS2HNDOLRCR","either","4","2071","","","","","","","0","0","1","","0.8","0.5","0.5","0.5","0.5","0.8","0.2","0.6","0.2","","","","","","","","","","","","","","72","H","0","img/none_selected.jpg","true","0","full_practice",""
"","bandit","52","173461","0.0-32.0-1.0","88081406","wem/bandit_party_1","A2NTS2HNDOLRCR","either","4","493","","","","","","","0","1","0","","0.8","0.5","0.5","0.5","0.5","0.8","0.2","0.6","0.2","","","","","","","","","","","","","","72","H","0","img/none_selected.jpg","true","0","full_practice",""
"","bandit","53","176203","0.0-32.0-2.0","88081406","wem/bandit_party_1","A2NTS2HNDOLRCR","either","4","1239","","","","","","","0","1","0","","0.8","0.5","0.5","0.5","0.5","0.8","0.2","0.6","0.2","","","","","","","","","","","","","","72","H","0","img/none_selected.jpg","true","0","full_practice",""
"","bandit","54","178021","0.0-32.0-3.0","88081406","wem/bandit_party_1","A2NTS2HNDOLRCR","either","4","317","","","","","","","1","0","0","0.8","","0.5","0.5","0.5","0.5","","","","","0.8","0.2","0.6","0.2","","","","","","","","","","72","H","0","img/none_selected.jpg","true","0","full_practice",""
"","bandit","55","179811","0.0-32.0-4.0","88081406","wem/bandit_party_1","A2NTS2HNDOLRCR","either","4","287","","","","","","","0","1","0","","0.8","0.5","0.5","0.5","0.5","0.8","0.2","0.6","0.2","","","","","","","","","","","","","","72","H","0","img/none_selected.jpg","true","0","full_practice",""
"","bandit","56","181623","0.0-32.0-5.0","88081406","wem/bandit_party_1","A2NTS2HNDOLRCR","either","4","309","","","","","","","0","1","0","","0.8","0.5","0.5","0.5","0.5","0.8","0.2","0.6","0.2","","","","","","","","","","","","","","72","H","0","img/none_selected.jpg","true","0","full_practice",""
"","bandit","57","183212","0.0-32.0-6.0","88081406","wem/bandit_party_1","A2NTS2HNDOLRCR","either","4","88","","","","","","","1","0","0","0.8","","0.5","0.5","0.5","0.5","","","","","0.8","0.2","0.6","0.2","","","","","","","","","","72","H","0","img/none_selected.jpg","true","0","full_practice",""
"","bandit","58","184834","0.0-32.0-7.0","88081406","wem/bandit_party_1","A2NTS2HNDOLRCR","either","4","119","","","","","","","0","1","0","","0.8","0.5","0.5","0.5","0.5","0.8","0.2","0.6","0.2","","","","","","","","","","","","","","72","H","0","img/none_selected.jpg","true","0","full_practice",""
"","bandit","59","186450","0.0-32.0-8.0","88081406","wem/bandit_party_1","A2NTS2HNDOLRCR","either","4","115","","","","","","","0","1","0","","0.8","0.5","0.5","0.5","0.5","0.8","0.2","0.6","0.2","","","","","","","","","","","","","","72","H","0","img/none_selected.jpg","true","0","full_practice",""
"","bandit","60","188063","0.0-32.0-9.0","88081406","wem/bandit_party_1","A2NTS2HNDOLRCR","either","4","112","","","","","","","0","1","0","","0.8","0.5","0.5","0.5","0.5","0.8","0.2","0.6","0.2","","","","","","","","","","","","","","72","H","0","img/none_selected.jpg","true","0","full_practice",""
"","bandit","61","189710","0.0-32.0-10.0","88081406","wem/bandit_party_1","A2NTS2HNDOLRCR","either","4","145","","","","","","","1","0","0","0.8","","0.5","0.5","0.5","0.5","","","","","0.8","0.2","0.6","0.2","","","","","","","","","","72","H","0","img/none_selected.jpg","true","0","full_practice",""
"","bandit","62","191320","0.0-32.0-11.0","88081406","wem/bandit_party_1","A2NTS2HNDOLRCR","either","4","109","","","","","","","1","0","0","0.8","","0.5","0.5","0.5","0.5","","","","","0.8","0.2","0.6","0.2","","","","","","","","","","72","H","0","img/none_selected.jpg","true","0","full_practice",""
"","bandit","63","192927","0.0-32.0-12.0","88081406","wem/bandit_party_1","A2NTS2HNDOLRCR","either","4","105","","","","","","","0","0","1","","0.8","0.5","0.5","0.5","0.5","0.8","0.2","0.6","0.2","","","","","","","","","","","","","","72","H","0","img/none_selected.jpg","true","0","full_practice",""
"","bandit","64","194458","0.0-32.0-13.0","88081406","wem/bandit_party_1","A2NTS2HNDOLRCR","either","4","29","","","","","","","1","0","0","0.8","","0.5","0.5","0.5","0.5","","","","","0.8","0.2","0.6","0.2","","","","","","","","","","72","H","0","img/none_selected.jpg","true","0","full_practice",""
"","bandit","65","196049","0.0-32.0-14.0","88081406","wem/bandit_party_1","A2NTS2HNDOLRCR","either","4","90","","","","","","","0","1","0","","0.8","0.5","0.5","0.5","0.5","0.8","0.2","0.6","0.2","","","","","","","","","","","","","","72","H","0","img/none_selected.jpg","true","0","full_practice",""
"","bandit","66","197755","0.0-32.0-15.0","88081406","wem/bandit_party_1","A2NTS2HNDOLRCR","either","4","205","","","","","","","1","0","0","0.8","","0.5","0.5","0.5","0.5","","","","","0.8","0.2","0.6","0.2","","","","","","","","","","72","H","0","img/none_selected.jpg","true","0","full_practice",""
"","bandit","67","199283","0.0-32.0-16.0","88081406","wem/bandit_party_1","A2NTS2HNDOLRCR","either","4","26","","","","","","","0","1","0","","0.8","0.5","0.5","0.5","0.5","0.8","0.2","0.6","0.2","","","","","","","","","","","","","","72","H","0","img/none_selected.jpg","true","0","full_practice",""
"","bandit","68","200832","0.0-32.0-17.0","88081406","wem/bandit_party_1","A2NTS2HNDOLRCR","either","4","47","","","","","","","0","1","0","","0.8","0.5","0.5","0.5","0.5","0.8","0.2","0.6","0.2","","","","","","","","","","","","","","72","H","0","img/none_selected.jpg","true","0","full_practice",""
"","bandit","69","202448","0.0-32.0-18.0","88081406","wem/bandit_party_1","A2NTS2HNDOLRCR","either","4","115","","","","","","","0","1","0","","0.8","0.5","0.5","0.5","0.5","0.8","0.2","0.6","0.2","","","","","","","","","","","","","","72","H","0","img/none_selected.jpg","true","0","full_practice",""
"","bandit","70","204092","0.0-32.0-19.0","88081406","wem/bandit_party_1","A2NTS2HNDOLRCR","either","4","142","","","","","","","0","1","0","","0.8","0.5","0.5","0.5","0.5","0.8","0.2","0.6","0.2","","","","","","","","","","","","","","72","H","0","img/none_selected.jpg","true","0","full_practice",""
"","text","71","206201","0.0-33.0","88081406","wem/bandit_party_1","A2NTS2HNDOLRCR","either","4","2105","","","32","","","","","","","","","","","","","","","","","","","","","","","","","","","","","","","","","","","","",""
"","text-replacement","72","218862","0.0-34.0","88081406","wem/bandit_party_1","A2NTS2HNDOLRCR","either","4","11659","","","32","","","","","","","","","","","","","","","","","","","","","","","","","","","","","","","","","","","","",""
"","text-replacement","73","226750","0.0-35.0","88081406","wem/bandit_party_1","A2NTS2HNDOLRCR","either","4","7886","","","32","","","","","","","","","","","","","","","","","","","","","","","","","","","","","","","","","","","","",""
"","text-replacement","74","230068","0.0-36.0","88081406","wem/bandit_party_1","A2NTS2HNDOLRCR","either","4","3318","","","32","","","","","","","","","","","","","","","","","","","","","","","","","","","","","","","","","","","","",""
"","text-replacement","75","233061","0.0-37.0","88081406","wem/bandit_party_1","A2NTS2HNDOLRCR","either","4","2991","","","32","","","","","","","","","","","","","","","","","","","","","","","","","","","","","","","","","","","","",""
"","text-replacement","76","234569","0.0-38.0","88081406","wem/bandit_party_1","A2NTS2HNDOLRCR","either","4","1507","","","32","","","","","","","","","","","","","","","","","","","","","","","","","","","","","","","","","","","","",""
"","survey-multi-choice-replacement","77","238983","0.0-39.0-0.0","88081406","wem/bandit_party_1","A2NTS2HNDOLRCR","either","4","4410","","","","","","","","","","","","","","","","","","","","","","","","Money will be added to the pool for <span style='color:blue;'>DEMOCRATS</span>","","","","","","","attn_check","","","","","","","","","0"
"","survey-multi-choice-replacement","78","244744","0.0-40.0-0.0","88081406","wem/bandit_party_1","A2NTS2HNDOLRCR","either","4","4757","","","","","","","","","","","","","","","","","","","","","","","","Equal amounts of money will be added to the pool for <span style='color:blue;'>DEMOCRATS</span> and subtracted from the pool for <span style='color:red;'>REPUBLICANS</span>","","","","","","","attn_check","","","","","","","","","2"
"","survey-multi-choice-replacement","79","247981","0.0-41.0-0.0","88081406","wem/bandit_party_1","A2NTS2HNDOLRCR","either","4","2231","","","","","","","","","","","","","","","","","","","","","","","","No money will be added to either pool","","","","","","","attn_check","","","","","","","","","3"
"","bandit","80","252938","0.0-42.0-0.0","88081406","wem/bandit_party_1","A2NTS2HNDOLRCR","either","4","2453","","","","","","","1","0","0","0.3525715257","","0.6","0.8","0.2","0.4","","","","","0.3525715257","0.2771551185","0.3894728165","0.3242650943","","","","","","","","","","72","H","0","img/none_selected.jpg","","1","main_expt",""
"","bandit","81","255070","0.0-43.0-0.0","88081406","wem/bandit_party_1","A2NTS2HNDOLRCR","either","4","630","","","","","","","0","1","0","","0.390153736","0.6","0.8","0.2","0.4","0.390153736","0.3030893157","0.363660736","0.3296228245","","","","","","","","","","","","","","72","H","0","img/none_selected.jpg","","2","main_expt",""
"","bandit","82","256981","0.0-44.0-0.0","88081406","wem/bandit_party_1","A2NTS2HNDOLRCR","either","4","409","","","","","","","0","0","1","0.3725447061","","0.6","0.8","0.2","0.4","","","","","0.3725447061","0.3211059343","0.3842171554","0.3102780753","","","","","","","","","","72","H","0","img/none_selected.jpg","","3","main_expt",""
"","bandit","83","258756","0.0-45.0-0.0","88081406","wem/bandit_party_1","A2NTS2HNDOLRCR","either","4","272","","","","","","","0","1","0","","0.3431524481","0.6","0.8","0.2","0.4","0.3431524481","0.2804386453","0.3831963053","0.2749892112","","","","","","","","","","","","","","72","H","0","img/none_selected.jpg","","4","main_expt",""
"","bandit","84","260524","0.0-46.0-0.0","88081406","wem/bandit_party_1","A2NTS2HNDOLRCR","either","4","266","","","","","","","0","0","1","","0.3448007793","0.6","0.8","0.2","0.4","0.3448007793","0.2609559086","0.4056596471","0.3037824898","","","","","","","","","","","","","","72","H","0","img/none_selected.jpg","","5","main_expt",""
"","bandit","85","262333","0.0-47.0-0.0","88081406","wem/bandit_party_1","A2NTS2HNDOLRCR","either","4","306","","","","","","","1","0","0","0.3980888019","","0.6","0.8","0.2","0.4","","","","","0.3980888019","0.2259287768","0.4409946319","0.3217417103","","","","","","","","","","72","H","0","img/none_selected.jpg","","6","main_expt",""
"","bandit","86","264069","0.0-48.0-0.0","88081406","wem/bandit_party_1","A2NTS2HNDOLRCR","either","4","234","","","","","","","0","0","1","0.3693121862","","0.6","0.8","0.2","0.4","","","","","0.3693121862","0.2433618728","0.3821747998","0.3018715163","","","","","","","","","","72","H","0","img/none_selected.jpg","","7","main_expt",""
"","bandit","87","265843","0.0-49.0-0.0","88081406","wem/bandit_party_1","A2NTS2HNDOLRCR","either","4","270","","","","","","","0","0","1","0.2933697555","","0.6","0.8","0.2","0.4","","","","","0.2933697555","0.2025356769","0.3841844813","0.3643645816","","","","","","","","","","72","H","0","img/none_selected.jpg","","8","main_expt",""
"","bandit","88","267560","0.0-50.0-0.0","88081406","wem/bandit_party_1","A2NTS2HNDOLRCR","either","4","215","","","","","","","0","0","1","0.1441028094","","0.6","0.8","0.2","0.4","","","","","0.3036212831","0.1441028094","0.3412237964","0.3418610374","","","","","","","","","","74","J","1","","","9","main_expt",""
"","bandit","89","269310","0.0-51.0-0.0","88081406","wem/bandit_party_1","A2NTS2HNDOLRCR","either","4","245","","","","","","","0","0","1","0.1736005971","","0.6","0.8","0.2","0.4","","","","","0.308020301","0.1736005971","0.3256420777","0.3190157878","","","","","","","","","","74","J","1","","","10","main_expt",""
"","bandit","90","271018","0.0-52.0-0.0","88081406","wem/bandit_party_1","A2NTS2HNDOLRCR","either","4","205","","","","","","","0","0","1","0.3065973113","","0.6","0.8","0.2","0.4","","","","","0.3065973113","0.1836365694","0.3514007431","0.2998731478","","","","","","","","","","72","H","0","img/none_selected.jpg","","11","main_expt",""
"","bandit","91","272670","0.0-53.0-0.0","88081406","wem/bandit_party_1","A2NTS2HNDOLRCR","either","4","150","","","","","","","0","0","1","","0.2942822571","0.6","0.8","0.2","0.4","0.3271859636","0.2143869662","0.3722032088","0.2942822571","","","","","","","","","","","","","","76","L","3","","","12","main_expt",""
"","bandit","92","274339","0.0-54.0-0.0","88081406","wem/bandit_party_1","A2NTS2HNDOLRCR","either","4","165","","","","","","","0","0","1","","0.3681707299","0.6","0.8","0.2","0.4","0.2761076709","0.1637139448","0.3681707299","0.3009212619","","","","","","","","","","","","","","75","K","2","","","13","main_expt",""
"","bandit","93","276044","0.0-55.0-0.0","88081406","wem/bandit_party_1","A2NTS2HNDOLRCR","either","4","201","","","","","","","0","0","1","","0.3528222564","0.6","0.8","0.2","0.4","0.2311164494","0.1488535162","0.3528222564","0.3227424667","","","","","","","","","","","","","","75","K","2","","","14","main_expt",""
"","bandit","94","277687","0.0-56.0-0.0","88081406","wem/bandit_party_1","A2NTS2HNDOLRCR","either","4","141","","","","","","","0","1","0","","0.3547546862","0.6","0.8","0.2","0.4","0.2905977425","0.1332411271","0.3738838661","0.3547546862","","","","","","","","","","","","","","76","L","3","","","15","main_expt",""
"","bandit","95","279391","0.0-57.0-0.0","88081406","wem/bandit_party_1","A2NTS2HNDOLRCR","either","4","202","","","","","","","0","0","1","0.3241157583","","0.6","0.8","0.2","0.4","","","","","0.2924554969","0.09882415698","0.3385239332","0.3241157583","","","","","","","","","","76","L","3","","","16","main_expt",""
"","bandit","96","281158","0.0-58.0-0.0","88081406","wem/bandit_party_1","A2NTS2HNDOLRCR","either","4","263","","","","","","","0","0","1","","0.3363410386","0.6","0.8","0.2","0.4","0.3114836302","0.1069157009","0.3111355138","0.3363410386","","","","","","","","","","","","","","76","L","3","","","17","main_expt",""
"","bandit","97","282729","0.0-59.0-0.0","88081406","wem/bandit_party_1","A2NTS2HNDOLRCR","either","4","69","","","","","","","0","0","1","","0.3880947854","0.6","0.8","0.2","0.4","0.3215333475","0.134958137","0.3487767647","0.3880947854","","","","","","","","","","","","","","76","L","3","","","18","main_expt",""
"","bandit","98","284345","0.0-60.0-0.0","88081406","wem/bandit_party_1","A2NTS2HNDOLRCR","either","4","113","","","","","","","0","0","1","","0.4116912081","0.6","0.8","0.2","0.4","0.2733398822","0.1230418706","0.3010303499","0.4116912081","","","","","","","","","","","","","","76","L","3","","","19","main_expt",""
"","bandit","99","286013","0.0-61.0-0.0","88081406","wem/bandit_party_1","A2NTS2HNDOLRCR","either","4","165","","","","","","","0","0","1","","0.09866604889","0.6","0.8","0.2","0.4","0.2351410235","0.09866604889","0.2907203997","0.3973894305","","","","","","","","","","","","","","74","J","1","","","20","main_expt",""
"","bandit","100","287665","0.0-62.0-0.0","88081406","wem/bandit_party_1","A2NTS2HNDOLRCR","either","4","150","","","","","","","0","0","1","0.1021222834","","0.6","0.8","0.2","0.4","","","","","0.2257810982","0.1021222834","0.3088108907","0.369037109","","","","","","","","","","74","J","1","","","21","main_expt",""
"","bandit","101","289272","0.0-63.0-0.0","88081406","wem/bandit_party_1","A2NTS2HNDOLRCR","either","4","104","","","","","","","0","0","1","","0.1234138809","0.6","0.8","0.2","0.4","0.2221856846","0.1234138809","0.349202701","0.4179468344","","","","","","","","","","","","","","74","J","1","","","22","main_expt",""
"","bandit","102","290810","0.0-64.0-0.0","88081406","wem/bandit_party_1","A2NTS2HNDOLRCR","either","4","35","","","","","","","0","0","1","0.1030640584","","0.6","0.8","0.2","0.4","","","","","0.2127124712","0.1030640584","0.3785068464","0.4276062926","","","","","","","","","","74","J","1","","","23","main_expt",""
"","bandit","103","292365","0.0-65.0-0.0","88081406","wem/bandit_party_1","A2NTS2HNDOLRCR","either","4","53","","","","","","","0","0","1","","0.4012919653","0.6","0.8","0.2","0.4","0.1882566648","0.1261035851","0.4012919653","0.4078122208","","","","","","","","","","","","","","75","K","2","","","24","main_expt",""
"","bandit","104","293953","0.0-66.0-0.0","88081406","wem/bandit_party_1","A2NTS2HNDOLRCR","either","4","85","","","","","","","0","0","1","","0.400899794","0.6","0.8","0.2","0.4","0.1273223766","0.1796705612","0.400899794","0.3950411191","","","","","","","","","","","","","","75","K","2","","","25","main_expt",""
"","bandit","105","295553","0.0-67.0-0.0","88081406","wem/bandit_party_1","A2NTS2HNDOLRCR","either","4","99","","","","","","","0","0","1","","0.4126274585","0.6","0.8","0.2","0.4","0.15747458","0.2414651519","0.4126274585","0.4322303329","","","","","","","","","","","","","","75","K","2","","","26","main_expt",""
"","bandit","106","297133","0.0-68.0-0.0","88081406","wem/bandit_party_1","A2NTS2HNDOLRCR","either","4","77","","","","","","","1","0","0","0.1442684908","","0.6","0.8","0.2","0.4","","","","","0.1442684908","0.2005374927","0.3992263875","0.4353643722","","","","","","","","","","72","H","0","img/none_selected.jpg","","27","main_expt",""
"","bandit","107","298752","0.0-69.0-0.0","88081406","wem/bandit_party_1","A2NTS2HNDOLRCR","either","4","116","","","","","","","0","0","1","0.2255404594","","0.6","0.8","0.2","0.4","","","","","0.2255404594","0.3197257227","0.3846584236","0.4464017809","","","","","","","","","","72","H","0","img/none_selected.jpg","","28","main_expt",""
"","bandit","108","300319","0.0-70.0-0.0","88081406","wem/bandit_party_1","A2NTS2HNDOLRCR","either","4","64","","","","","","","0","0","1","","0.2730951691","0.6","0.8","0.2","0.4","0.2730951691","0.3141869899","0.3561298134","0.4417109462","","","","","","","","","","","","","","72","H","0","img/none_selected.jpg","","29","main_expt",""
"","bandit","109","301907","0.0-71.0-0.0","88081406","wem/bandit_party_1","A2NTS2HNDOLRCR","either","4","83","","","","","","","0","1","0","","0.2890412698","0.6","0.8","0.2","0.4","0.2890412698","0.3445991012","0.3101363315","0.4065908859","","","","","","","","","","","","","","72","H","0","img/none_selected.jpg","","30","main_expt",""
"","bandit","110","303470","0.0-72.0-0.0","88081406","wem/bandit_party_1","A2NTS2HNDOLRCR","either","4","61","","","","","","","1","0","0","0.3309226042","","0.6","0.8","0.2","0.4","","","","","0.3309226042","0.3456655029","0.3322219809","0.3954582793","","","","","","","","","","72","H","0","img/none_selected.jpg","","31","main_expt",""
"","bandit","111","305007","0.0-73.0-0.0","88081406","wem/bandit_party_1","A2NTS2HNDOLRCR","either","4","35","","","","","","","0","0","1","","0.3519301717","0.6","0.8","0.2","0.4","0.3519301717","0.3826172224","0.3516269472","0.3716723047","","","","","","","","","","","","","","72","H","0","img/none_selected.jpg","","32","main_expt",""
"","bandit","112","306532","0.0-74.0-0.0","88081406","wem/bandit_party_1","A2NTS2HNDOLRCR","either","4","23","","","","","","","0","0","1","","0.3414953842","0.6","0.8","0.2","0.4","0.3414953842","0.3804083149","0.3852085553","0.3799724366","","","","","","","","","","","","","","72","H","0","img/none_selected.jpg","","33","main_expt",""
"","bandit","113","308226","0.0-75.0-0.0","88081406","wem/bandit_party_1","A2NTS2HNDOLRCR","either","4","190","","","","","","","0","0","1","","0.2938412915","0.6","0.8","0.2","0.4","0.2938412915","0.3808178469","0.4196644934","0.409480615","","","","","","","","","","","","","","72","H","0","img/none_selected.jpg","","34","main_expt",""
"","bandit","114","309762","0.0-76.0-0.0","88081406","wem/bandit_party_1","A2NTS2HNDOLRCR","either","4","32","","","","","","","1","0","0","0.2256616696","","0.6","0.8","0.2","0.4","","","","","0.2256616696","0.376129724","0.420891004","0.3869649509","","","","","","","","","","72","H","0","img/none_selected.jpg","","35","main_expt",""
"","bandit","115","311997","0.0-77.0-0.0","88081406","wem/bandit_party_1","A2NTS2HNDOLRCR","either","4","731","","","","","","","0","0","1","0.2525957923","","0.6","0.8","0.2","0.4","","","","","0.2525957923","0.4027809904","0.3808881167","0.3045389962","","","","","","","","","","72","H","0","img/none_selected.jpg","","36","main_expt",""
"","bandit","116","313506","0.0-78.0-0.0","88081406","wem/bandit_party_1","A2NTS2HNDOLRCR","either","4","6","","","","","","","0","0","1","","0.2333373749","0.6","0.8","0.2","0.4","0.2333373749","0.3715556026","0.3634360393","0.2954217214","","","","","","","","","","","","","","72","H","0","img/none_selected.jpg","","37","main_expt",""
"","bandit","117","315089","0.0-79.0-0.0","88081406","wem/bandit_party_1","A2NTS2HNDOLRCR","either","4","80","","","","","","","0","0","1","","0.354842885","0.6","0.8","0.2","0.4","0.2126884676","0.354842885","0.3432691328","0.2749906923","","","","","","","","","","","","","","74","J","1","","","38","main_expt",""
"","bandit","118","316626","0.0-80.0-0.0","88081406","wem/bandit_party_1","A2NTS2HNDOLRCR","either","4","35","","","","","","","0","0","1","0.3066825603","","0.6","0.8","0.2","0.4","","","","","0.212498526","0.3066825603","0.3113322025","0.2911873598","","","","","","","","","","74","J","1","","","39","main_expt",""
"","bandit","119","318238","0.0-81.0-0.0","88081406","wem/bandit_party_1","A2NTS2HNDOLRCR","either","4","108","","","","","","","0","0","1","0.3208648015","","0.6","0.8","0.2","0.4","","","","","0.2031275136","0.3208648015","0.3298138996","0.3066149412","","","","","","","","","","74","J","1","","","40","main_expt",""
"","bandit","120","319765","0.0-82.0-0.0","88081406","wem/bandit_party_1","A2NTS2HNDOLRCR","either","4","23","","","","","","","0","0","1","","0.3590557929","0.6","0.8","0.2","0.4","0.2409224204","0.2774570704","0.3590557929","0.2612722093","","","","","","","","","","","","","","75","K","2","","","41","main_expt",""
"","bandit","121","321291","0.0-83.0-0.0","88081406","wem/bandit_party_1","A2NTS2HNDOLRCR","either","4","23","","","","","","","1","0","0","0.3455434044","","0.6","0.8","0.2","0.4","","","","","0.2166695961","0.3092882543","0.3455434044","0.2579482203","","","","","","","","","","75","K","2","","","42","main_expt",""
"","bandit","122","322880","0.0-84.0-0.0","88081406","wem/bandit_party_1","A2NTS2HNDOLRCR","either","4","85","","","","","","","0","0","1","0.4020043176","","0.6","0.8","0.2","0.4","","","","","0.2314197793","0.3161251671","0.4020043176","0.2232302517","","","","","","","","","","75","K","2","","","43","main_expt",""
"","bandit","123","324423","0.0-85.0-0.0","88081406","wem/bandit_party_1","A2NTS2HNDOLRCR","either","4","38","","","","","","","0","0","1","","0.4088695108","0.6","0.8","0.2","0.4","0.1889371852","0.3032549762","0.4088695108","0.2435669349","","","","","","","","","","","","","","75","K","2","","","44","main_expt",""
"","bandit","124","325966","0.0-86.0-0.0","88081406","wem/bandit_party_1","A2NTS2HNDOLRCR","either","4","40","","","","","","","0","1","0","","0.3914045207","0.6","0.8","0.2","0.4","0.2152104473","0.3012359134","0.3914045207","0.1885724617","","","","","","","","","","","","","","75","K","2","","","45","main_expt",""
"","bandit","125","327525","0.0-87.0-0.0","88081406","wem/bandit_party_1","A2NTS2HNDOLRCR","either","4","57","","","","","","","0","0","1","","0.3682142312","0.6","0.8","0.2","0.4","0.2260726972","0.2994346937","0.3682142312","0.104230756","","","","","","","","","","","","","","75","K","2","","","46","main_expt",""
"","bandit","126","329044","0.0-88.0-0.0","88081406","wem/bandit_party_1","A2NTS2HNDOLRCR","either","4","17","","","","","","","0","0","1","","0.3462276735","0.6","0.8","0.2","0.4","0.2330399618","0.3169549043","0.3462276735","0.09013225529","","","","","","","","","","","","","","75","K","2","","","47","main_expt",""
"","bandit","127","331540","0.0-89.0-0.0","88081406","wem/bandit_party_1","A2NTS2HNDOLRCR","either","4","994","","","","","","","0","0","1","","0.3501405617","0.6","0.8","0.2","0.4","0.2769685944","0.3137179834","0.3501405617","0.1066227192","","","","","","","","","","","","","","75","K","2","","","48","main_expt",""
"","bandit","128","333263","0.0-90.0-0.0","88081406","wem/bandit_party_1","A2NTS2HNDOLRCR","either","4","220","","","","","","","0","1","0","","0.3607669766","0.6","0.8","0.2","0.4","0.2954986192","0.3026837323","0.3607669766","0.1273062614","","","","","","","","","","","","","","75","K","2","","","49","main_expt",""
"","bandit","129","334928","0.0-91.0-0.0","88081406","wem/bandit_party_1","A2NTS2HNDOLRCR","either","4","160","","","","","","","0","1","0","","0.3776327681","0.6","0.8","0.2","0.4","0.2730110453","0.2690248343","0.3776327681","0.08158159543","","","","","","","","","","","","","","75","K","2","","","50","main_expt",""
"","bandit","130","336643","0.0-92.0-0.0","88081406","wem/bandit_party_1","A2NTS2HNDOLRCR","either","4","212","","","","","","","0","1","0","","0.3922012959","0.6","0.8","0.2","0.4","0.2672659715","0.2407215714","0.3922012959","0.08035098666","","","","","","","","","","","","","","75","K","2","","","51","main_expt",""
"","bandit","131","338335","0.0-93.0-0.0","88081406","wem/bandit_party_1","A2NTS2HNDOLRCR","either","4","188","","","","","","","0","1","0","","0.3532085343","0.6","0.8","0.2","0.4","0.2552972095","0.2758158767","0.3532085343","0.1007468434","","","","","","","","","","","","","","75","K","2","","","52","main_expt",""
"","bandit","132","340078","0.0-94.0-0.0","88081406","wem/bandit_party_1","A2NTS2HNDOLRCR","either","4","240","","","","","","","0","1","0","","0.3597378762","0.6","0.8","0.2","0.4","0.1954439593","0.2661511239","0.3597378762","0.1479770317","","","","","","","","","","","","","","75","K","2","","","53","main_expt",""
"","bandit","133","341582","0.0-95.0-0.0","88081406","wem/bandit_party_1","A2NTS2HNDOLRCR","either","4","1","","","","","","","0","1","0","","0.3553644404","0.6","0.8","0.2","0.4","0.1250298759","0.250303373","0.3553644404","0.1450389045","","","","","","","","","","","","","","75","K","2","","","54","main_expt",""
"","bandit","134","343231","0.0-96.0-0.0","88081406","wem/bandit_party_1","A2NTS2HNDOLRCR","either","4","146","","","","","","","0","0","1","","0.3427354451","0.6","0.8","0.2","0.4","0.1224949652","0.1850572083","0.3427354451","0.1678096349","","","","","","","","","","","","","","75","K","2","","","55","main_expt",""
"","bandit","135","344822","0.0-97.0-0.0","88081406","wem/bandit_party_1","A2NTS2HNDOLRCR","either","4","87","","","","","","","0","0","1","0.1748395718","","0.6","0.8","0.2","0.4","","","","","0.1312048923","0.2410157884","0.3158877586","0.1748395718","","","","","","","","","","76","L","3","","","56","main_expt",""
"","bandit","136","346508","0.0-98.0-0.0","88081406","wem/bandit_party_1","A2NTS2HNDOLRCR","either","4","183","","","","","","","0","0","1","0.146986137","","0.6","0.8","0.2","0.4","","","","","0.14452077","0.2657224069","0.3224611445","0.146986137","","","","","","","","","","76","L","3","","","57","main_expt",""
"","bandit","137","348330","0.0-99.0-0.0","88081406","wem/bandit_party_1","A2NTS2HNDOLRCR","either","4","319","","","","","","","0","0","1","","0.3378672788","0.6","0.8","0.2","0.4","0.1198415177","0.2361308133","0.3378672788","0.1316135006","","","","","","","","","","","","","","75","K","2","","","58","main_expt",""
"","bandit","138","349995","0.0-100.0-0.0","88081406","wem/bandit_party_1","A2NTS2HNDOLRCR","either","4","161","","","","","","","0","0","1","","0.3438075972","0.6","0.8","0.2","0.4","0.1674914914","0.2078360154","0.3438075972","0.1776120447","","","","","","","","","","","","","","75","K","2","","","59","main_expt",""
"","bandit","139","351685","0.0-101.0-0.0","88081406","wem/bandit_party_1","A2NTS2HNDOLRCR","either","4","186","","","","","","","0","0","1","","0.2950987239","0.6","0.8","0.2","0.4","0.147959707","0.2256957235","0.2950987239","0.2034864675","","","","","","","","","","","","","","75","K","2","","","60","main_expt",""
"","bandit","140","353494","0.0-102.0-0.0","88081406","wem/bandit_party_1","A2NTS2HNDOLRCR","either","4","307","","","","","","","1","0","0","0.2939622289","","0.6","0.8","0.2","0.4","","","","","0.1217284172","0.2713547376","0.2939622289","0.1325668513","","","","","","","","","","75","K","2","","","61","main_expt",""
"","bandit","141","355160","0.0-103.0-0.0","88081406","wem/bandit_party_1","A2NTS2HNDOLRCR","either","4","163","","","","","","","0","0","1","","0.2907096119","0.6","0.8","0.2","0.4","0.1392905859","0.2800078023","0.2907096119","0.125492747","","","","","","","","","","","","","","75","K","2","","","62","main_expt",""
"","bandit","142","356900","0.0-104.0-0.0","88081406","wem/bandit_party_1","A2NTS2HNDOLRCR","either","4","236","","","","","","","0","1","0","","0.2696382907","0.6","0.8","0.2","0.4","0.1953314019","0.362183352","0.2696382907","0.1081989139","","","","","","","","","","","","","","75","K","2","","","63","main_expt",""
"","bandit","143","358678","0.0-105.0-0.0","88081406","wem/bandit_party_1","A2NTS2HNDOLRCR","either","4","276","","","","","","","0","0","1","","0.2496415039","0.6","0.8","0.2","0.4","0.2618523415","0.3354395381","0.2496415039","0.09104284411","","","","","","","","","","","","","","75","K","2","","","64","main_expt",""
"","bandit","144","360424","0.0-106.0-0.0","88081406","wem/bandit_party_1","A2NTS2HNDOLRCR","either","4","243","","","","","","","0","1","0","","0.2686672798","0.6","0.8","0.2","0.4","0.2686672798","0.2893845237","0.2364994079","0.1264903162","","","","","","","","","","","","","","72","H","0","img/none_selected.jpg","","65","main_expt",""
"","bandit","145","361926","0.0-107.0-0.0","88081406","wem/bandit_party_1","A2NTS2HNDOLRCR","either","4","0","","","","","","","0","0","1","0.2451656397","","0.6","0.8","0.2","0.4","","","","","0.2451656397","0.2355717356","0.2541683514","0.1665937301","","","","","","","","","","72","H","0","img/none_selected.jpg","","66","main_expt",""
"","bandit","146","364654","0.0-108.0-0.0","88081406","wem/bandit_party_1","A2NTS2HNDOLRCR","either","4","1225","","","","","","","0","0","1","0.2445320338","","0.6","0.8","0.2","0.4","","","","","0.2445320338","0.2848755716","0.2985471382","0.1740025863","","","","","","","","","","72","H","0","img/none_selected.jpg","","67","main_expt",""
"","bandit","147","367612","0.0-109.0-0.0","88081406","wem/bandit_party_1","A2NTS2HNDOLRCR","either","4","1455","","","","","","","1","0","0","0.2261158315","","0.6","0.8","0.2","0.4","","","","","0.2261158315","0.3341158043","0.3391290389","0.2300011382","","","","","","","","","","72","H","0","img/none_selected.jpg","","68","main_expt",""
"","bandit","148","369351","0.0-110.0-0.0","88081406","wem/bandit_party_1","A2NTS2HNDOLRCR","either","4","237","","","","","","","0","1","0","","0.3114764975","0.6","0.8","0.2","0.4","0.1627286519","0.3253412689","0.3114764975","0.1768594062","","","","","","","","","","","","","","75","K","2","","","69","main_expt",""
"","bandit","149","370945","0.0-111.0-0.0","88081406","wem/bandit_party_1","A2NTS2HNDOLRCR","either","4","90","","","","","","","0","0","1","0.1301009224","","0.6","0.8","0.2","0.4","","","","","0.1301009224","0.3280915152","0.3056328376","0.1906145184","","","","","","","","","","72","H","0","img/none_selected.jpg","","70","main_expt",""
"","bandit","150","372473","0.0-112.0-0.0","88081406","wem/bandit_party_1","A2NTS2HNDOLRCR","either","4","24","","","","","","","0","0","1","0.1356707761","","0.6","0.8","0.2","0.4","","","","","0.1356707761","0.3772643828","0.3445325487","0.1451664327","","","","","","","","","","72","H","0","img/none_selected.jpg","","71","main_expt",""
"","bandit","151","374130","0.0-113.0-0.0","88081406","wem/bandit_party_1","A2NTS2HNDOLRCR","either","4","153","","","","","","","0","0","1","0.1045412551","","0.6","0.8","0.2","0.4","","","","","0.1045412551","0.4074174212","0.364612409","0.1091447996","","","","","","","","","","72","H","0","img/none_selected.jpg","","72","main_expt",""
"","bandit","152","375717","0.0-114.0-0.0","88081406","wem/bandit_party_1","A2NTS2HNDOLRCR","either","4","85","","","","","","","0","0","1","","0.0867882282","0.6","0.8","0.2","0.4","0.0867882282","0.3736299767","0.4454774056","0.1248737042","","","","","","","","","","","","","","72","H","0","img/none_selected.jpg","","73","main_expt",""
"","bandit","153","377779","0.0-115.0-0.0","88081406","wem/bandit_party_1","A2NTS2HNDOLRCR","either","4","559","","","","","","","0","0","1","0.1018359722","","0.6","0.8","0.2","0.4","","","","","0.1018359722","0.383211712","0.4492830973","0.1073746888","","","","","","","","","","72","H","0","img/none_selected.jpg","","74","main_expt",""
"","bandit","154","379663","0.0-116.0-0.0","88081406","wem/bandit_party_1","A2NTS2HNDOLRCR","either","4","381","","","","","","","0","0","1","0.09443707336","","0.6","0.8","0.2","0.4","","","","","0.09443707336","0.3681962321","0.449321966","0.1051395745","","","","","","","","","","72","H","0","img/none_selected.jpg","","75","main_expt",""
"","bandit","155","381671","0.0-117.0-0.0","88081406","wem/bandit_party_1","A2NTS2HNDOLRCR","either","4","506","","","","","","","0","0","1","","0.08768691443","0.6","0.8","0.2","0.4","0.08768691443","0.3574328021","0.4299726132","0.09171451076","","","","","","","","","","","","","","72","H","0","img/none_selected.jpg","","76","main_expt",""
"","bandit","156","385616","0.0-118.0-0.0","88081406","wem/bandit_party_1","A2NTS2HNDOLRCR","either","4","2442","","","","","","","0","0","1","0.07744448812","","0.6","0.8","0.2","0.4","","","","","0.07744448812","0.4041720962","0.4349340462","0.1256070833","","","","","","","","","","72","H","0","img/none_selected.jpg","","77","main_expt",""
"","bandit","157","387489","0.0-119.0-0.0","88081406","wem/bandit_party_1","A2NTS2HNDOLRCR","either","4","370","","","","","","","0","0","1","","0.05712631425","0.6","0.8","0.2","0.4","0.05712631425","0.4000946746","0.4112950215","0.1398604905","","","","","","","","","","","","","","72","H","0","img/none_selected.jpg","","78","main_expt",""
"","bandit","158","389303","0.0-120.0-0.0","88081406","wem/bandit_party_1","A2NTS2HNDOLRCR","either","4","310","","","","","","","0","0","1","0.03981704588","","0.6","0.8","0.2","0.4","","","","","0.03981704588","0.425248604","0.4123046053","0.1303191282","","","","","","","","","","72","H","0","img/none_selected.jpg","","79","main_expt",""
"","bandit","159","391001","0.0-121.0-0.0","88081406","wem/bandit_party_1","A2NTS2HNDOLRCR","either","4","196","","","","","","","0","0","1","0.4263383456","","0.6","0.8","0.2","0.4","","","","","0.02961196177","0.4263383456","0.4345430878","0.1491340647","","","","","","","","","","74","J","1","","","80","main_expt",""
"","bandit","160","392785","0.0-122.0-0.0","88081406","wem/bandit_party_1","A2NTS2HNDOLRCR","either","4","281","","","","","","","0","0","1","","0.4377411966","0.6","0.8","0.2","0.4","0.0408206899","0.4377411966","0.4255274095","0.1484119081","","","","","","","","","","","","","","74","J","1","","","81","main_expt",""
"","bandit","161","394414","0.0-123.0-0.0","88081406","wem/bandit_party_1","A2NTS2HNDOLRCR","either","4","124","","","","","","","1","0","0","0.4263216968","","0.6","0.8","0.2","0.4","","","","","0.03491361241","0.4263216968","0.4266934287","0.135460029","","","","","","","","","","74","J","1","","","82","main_expt",""
"","bandit","162","396038","0.0-124.0-0.0","88081406","wem/bandit_party_1","A2NTS2HNDOLRCR","either","4","121","","","","","","","0","0","1","0.4536492548","","0.6","0.8","0.2","0.4","","","","","0.01881925386","0.4536492548","0.4321646522","0.09497461961","","","","","","","","","","74","J","1","","","83","main_expt",""
"","bandit","163","397663","0.0-125.0-0.0","88081406","wem/bandit_party_1","A2NTS2HNDOLRCR","either","4","120","","","","","","","0","0","1","0.4344769981","","0.6","0.8","0.2","0.4","","","","","0.03441768066","0.4344769981","0.43129245","0.0956585677","","","","","","","","","","74","J","1","","","84","main_expt",""
"","bandit","164","399593","0.0-126.0-0.0","88081406","wem/bandit_party_1","A2NTS2HNDOLRCR","either","4","428","","","","","","","0","0","1","","0.08427930603","0.6","0.8","0.2","0.4","0.04015732792","0.4167097255","0.4307495417","0.08427930603","","","","","","","","","","","","","","76","L","3","","","85","main_expt",""
"","bandit","165","401222","0.0-127.0-0.0","88081406","wem/bandit_party_1","A2NTS2HNDOLRCR","either","4","125","","","","","","","0","0","1","","0.09540141202","0.6","0.8","0.2","0.4","0.0462821445","0.4215971904","0.4327415212","0.09540141202","","","","","","","","","","","","","","76","L","3","","","86","main_expt",""
"","bandit","166","402772","0.0-128.0-0.0","88081406","wem/bandit_party_1","A2NTS2HNDOLRCR","either","4","47","","","","","","","0","0","1","0.06504543429","","0.6","0.8","0.2","0.4","","","","","0.07236867375","0.3962725568","0.4507305815","0.06504543429","","","","","","","","","","76","L","3","","","87","main_expt",""
"","bandit","167","405240","0.0-129.0-0.0","88081406","wem/bandit_party_1","A2NTS2HNDOLRCR","either","4","964","","","","","","","0","0","1","0.05894337134","","0.6","0.8","0.2","0.4","","","","","0.1132918069","0.4038430626","0.4571393315","0.05894337134","","","","","","","","","","76","L","3","","","88","main_expt",""
"","bandit","168","407060","0.0-130.0-0.0","88081406","wem/bandit_party_1","A2NTS2HNDOLRCR","either","4","317","","","","","","","0","0","1","","0.4639779763","0.6","0.8","0.2","0.4","0.1466354559","0.4247877058","0.4639779763","0.06803635399","","","","","","","","","","","","","","75","K","2","","","89","main_expt",""
"","bandit","169","408822","0.0-131.0-0.0","88081406","wem/bandit_party_1","A2NTS2HNDOLRCR","either","4","259","","","","","","","1","0","0","0.4620017245","","0.6","0.8","0.2","0.4","","","","","0.1746819083","0.4196700557","0.4620017245","0.09657856289","","","","","","","","","","75","K","2","","","90","main_expt",""
"","bandit","170","411271","0.0-132.0-0.0","88081406","wem/bandit_party_1","A2NTS2HNDOLRCR","either","4","946","","","","","","","0","0","1","","0.4492963398","0.6","0.8","0.2","0.4","0.1864657318","0.401758082","0.4492963398","0.08522031428","","","","","","","","","","","","","","75","K","2","","","91","main_expt",""
"","bandit","171","413260","0.0-133.0-0.0","88081406","wem/bandit_party_1","A2NTS2HNDOLRCR","either","4","487","","","","","","","0","0","1","","0.462009279","0.6","0.8","0.2","0.4","0.2124622091","0.3422099147","0.462009279","0.07078380504","","","","","","","","","","","","","","75","K","2","","","92","main_expt",""
"","bandit","172","414892","0.0-134.0-0.0","88081406","wem/bandit_party_1","A2NTS2HNDOLRCR","either","4","127","","","","","","","0","0","1","","0.4363090379","0.6","0.8","0.2","0.4","0.245786276","0.3279059742","0.4363090379","0.0564278809","","","","","","","","","","","","","","75","K","2","","","93","main_expt",""
"","bandit","173","416596","0.0-135.0-0.0","88081406","wem/bandit_party_1","A2NTS2HNDOLRCR","either","4","200","","","","","","","0","0","1","","0.4457519602","0.6","0.8","0.2","0.4","0.2316759231","0.3155724737","0.4457519602","0.06067733924","","","","","","","","","","","","","","75","K","2","","","94","main_expt",""
"","bandit","174","418371","0.0-136.0-0.0","88081406","wem/bandit_party_1","A2NTS2HNDOLRCR","either","4","273","","","","","","","0","0","1","","0.4231248902","0.6","0.8","0.2","0.4","0.2231756969","0.3519625041","0.4231248902","0.08632751489","","","","","","","","","","","","","","75","K","2","","","95","main_expt",""
"","bandit","175","422037","0.0-137.0-0.0","88081406","wem/bandit_party_1","A2NTS2HNDOLRCR","either","4","2163","","","","","","","1","0","0","0.3661455107","","0.6","0.8","0.2","0.4","","","","","0.1957128212","0.3661455107","0.4210676831","0.08481729553","","","","","","","","","","74","J","1","","","96","main_expt",""
"","bandit","176","423808","0.0-138.0-0.0","88081406","wem/bandit_party_1","A2NTS2HNDOLRCR","either","4","268","","","","","","","0","0","1","0.3558031673","","0.6","0.8","0.2","0.4","","","","","0.1638116915","0.3558031673","0.4022895305","0.08386440452","","","","","","","","","","74","J","1","","","97","main_expt",""
"","bandit","177","425342","0.0-139.0-0.0","88081406","wem/bandit_party_1","A2NTS2HNDOLRCR","either","4","31","","","","","","","0","0","1","0.3558230887","","0.6","0.8","0.2","0.4","","","","","0.1405816365","0.3558230887","0.4187351015","0.0940701929","","","","","","","","","","74","J","1","","","98","main_expt",""
"","bandit","178","427862","0.0-140.0-0.0","88081406","wem/bandit_party_1","A2NTS2HNDOLRCR","either","4","1015","","","","","","","0","0","1","0.3064708089","","0.6","0.8","0.2","0.4","","","","","0.1435678602","0.3064708089","0.3981340028","0.1285058524","","","","","","","","","","74","J","1","","","99","main_expt",""
"","bandit","179","429442","0.0-141.0-0.0","88081406","wem/bandit_party_1","A2NTS2HNDOLRCR","either","4","78","","","","","","","0","0","1","0.352498313","","0.6","0.8","0.2","0.4","","","","","0.1478754355","0.352498313","0.3520446815","0.065882019","","","","","","","","","","74","J","1","","","100","main_expt",""
"","bandit","180","432424","0.0-142.0-0.0","88081406","wem/bandit_party_1","A2NTS2HNDOLRCR","either","4","1478","","","","","","","0","1","0","","0.3511810171","0.6","0.8","0.2","0.4","0.1532559328","0.3511810171","0.3715523215","0.05692140794","","","","","","","","","","","","","","74","J","1","","","101","main_expt",""
"","bandit","181","434181","0.0-143.0-0.0","88081406","wem/bandit_party_1","A2NTS2HNDOLRCR","either","4","252","","","","","","","0","0","1","","0.3246867477","0.6","0.8","0.2","0.4","0.15857411","0.3246867477","0.3966955113","0.04322280369","","","","","","","","","","","","","","74","J","1","","","102","main_expt",""
"","bandit","182","435888","0.0-144.0-0.0","88081406","wem/bandit_party_1","A2NTS2HNDOLRCR","either","4","204","","","","","","","0","1","0","","0.2827689756","0.6","0.8","0.2","0.4","0.1552377357","0.2827689756","0.3865714765","0.05121437093","","","","","","","","","","","","","","74","J","1","","","103","main_expt",""
"","bandit","183","437619","0.0-145.0-0.0","88081406","wem/bandit_party_1","A2NTS2HNDOLRCR","either","4","228","","","","","","","0","0","1","0.3307995119","","0.6","0.8","0.2","0.4","","","","","0.1584193753","0.3307995119","0.3440646931","0.06548077564","","","","","","","","","","74","J","1","","","104","main_expt",""
"","bandit","184","439231","0.0-146.0-0.0","88081406","wem/bandit_party_1","A2NTS2HNDOLRCR","either","4","108","","","","","","","1","0","0","0.3078297571","","0.6","0.8","0.2","0.4","","","","","0.192058402","0.3078297571","0.330981063","0.07577357845","","","","","","","","","","74","J","1","","","105","main_expt",""
"","bandit","185","441931","0.0-147.0-0.0","88081406","wem/bandit_party_1","A2NTS2HNDOLRCR","either","4","1197","","","","","","","0","0","1","0.3202685942","","0.6","0.8","0.2","0.4","","","","","0.1562344916","0.3202685942","0.3317280627","0.09041352565","","","","","","","","","","74","J","1","","","106","main_expt",""
"","bandit","186","443609","0.0-148.0-0.0","88081406","wem/bandit_party_1","A2NTS2HNDOLRCR","either","4","175","","","","","","","0","0","1","0.3163418234","","0.6","0.8","0.2","0.4","","","","","0.1493116313","0.3163418234","0.2760665195","0.1184921167","","","","","","","","","","74","J","1","","","107","main_expt",""
"","bandit","187","445498","0.0-149.0-0.0","88081406","wem/bandit_party_1","A2NTS2HNDOLRCR","either","4","386","","","","","","","0","0","1","","0.2826301941","0.6","0.8","0.2","0.4","0.1357435498","0.3425943818","0.2826301941","0.1057615429","","","","","","","","","","","","","","75","K","2","","","108","main_expt",""
"","bandit","188","448027","0.0-150.0-0.0","88081406","wem/bandit_party_1","A2NTS2HNDOLRCR","either","4","1025","","","","","","","0","0","1","","0.318117281","0.6","0.8","0.2","0.4","0.1164074326","0.2852030557","0.318117281","0.1464484126","","","","","","","","","","","","","","75","K","2","","","109","main_expt",""
"","bandit","189","449707","0.0-151.0-0.0","88081406","wem/bandit_party_1","A2NTS2HNDOLRCR","either","4","175","","","","","","","0","0","1","0.3358587519","","0.6","0.8","0.2","0.4","","","","","0.1444451916","0.3392406975","0.3358587519","0.1641354829","","","","","","","","","","75","K","2","","","110","main_expt",""
"","bandit","190","451274","0.0-152.0-0.0","88081406","wem/bandit_party_1","A2NTS2HNDOLRCR","either","4","64","","","","","","","0","0","1","0.3031660534","","0.6","0.8","0.2","0.4","","","","","0.09905323685","0.3023411017","0.3031660534","0.1386891192","","","","","","","","","","75","K","2","","","111","main_expt",""
"","bandit","191","453170","0.0-153.0-0.0","88081406","wem/bandit_party_1","A2NTS2HNDOLRCR","either","4","393","","","","","","","0","0","1","","0.09652445584","0.6","0.8","0.2","0.4","0.09652445584","0.296849772","0.2773548355","0.1847512065","","","","","","","","","","","","","","72","H","0","img/none_selected.jpg","","112","main_expt",""
"","bandit","192","454789","0.0-154.0-0.0","88081406","wem/bandit_party_1","A2NTS2HNDOLRCR","either","4","115","","","","","","","1","0","0","0.09961189632","","0.6","0.8","0.2","0.4","","","","","0.09961189632","0.2673419259","0.2370758425","0.1304555333","","","","","","","","","","72","H","0","img/none_selected.jpg","","113","main_expt",""
"","bandit","193","456524","0.0-155.0-0.0","88081406","wem/bandit_party_1","A2NTS2HNDOLRCR","either","4","232","","","","","","","0","0","1","0.1036139638","","0.6","0.8","0.2","0.4","","","","","0.1036139638","0.2670531803","0.1821928837","0.1770102637","","","","","","","","","","72","H","0","img/none_selected.jpg","","114","main_expt",""
"","bandit","194","458139","0.0-156.0-0.0","88081406","wem/bandit_party_1","A2NTS2HNDOLRCR","either","4","112","","","","","","","0","1","0","","0.0968506792","0.6","0.8","0.2","0.4","0.0968506792","0.2825009356","0.1315453283","0.1564651975","","","","","","","","","","","","","","72","H","0","img/none_selected.jpg","","115","main_expt",""
"","bandit","195","459728","0.0-157.0-0.0","88081406","wem/bandit_party_1","A2NTS2HNDOLRCR","either","4","86","","","","","","","0","0","1","","0.08782875681","0.6","0.8","0.2","0.4","0.08782875681","0.3237719372","0.1102777544","0.1665702367","","","","","","","","","","","","","","72","H","0","img/none_selected.jpg","","116","main_expt",""
"","bandit","196","461496","0.0-158.0-0.0","88081406","wem/bandit_party_1","A2NTS2HNDOLRCR","either","4","264","","","","","","","0","0","1","0.06031800864","","0.6","0.8","0.2","0.4","","","","","0.06031800864","0.3154846423","0.1101610351","0.1530687496","","","","","","","","","","72","H","0","img/none_selected.jpg","","117","main_expt",""
"","bandit","197","463159","0.0-159.0-0.0","88081406","wem/bandit_party_1","A2NTS2HNDOLRCR","either","4","160","","","","","","","0","0","1","0.05633053331","","0.6","0.8","0.2","0.4","","","","","0.05633053331","0.2584508078","0.122460482","0.1674206906","","","","","","","","","","72","H","0","img/none_selected.jpg","","118","main_expt",""
"","bandit","198","464873","0.0-160.0-0.0","88081406","wem/bandit_party_1","A2NTS2HNDOLRCR","either","4","209","","","","","","","0","0","1","0.07530514027","","0.6","0.8","0.2","0.4","","","","","0.07530514027","0.2141905193","0.1451868924","0.1990215448","","","","","","","","","","72","H","0","img/none_selected.jpg","","119","main_expt",""
"","bandit","199","466639","0.0-161.0-0.0","88081406","wem/bandit_party_1","A2NTS2HNDOLRCR","either","4","262","","","","","","","0","0","1","","0.2208640619","0.6","0.8","0.2","0.4","0.09639595661","0.2341954374","0.09092593383","0.2208640619","","","","","","","","","","","","","","76","L","3","","","120","main_expt",""
"","bandit","200","468280","0.0-162.0-0.0","88081406","wem/bandit_party_1","A2NTS2HNDOLRCR","either","4","137","","","","","","","0","0","1","","0.2602917539","0.6","0.8","0.2","0.4","0.1421799471","0.1886372651","0.1080456108","0.2602917539","","","","","","","","","","","","","","76","L","3","","","121","main_expt",""
"","bandit","201","469833","0.0-163.0-0.0","88081406","wem/bandit_party_1","A2NTS2HNDOLRCR","either","4","50","","","","","","","0","0","1","0.2512498235","","0.6","0.8","0.2","0.4","","","","","0.1624760489","0.1597592322","0.1169053248","0.2512498235","","","","","","","","","","76","L","3","","","122","main_expt",""
"","bandit","202","471534","0.0-164.0-0.0","88081406","wem/bandit_party_1","A2NTS2HNDOLRCR","either","4","197","","","","","","","1","0","0","0.1895266442","","0.6","0.8","0.2","0.4","","","","","0.1640214383","0.1895266442","0.1571594809","0.2266242761","","","","","","","","","","74","J","1","","","123","main_expt",""
"","bandit","203","473049","0.0-165.0-0.0","88081406","wem/bandit_party_1","A2NTS2HNDOLRCR","either","4","11","","","","","","","1","0","0","0.2373824638","","0.6","0.8","0.2","0.4","","","","","0.2014340991","0.2042850732","0.2231804049","0.2373824638","","","","","","","","","","76","L","3","","","124","main_expt",""
"","bandit","204","474657","0.0-166.0-0.0","88081406","wem/bandit_party_1","A2NTS2HNDOLRCR","either","4","104","","","","","","","0","0","1","0.2538727107","","0.6","0.8","0.2","0.4","","","","","0.2229229076","0.1812515389","0.2232794356","0.2538727107","","","","","","","","","","76","L","3","","","125","main_expt",""
"","bandit","205","476164","0.0-167.0-0.0","88081406","wem/bandit_party_1","A2NTS2HNDOLRCR","either","4","4","","","","","","","0","0","1","","0.290219491","0.6","0.8","0.2","0.4","0.2324712723","0.1694736183","0.2316903634","0.290219491","","","","","","","","","","","","","","76","L","3","","","126","main_expt",""
"","bandit","206","477669","0.0-168.0-0.0","88081406","wem/bandit_party_1","A2NTS2HNDOLRCR","either","4","0","","","","","","","0","0","1","0.2542505169","","0.6","0.8","0.2","0.4","","","","","0.2628391623","0.1624528765","0.2337524142","0.2542505169","","","","","","","","","","76","L","3","","","127","main_expt",""
"","bandit","207","479256","0.0-169.0-0.0","88081406","wem/bandit_party_1","A2NTS2HNDOLRCR","either","4","84","","","","","","","0","0","1","0.1632982916","","0.6","0.8","0.2","0.4","","","","","0.2654356302","0.1632982916","0.2198210178","0.2582316027","","","","","","","","","","74","J","1","","","128","main_expt",""
"","bandit","208","480901","0.0-170.0-0.0","88081406","wem/bandit_party_1","A2NTS2HNDOLRCR","either","4","140","","","","","","","0","0","1","0.2264598068","","0.6","0.8","0.2","0.4","","","","","0.2070569149","0.2264598068","0.2280168395","0.3267566011","","","","","","","","","","74","J","1","","","129","main_expt",""
"","bandit","209","482568","0.0-171.0-0.0","88081406","wem/bandit_party_1","A2NTS2HNDOLRCR","either","4","165","","","","","","","0","0","1","","0.243895296","0.6","0.8","0.2","0.4","0.2579182239","0.202760285","0.243895296","0.3323271388","","","","","","","","","","","","","","75","K","2","","","130","main_expt",""
"","bandit","210","484215","0.0-172.0-0.0","88081406","wem/bandit_party_1","A2NTS2HNDOLRCR","either","4","142","","","","","","","0","0","1","0.1585094705","","0.6","0.8","0.2","0.4","","","","","0.2329110821","0.1585094705","0.2164454501","0.2666668646","","","","","","","","","","74","J","1","","","131","main_expt",""
"","bandit","211","485745","0.0-173.0-0.0","88081406","wem/bandit_party_1","A2NTS2HNDOLRCR","either","4","28","","","","","","","0","0","1","","0.1304261544","0.6","0.8","0.2","0.4","0.2400232435","0.1304261544","0.200468731","0.2359119393","","","","","","","","","","","","","","74","J","1","","","132","main_expt",""
"","bandit","212","487386","0.0-174.0-0.0","88081406","wem/bandit_party_1","A2NTS2HNDOLRCR","either","4","134","","","","","","","0","0","1","","0.2038597077","0.6","0.8","0.2","0.4","0.2084798617","0.09339990826","0.2038597077","0.2540740643","","","","","","","","","","","","","","75","K","2","","","133","main_expt",""
"","bandit","213","488897","0.0-175.0-0.0","88081406","wem/bandit_party_1","A2NTS2HNDOLRCR","either","4","9","","","","","","","0","1","0","","0.2263269307","0.6","0.8","0.2","0.4","0.2034544","0.08524612959","0.2263269307","0.2414927735","","","","","","","","","","","","","","75","K","2","","","134","main_expt",""
"","bandit","214","490566","0.0-176.0-0.0","88081406","wem/bandit_party_1","A2NTS2HNDOLRCR","either","4","164","","","","","","","0","0","1","","0.2686469146","0.6","0.8","0.2","0.4","0.2088958693","0.0622033461","0.2686469146","0.2632369982","","","","","","","","","","","","","","75","K","2","","","135","main_expt",""
"","bandit","215","492199","0.0-177.0-0.0","88081406","wem/bandit_party_1","A2NTS2HNDOLRCR","either","4","129","","","","","","","0","0","1","0.3170393738","","0.6","0.8","0.2","0.4","","","","","0.2573758916","0.05632890875","0.3170393738","0.3032623762","","","","","","","","","","75","K","2","","","136","main_expt",""
"","bandit","216","493729","0.0-178.0-0.0","88081406","wem/bandit_party_1","A2NTS2HNDOLRCR","either","4","26","","","","","","","0","1","0","","0.338962466","0.6","0.8","0.2","0.4","0.2467438462","0.06052980877","0.338962466","0.2984046037","","","","","","","","","","","","","","75","K","2","","","137","main_expt",""
"","bandit","217","496036","0.0-179.0-0.0","88081406","wem/bandit_party_1","A2NTS2HNDOLRCR","either","4","803","","","","","","","0","0","1","","0.3586643031","0.6","0.8","0.2","0.4","0.2221944767","0.1038497792","0.3586643031","0.3110629865","","","","","","","","","","","","","","75","K","2","","","138","main_expt",""
"","bandit","218","497997","0.0-180.0-0.0","88081406","wem/bandit_party_1","A2NTS2HNDOLRCR","either","4","458","","","","","","","0","0","1","","0.3430902759","0.6","0.8","0.2","0.4","0.2750517365","0.08561062373","0.3430902759","0.3048373826","","","","","","","","","","","","","","75","K","2","","","139","main_expt",""
"","bandit","219","499727","0.0-181.0-0.0","88081406","wem/bandit_party_1","A2NTS2HNDOLRCR","either","4","224","","","","","","","0","0","1","","0.3777112835","0.6","0.8","0.2","0.4","0.277474309","0.08025295029","0.3777112835","0.3163642845","","","","","","","","","","","","","","75","K","2","","","140","main_expt",""
"","bandit","220","501481","0.0-182.0-0.0","88081406","wem/bandit_party_1","A2NTS2HNDOLRCR","either","4","250","","","","","","","0","0","1","0.4276051364","","0.6","0.8","0.2","0.4","","","","","0.2932007391","0.09309891757","0.4276051364","0.2213861514","","","","","","","","","","75","K","2","","","141","main_expt",""
"","bandit","221","503242","0.0-183.0-0.0","88081406","wem/bandit_party_1","A2NTS2HNDOLRCR","either","4","256","","","","","","","0","0","1","","0.4312347149","0.6","0.8","0.2","0.4","0.3001807938","0.1107976638","0.4312347149","0.2492613222","","","","","","","","","","","","","","75","K","2","","","142","main_expt",""
"","bandit","222","504943","0.0-184.0-0.0","88081406","wem/bandit_party_1","A2NTS2HNDOLRCR","either","4","198","","","","","","","0","1","0","","0.3640878437","0.6","0.8","0.2","0.4","0.3640878437","0.09575525052","0.386657586","0.2645663874","","","","","","","","","","","","","","72","H","0","img/none_selected.jpg","","143","main_expt",""
"","bandit","223","506703","0.0-185.0-0.0","88081406","wem/bandit_party_1","A2NTS2HNDOLRCR","either","4","256","","","","","","","0","0","1","0.2706796495","","0.6","0.8","0.2","0.4","","","","","0.2706796495","0.07222794989","0.3409851627","0.2928215939","","","","","","","","","","72","H","0","img/none_selected.jpg","","144","main_expt",""
"","bandit","224","508654","0.0-186.0-0.0","88081406","wem/bandit_party_1","A2NTS2HNDOLRCR","either","4","447","","","","","","","0","0","1","0.2359726437","","0.6","0.8","0.2","0.4","","","","","0.2359726437","0.03203798906","0.3538709708","0.3178979655","","","","","","","","","","72","H","0","img/none_selected.jpg","","145","main_expt",""
"","bandit","225","510448","0.0-187.0-0.0","88081406","wem/bandit_party_1","A2NTS2HNDOLRCR","either","4","290","","","","","","","0","0","1","0.2200332621","","0.6","0.8","0.2","0.4","","","","","0.2200332621","0.03073079809","0.2745956728","0.2850957273","","","","","","","","","","72","H","0","img/none_selected.jpg","","146","main_expt",""
"","bandit","226","512234","0.0-188.0-0.0","88081406","wem/bandit_party_1","A2NTS2HNDOLRCR","either","4","282","","","","","","","0","0","1","0.1957794229","","0.6","0.8","0.2","0.4","","","","","0.1957794229","0.05105424151","0.2375793476","0.2483519338","","","","","","","","","","72","H","0","img/none_selected.jpg","","147","main_expt",""
"","bandit","227","514250","0.0-189.0-0.0","88081406","wem/bandit_party_1","A2NTS2HNDOLRCR","either","4","512","","","","","","","0","0","1","0.1790722045","","0.6","0.8","0.2","0.4","","","","","0.1790722045","0.04045355104","0.2954602587","0.2309770791","","","","","","","","","","72","H","0","img/none_selected.jpg","","148","main_expt",""
"","bandit","228","515814","0.0-190.0-0.0","88081406","wem/bandit_party_1","A2NTS2HNDOLRCR","either","4","58","","","","","","","0","0","1","","0.2189150546","0.6","0.8","0.2","0.4","0.2189150546","0.06416506337","0.3435099865","0.1759049641","","","","","","","","","","","","","","72","H","0","img/none_selected.jpg","","149","main_expt",""
"","bandit","229","517496","0.0-191.0-0.0","88081406","wem/bandit_party_1","A2NTS2HNDOLRCR","either","4","177","","","","","","","0","0","1","","0.2119229637","0.6","0.8","0.2","0.4","0.2119229637","0.07819388902","0.268900415","0.1910702346","","","","","","","","","","","","","","72","H","0","img/none_selected.jpg","","150","main_expt",""
"","bandit","230","519696","0.0-192.0-0.0","88081406","wem/bandit_party_1","A2NTS2HNDOLRCR","either","4","696","","","","","","","0","0","1","0.2472398003","","0.6","0.8","0.2","0.4","","","","","0.2472398003","0.1186979887","0.2326488896","0.1799178466","","","","","","","","","","72","H","0","img/none_selected.jpg","","151","main_expt",""
"","bandit","231","521476","0.0-193.0-0.0","88081406","wem/bandit_party_1","A2NTS2HNDOLRCR","either","4","275","","","","","","","0","0","1","0.1084773402","","0.6","0.8","0.2","0.4","","","","","0.2148428051","0.1084773402","0.2768057641","0.1826140084","","","","","","","","","","74","J","1","","","152","main_expt",""
"","bandit","232","523235","0.0-194.0-0.0","88081406","wem/bandit_party_1","A2NTS2HNDOLRCR","either","4","256","","","","","","","0","0","1","0.1314289417","","0.6","0.8","0.2","0.4","","","","","0.1598057249","0.1314289417","0.2997660112","0.147924298","","","","","","","","","","74","J","1","","","153","main_expt",""
"","bandit","233","524989","0.0-195.0-0.0","88081406","wem/bandit_party_1","A2NTS2HNDOLRCR","either","4","251","","","","","","","0","0","1","0.1354051011","","0.6","0.8","0.2","0.4","","","","","0.1489099923","0.1354051011","0.3196464983","0.1388357139","","","","","","","","","","74","J","1","","","154","main_expt",""
"","bandit","234","526718","0.0-196.0-0.0","88081406","wem/bandit_party_1","A2NTS2HNDOLRCR","either","4","223","","","","","","","0","0","1","0.1085215933","","0.6","0.8","0.2","0.4","","","","","0.1502541116","0.1085215933","0.3141654429","0.1658398244","","","","","","","","","","74","J","1","","","155","main_expt",""
"","bandit","235","528466","0.0-197.0-0.0","88081406","wem/bandit_party_1","A2NTS2HNDOLRCR","either","4","245","","","","","","","0","0","1","0.1383379057","","0.6","0.8","0.2","0.4","","","","","0.1605084188","0.1383379057","0.2667217688","0.1104921729","","","","","","","","","","74","J","1","","","156","main_expt",""
"","bandit","236","530198","0.0-198.0-0.0","88081406","wem/bandit_party_1","A2NTS2HNDOLRCR","either","4","229","","","","","","","0","0","1","","0.1428990181","0.6","0.8","0.2","0.4","0.1684101418","0.1428990181","0.2867075714","0.09530810267","","","","","","","","","","","","","","74","J","1","","","157","main_expt",""
"","bandit","237","532260","0.0-199.0-0.0","88081406","wem/bandit_party_1","A2NTS2HNDOLRCR","either","4","556","","","","","","","0","0","1","0.07455979893","","0.6","0.8","0.2","0.4","","","","","0.1807688322","0.07455979893","0.2788639118","0.1211627972","","","","","","","","","","74","J","1","","","158","main_expt",""
"","bandit","238","534119","0.0-200.0-0.0","88081406","wem/bandit_party_1","A2NTS2HNDOLRCR","either","4","354","","","","","","","1","0","0","0.1009372764","","0.6","0.8","0.2","0.4","","","","","0.1516426412","0.1009372764","0.3020710819","0.1012897464","","","","","","","","","","74","J","1","","","159","main_expt",""
"","bandit","239","535818","0.0-201.0-0.0","88081406","wem/bandit_party_1","A2NTS2HNDOLRCR","either","4","194","","","","","","","0","0","1","","0.05118862797","0.6","0.8","0.2","0.4","0.1638698877","0.05118862797","0.3404227007","0.1188035868","","","","","","","","","","","","","","74","J","1","","","160","main_expt",""
"","bandit","240","537349","0.0-202.0-0.0","88081406","wem/bandit_party_1","A2NTS2HNDOLRCR","either","4","25","","","","","","","0","0","1","","0.05265847637","0.6","0.8","0.2","0.4","0.1645359983","0.05265847637","0.2876249865","0.1606836622","","","","","","","","","","","","","","74","J","1","","","161","main_expt",""
"","bandit","241","539100","0.0-203.0-0.0","88081406","wem/bandit_party_1","A2NTS2HNDOLRCR","either","4","246","","","","","","","0","0","1","0.1859884171","","0.6","0.8","0.2","0.4","","","","","0.2509918509","0.07938684611","0.2401308511","0.1859884171","","","","","","","","","","76","L","3","","","162","main_expt",""
"","bandit","242","540618","0.0-204.0-0.0","88081406","wem/bandit_party_1","A2NTS2HNDOLRCR","either","4","15","","","","","","","0","0","1","","0.2528258464","0.6","0.8","0.2","0.4","0.1883685458","0.0970900163","0.2486605046","0.2528258464","","","","","","","","","","","","","","76","L","3","","","163","main_expt",""
"","bandit","243","542427","0.0-205.0-0.0","88081406","wem/bandit_party_1","A2NTS2HNDOLRCR","either","4","303","","","","","","","0","0","1","","0.2515292425","0.6","0.8","0.2","0.4","0.2179532334","0.07401968201","0.22675384","0.2515292425","","","","","","","","","","","","","","76","L","3","","","164","main_expt",""
"","bandit","244","544687","0.0-206.0-0.0","88081406","wem/bandit_party_1","A2NTS2HNDOLRCR","either","4","755","","","","","","","0","1","0","","0.2841151948","0.6","0.8","0.2","0.4","0.2143704678","0.06633104104","0.2841151948","0.2068970429","","","","","","","","","","","","","","75","K","2","","","165","main_expt",""
"","bandit","245","546397","0.0-207.0-0.0","88081406","wem/bandit_party_1","A2NTS2HNDOLRCR","either","4","204","","","","","","","0","1","0","","0.2842980464","0.6","0.8","0.2","0.4","0.2175899085","0.05309652092","0.2842980464","0.1413778631","","","","","","","","","","","","","","75","K","2","","","166","main_expt",""
"","bandit","246","547984","0.0-208.0-0.0","88081406","wem/bandit_party_1","A2NTS2HNDOLRCR","either","4","84","","","","","","","0","1","0","","0.3007590714","0.6","0.8","0.2","0.4","0.2137120923","0.07357446968","0.3007590714","0.1999497975","","","","","","","","","","","","","","75","K","2","","","167","main_expt",""
"","bandit","247","549563","0.0-209.0-0.0","88081406","wem/bandit_party_1","A2NTS2HNDOLRCR","either","4","74","","","","","","","0","0","1","","0.2884936601","0.6","0.8","0.2","0.4","0.2331560811","0.1054325378","0.2884936601","0.1696145944","","","","","","","","","","","","","","75","K","2","","","168","main_expt",""
"","bandit","248","551259","0.0-210.0-0.0","88081406","wem/bandit_party_1","A2NTS2HNDOLRCR","either","4","193","","","","","","","0","0","1","0.2803439438","","0.6","0.8","0.2","0.4","","","","","0.2367963754","0.08536867429","0.2803439438","0.1338518967","","","","","","","","","","75","K","2","","","169","main_expt",""
"","bandit","249","552801","0.0-211.0-0.0","88081406","wem/bandit_party_1","A2NTS2HNDOLRCR","either","4","36","","","","","","","0","0","1","","0.3010437192","0.6","0.8","0.2","0.4","0.2378050175","0.1083432756","0.3010437192","0.1307598277","","","","","","","","","","","","","","75","K","2","","","170","main_expt",""
"","bandit","250","555043","0.0-212.0-0.0","88081406","wem/bandit_party_1","A2NTS2HNDOLRCR","either","4","739","","","","","","","0","1","0","","0.3243802095","0.6","0.8","0.2","0.4","0.2253696972","0.09185370626","0.3243802095","0.1200375331","","","","","","","","","","","","","","75","K","2","","","171","main_expt",""
"","bandit","251","556826","0.0-213.0-0.0","88081406","wem/bandit_party_1","A2NTS2HNDOLRCR","either","4","279","","","","","","","0","0","1","","0.3140094691","0.6","0.8","0.2","0.4","0.2903394368","0.09458096772","0.3140094691","0.07514546963","","","","","","","","","","","","","","75","K","2","","","172","main_expt",""
"","bandit","252","558533","0.0-214.0-0.0","88081406","wem/bandit_party_1","A2NTS2HNDOLRCR","either","4","201","","","","","","","0","0","1","0.2433770114","","0.6","0.8","0.2","0.4","","","","","0.2384828248","0.1016296913","0.2433770114","0.07704486673","","","","","","","","","","75","K","2","","","173","main_expt",""
"","bandit","253","560243","0.0-215.0-0.0","88081406","wem/bandit_party_1","A2NTS2HNDOLRCR","either","4","206","","","","","","","0","0","1","","0.2080779891","0.6","0.8","0.2","0.4","0.2823111034","0.117107939","0.2080779891","0.04061738922","","","","","","","","","","","","","","75","K","2","","","174","main_expt",""
"","bandit","254","561950","0.0-216.0-0.0","88081406","wem/bandit_party_1","A2NTS2HNDOLRCR","either","4","203","","","","","","","0","0","1","","0.2211365803","0.6","0.8","0.2","0.4","0.292147578","0.1254773658","0.2211365803","0.02968316822","","","","","","","","","","","","","","75","K","2","","","175","main_expt",""
"","bandit","255","563729","0.0-217.0-0.0","88081406","wem/bandit_party_1","A2NTS2HNDOLRCR","either","4","275","","","","","","","0","0","1","0.04419366322","","0.6","0.8","0.2","0.4","","","","","0.2928295457","0.1518856622","0.231280906","0.04419366322","","","","","","","","","","76","L","3","","","176","main_expt",""
"","bandit","256","565479","0.0-218.0-0.0","88081406","wem/bandit_party_1","A2NTS2HNDOLRCR","either","4","247","","","","","","","0","0","1","","0.04140429262","0.6","0.8","0.2","0.4","0.297241693","0.1502483312","0.1689881391","0.04140429262","","","","","","","","","","","","","","76","L","3","","","177","main_expt",""
"","bandit","257","567104","0.0-219.0-0.0","88081406","wem/bandit_party_1","A2NTS2HNDOLRCR","either","4","122","","","","","","","0","0","1","","0.06103489621","0.6","0.8","0.2","0.4","0.276241128","0.2073149786","0.1699404395","0.06103489621","","","","","","","","","","","","","","76","L","3","","","178","main_expt",""
"","bandit","258","568823","0.0-220.0-0.0","88081406","wem/bandit_party_1","A2NTS2HNDOLRCR","either","4","213","","","","","","","0","0","1","0.2405339857","","0.6","0.8","0.2","0.4","","","","","0.2405339857","0.1928578162","0.1571972967","0.053608248","","","","","","","","","","72","H","0","img/none_selected.jpg","","179","main_expt",""
"","bandit","259","570592","0.0-221.0-0.0","88081406","wem/bandit_party_1","A2NTS2HNDOLRCR","either","4","265","","","","","","","0","0","1","0.233428307","","0.6","0.8","0.2","0.4","","","","","0.233428307","0.1412953234","0.1567782565","0.06289379635","","","","","","","","","","72","H","0","img/none_selected.jpg","","180","main_expt",""
"","bandit","260","572342","0.0-222.0-0.0","88081406","wem/bandit_party_1","A2NTS2HNDOLRCR","either","4","246","","","","","","","0","0","1","0.1459310114","","0.6","0.8","0.2","0.4","","","","","0.1459310114","0.1258774719","0.1492691696","0.07748386732","","","","","","","","","","72","H","0","img/none_selected.jpg","","181","main_expt",""
"","bandit","261","573936","0.0-223.0-0.0","88081406","wem/bandit_party_1","A2NTS2HNDOLRCR","either","4","88","","","","","","","0","0","1","0.1121960069","","0.6","0.8","0.2","0.4","","","","","0.1796360657","0.1121960069","0.1609613705","0.096714051","","","","","","","","","","74","J","1","","","182","main_expt",""
"","bandit","262","575551","0.0-224.0-0.0","88081406","wem/bandit_party_1","A2NTS2HNDOLRCR","either","4","111","","","","","","","0","0","1","0.08335286121","","0.6","0.8","0.2","0.4","","","","","0.1907874973","0.08335286121","0.1982891881","0.05351369794","","","","","","","","","","74","J","1","","","183","main_expt",""
"","bandit","263","577277","0.0-225.0-0.0","88081406","wem/bandit_party_1","A2NTS2HNDOLRCR","either","4","222","","","","","","","0","0","1","0.1085923678","","0.6","0.8","0.2","0.4","","","","","0.1451627339","0.1085923678","0.1703318442","0.08854511538","","","","","","","","","","74","J","1","","","184","main_expt",""
"","bandit","264","579043","0.0-226.0-0.0","88081406","wem/bandit_party_1","A2NTS2HNDOLRCR","either","4","263","","","","","","","0","0","1","","0.09566746086","0.6","0.8","0.2","0.4","0.1692531577","0.1113654269","0.09566746086","0.136385666","","","","","","","","","","","","","","75","K","2","","","185","main_expt",""
"","bandit","265","580768","0.0-227.0-0.0","88081406","wem/bandit_party_1","A2NTS2HNDOLRCR","either","4","218","","","","","","","0","0","1","","0.1254261761","0.6","0.8","0.2","0.4","0.1885113298","0.1383531569","0.1254261761","0.1848043888","","","","","","","","","","","","","","75","K","2","","","186","main_expt",""
"","bandit","266","582549","0.0-228.0-0.0","88081406","wem/bandit_party_1","A2NTS2HNDOLRCR","either","4","276","","","","","","","0","0","1","0.1081798115","","0.6","0.8","0.2","0.4","","","","","0.2088125345","0.1739713275","0.1081798115","0.1640989128","","","","","","","","","","75","K","2","","","187","main_expt",""
"","bandit","267","584380","0.0-229.0-0.0","88081406","wem/bandit_party_1","A2NTS2HNDOLRCR","either","4","325","","","","","","","0","0","1","","0.1301402021","0.6","0.8","0.2","0.4","0.2228369986","0.1926366302","0.08529062399","0.1301402021","","","","","","","","","","","","","","76","L","3","","","188","main_expt",""
"","bandit","268","586039","0.0-230.0-0.0","88081406","wem/bandit_party_1","A2NTS2HNDOLRCR","either","4","156","","","","","","","0","0","1","0.2567428292","","0.6","0.8","0.2","0.4","","","","","0.2567428292","0.2499935398","0.07250281893","0.1980942663","","","","","","","","","","72","H","0","img/none_selected.jpg","","189","main_expt",""
"","bandit","269","587741","0.0-231.0-0.0","88081406","wem/bandit_party_1","A2NTS2HNDOLRCR","either","4","197","","","","","","","0","0","1","0.2367317824","","0.6","0.8","0.2","0.4","","","","","0.3177850294","0.2367317824","0.07895395147","0.1842725295","","","","","","","","","","74","J","1","","","190","main_expt",""
"","bandit","270","589487","0.0-232.0-0.0","88081406","wem/bandit_party_1","A2NTS2HNDOLRCR","either","4","241","","","","","","","0","0","1","","0.06204701637","0.6","0.8","0.2","0.4","0.2876912335","0.2515026666","0.06204701637","0.2087081259","","","","","","","","","","","","","","75","K","2","","","191","main_expt",""
"","bandit","271","591213","0.0-233.0-0.0","88081406","wem/bandit_party_1","A2NTS2HNDOLRCR","either","4","222","","","","","","","0","0","1","0.1800110976","","0.6","0.8","0.2","0.4","","","","","0.2383873749","0.2451916405","0.064067899","0.1800110976","","","","","","","","","","76","L","3","","","192","main_expt",""
"","bandit","272","593223","0.0-234.0-0.0","88081406","wem/bandit_party_1","A2NTS2HNDOLRCR","either","4","505","","","","","","","0","0","1","0.24690957","","0.6","0.8","0.2","0.4","","","","","0.24690957","0.2353451433","0.1286650472","0.1519186298","","","","","","","","","","72","H","0","img/none_selected.jpg","","193","main_expt",""
"","bandit","273","594884","0.0-235.0-0.0","88081406","wem/bandit_party_1","A2NTS2HNDOLRCR","either","4","155","","","","","","","0","0","1","0.307075739","","0.6","0.8","0.2","0.4","","","","","0.2728455101","0.307075739","0.1746490116","0.1431656489","","","","","","","","","","74","J","1","","","194","main_expt",""
"","bandit","274","596596","0.0-236.0-0.0","88081406","wem/bandit_party_1","A2NTS2HNDOLRCR","either","4","208","","","","","","","0","0","1","","0.129035247","0.6","0.8","0.2","0.4","0.2421292151","0.3011001907","0.129035247","0.1868251083","","","","","","","","","","","","","","75","K","2","","","195","main_expt",""
"","bandit","275","598230","0.0-237.0-0.0","88081406","wem/bandit_party_1","A2NTS2HNDOLRCR","either","4","128","","","","","","","0","0","1","","0.176624335","0.6","0.8","0.2","0.4","0.2598052724","0.2861216794","0.09052040682","0.176624335","","","","","","","","","","","","","","76","L","3","","","196","main_expt",""
"","bandit","276","599950","0.0-238.0-0.0","88081406","wem/bandit_party_1","A2NTS2HNDOLRCR","either","4","216","","","","","","","0","0","1","","0.2383323772","0.6","0.8","0.2","0.4","0.2540930088","0.2121549007","0.08675464884","0.2383323772","","","","","","","","","","","","","","76","L","3","","","197","main_expt",""
"","bandit","277","601539","0.0-239.0-0.0","88081406","wem/bandit_party_1","A2NTS2HNDOLRCR","either","4","84","","","","","","","0","0","1","","0.09429549835","0.6","0.8","0.2","0.4","0.2460150375","0.260340052","0.09429549835","0.260618614","","","","","","","","","","","","","","75","K","2","","","198","main_expt",""
"","bandit","278","603174","0.0-240.0-0.0","88081406","wem/bandit_party_1","A2NTS2HNDOLRCR","either","4","129","","","","","","","0","0","1","","0.09303778716","0.6","0.8","0.2","0.4","0.2217343644","0.3009562829","0.09303778716","0.2935067364","","","","","","","","","","","","","","75","K","2","","","199","main_expt",""
"","bandit","279","604790","0.0-241.0-0.0","88081406","wem/bandit_party_1","A2NTS2HNDOLRCR","either","4","110","","","","","","","1","0","0","0.3430896668","","0.6","0.8","0.2","0.4","","","","","0.2830302048","0.3430896668","0.07354084322","0.362920627","","","","","","","","","","74","J","1","","","200","main_expt",""
"","bandit","280","606430","0.0-242.0-0.0","88081406","wem/bandit_party_1","A2NTS2HNDOLRCR","either","4","133","","","","","","","0","0","1","","0.2973668079","0.6","0.8","0.2","0.4","0.3175621279","0.2973668079","0.08115367452","0.3119044903","","","","","","","","","","","","","","74","J","1","","","201","main_expt",""
"","bandit","281","608144","0.0-243.0-0.0","88081406","wem/bandit_party_1","A2NTS2HNDOLRCR","either","4","210","","","","","","","1","0","0","0.3219337599","","0.6","0.8","0.2","0.4","","","","","0.3049471546","0.3219337599","0.0774842685","0.3095695708","","","","","","","","","","74","J","1","","","202","main_expt",""
"","bandit","282","609818","0.0-244.0-0.0","88081406","wem/bandit_party_1","A2NTS2HNDOLRCR","either","4","168","","","","","","","0","0","1","0.3229991028","","0.6","0.8","0.2","0.4","","","","","0.2975042969","0.3229991028","0.09704724367","0.3005459379","","","","","","","","","","74","J","1","","","203","main_expt",""
"","bandit","283","611481","0.0-245.0-0.0","88081406","wem/bandit_party_1","A2NTS2HNDOLRCR","either","4","157","","","","","","","0","0","1","0.3077995671","","0.6","0.8","0.2","0.4","","","","","0.2268457719","0.3077995671","0.1224111047","0.3116824409","","","","","","","","","","74","J","1","","","204","main_expt",""
"","bandit","284","613139","0.0-246.0-0.0","88081406","wem/bandit_party_1","A2NTS2HNDOLRCR","either","4","154","","","","","","","1","0","0","0.3070199156","","0.6","0.8","0.2","0.4","","","","","0.2582085449","0.3070199156","0.1627664319","0.3291635812","","","","","","","","","","74","J","1","","","205","main_expt",""
"","bandit","285","614896","0.0-247.0-0.0","88081406","wem/bandit_party_1","A2NTS2HNDOLRCR","either","4","251","","","","","","","0","0","1","0.3109683939","","0.6","0.8","0.2","0.4","","","","","0.2841247045","0.3109683939","0.1604236747","0.4008790519","","","","","","","","","","74","J","1","","","206","main_expt",""
"","bandit","286","616500","0.0-248.0-0.0","88081406","wem/bandit_party_1","A2NTS2HNDOLRCR","either","4","98","","","","","","","1","0","0","0.2845075958","","0.6","0.8","0.2","0.4","","","","","0.3333225396","0.2845075958","0.126388554","0.4202180382","","","","","","","","","","74","J","1","","","207","main_expt",""
"","bandit","287","618229","0.0-249.0-0.0","88081406","wem/bandit_party_1","A2NTS2HNDOLRCR","either","4","224","","","","","","","0","0","1","0.2419557814","","0.6","0.8","0.2","0.4","","","","","0.290219871","0.2419557814","0.1602309633","0.4168586074","","","","","","","","","","74","J","1","","","208","main_expt",""
"","bandit","288","619883","0.0-250.0-0.0","88081406","wem/bandit_party_1","A2NTS2HNDOLRCR","either","4","148","","","","","","","0","0","1","","0.2449545816","0.6","0.8","0.2","0.4","0.3426384504","0.2449545816","0.2009997365","0.3949328033","","","","","","","","","","","","","","74","J","1","","","209","main_expt",""
"","bandit","289","621543","0.0-251.0-0.0","88081406","wem/bandit_party_1","A2NTS2HNDOLRCR","either","4","153","","","","","","","0","0","1","0.2176860071","","0.6","0.8","0.2","0.4","","","","","0.2932754766","0.2176860071","0.1997114924","0.41782505","","","","","","","","","","74","J","1","","","210","main_expt",""
"","bandit","290","623202","0.0-252.0-0.0","88081406","wem/bandit_party_1","A2NTS2HNDOLRCR","either","4","155","","","","","","","0","0","1","0.2460847292","","0.6","0.8","0.2","0.4","","","","","0.2522206247","0.2460847292","0.2631807131","0.4377941382","","","","","","","","","","74","J","1","","","211","main_expt",""
"","bandit","291","624822","0.0-253.0-0.0","88081406","wem/bandit_party_1","A2NTS2HNDOLRCR","either","4","115","","","","","","","0","0","1","0.2323705111","","0.6","0.8","0.2","0.4","","","","","0.2323705111","0.2017704833","0.2008991105","0.4619006446","","","","","","","","","","72","H","0","img/none_selected.jpg","","212","main_expt",""
"","bandit","292","626394","0.0-254.0-0.0","88081406","wem/bandit_party_1","A2NTS2HNDOLRCR","either","4","67","","","","","","","0","0","1","0.2815580385","","0.6","0.8","0.2","0.4","","","","","0.2815580385","0.1891715169","0.1656487101","0.4508737721","","","","","","","","","","72","H","0","img/none_selected.jpg","","213","main_expt",""
"","bandit","293","627975","0.0-255.0-0.0","88081406","wem/bandit_party_1","A2NTS2HNDOLRCR","either","4","75","","","","","","","0","0","1","","0.1819308411","0.6","0.8","0.2","0.4","0.2955812139","0.1819308411","0.213788386","0.4639731149","","","","","","","","","","","","","","74","J","1","","","214","main_expt",""
"","bandit","294","629706","0.0-256.0-0.0","88081406","wem/bandit_party_1","A2NTS2HNDOLRCR","either","4","225","","","","","","","0","0","1","0.1406935411","","0.6","0.8","0.2","0.4","","","","","0.2988647484","0.1406935411","0.2206736926","0.4690757113","","","","","","","","","","74","J","1","","","215","main_expt",""
"","bandit","295","631526","0.0-257.0-0.0","88081406","wem/bandit_party_1","A2NTS2HNDOLRCR","either","4","315","","","","","","","1","0","0","0.3361974059","","0.6","0.8","0.2","0.4","","","","","0.3361974059","0.206739756","0.2270120675","0.4685680314","","","","","","","","","","72","H","0","img/none_selected.jpg","","216","main_expt",""
"","bandit","296","633325","0.0-258.0-0.0","88081406","wem/bandit_party_1","A2NTS2HNDOLRCR","either","4","294","","","","","","","0","1","0","","0.2764506131","0.6","0.8","0.2","0.4","0.2764506131","0.178624692","0.2561581829","0.4873952874","","","","","","","","","","","","","","72","H","0","img/none_selected.jpg","","217","main_expt",""
"","bandit","297","635042","0.0-259.0-0.0","88081406","wem/bandit_party_1","A2NTS2HNDOLRCR","either","4","210","","","","","","","0","0","1","0.299893698","","0.6","0.8","0.2","0.4","","","","","0.299893698","0.2021641755","0.2785758431","0.4790671899","","","","","","","","","","72","H","0","img/none_selected.jpg","","218","main_expt",""
"","bandit","298","637090","0.0-260.0-0.0","88081406","wem/bandit_party_1","A2NTS2HNDOLRCR","either","4","543","","","","","","","0","0","1","","0.3213687962","0.6","0.8","0.2","0.4","0.3213687962","0.2076996705","0.2707863597","0.4769795117","","","","","","","","","","","","","","72","H","0","img/none_selected.jpg","","219","main_expt",""
"","bandit","299","638779","0.0-261.0-0.0","88081406","wem/bandit_party_1","A2NTS2HNDOLRCR","either","4","184","","","","","","","0","0","1","","0.3782095139","0.6","0.8","0.2","0.4","0.3782095139","0.2479045362","0.2262269101","0.4746148145","","","","","","","","","","","","","","72","H","0","img/none_selected.jpg","","220","main_expt",""
"","bandit","300","640772","0.0-262.0-0.0","88081406","wem/bandit_party_1","A2NTS2HNDOLRCR","either","4","486","","","","","","","0","0","1","","0.3572699546","0.6","0.8","0.2","0.4","0.3572699546","0.251163546","0.2522421151","0.4789253058","","","","","","","","","","","","","","72","H","0","img/none_selected.jpg","","221","main_expt",""
"","bandit","301","642839","0.0-263.0-0.0","88081406","wem/bandit_party_1","A2NTS2HNDOLRCR","either","4","561","","","","","","","1","0","0","0.332217079","","0.6","0.8","0.2","0.4","","","","","0.332217079","0.2653622565","0.2323100388","0.4765400837","","","","","","","","","","72","H","0","img/none_selected.jpg","","222","main_expt",""
"","bandit","302","644923","0.0-264.0-0.0","88081406","wem/bandit_party_1","A2NTS2HNDOLRCR","either","4","578","","","","","","","0","0","1","0.3327789551","","0.6","0.8","0.2","0.4","","","","","0.3327789551","0.2034578964","0.2013525365","0.4872993944","","","","","","","","","","72","H","0","img/none_selected.jpg","","223","main_expt",""
"","bandit","303","646699","0.0-265.0-0.0","88081406","wem/bandit_party_1","A2NTS2HNDOLRCR","either","4","269","","","","","","","0","0","1","","0.3720138676","0.6","0.8","0.2","0.4","0.3720138676","0.1176985371","0.2017363432","0.4864577786","","","","","","","","","","","","","","72","H","0","img/none_selected.jpg","","224","main_expt",""
"","bandit","304","648552","0.0-266.0-0.0","88081406","wem/bandit_party_1","A2NTS2HNDOLRCR","either","4","348","","","","","","","0","0","1","","0.4035982493","0.6","0.8","0.2","0.4","0.4035982493","0.08531446518","0.1608447522","0.4815865163","","","","","","","","","","","","","","72","H","0","img/none_selected.jpg","","225","main_expt",""
"","bandit","305","650848","0.0-267.0-0.0","88081406","wem/bandit_party_1","A2NTS2HNDOLRCR","either","4","789","","","","","","","0","0","1","","0.3538577565","0.6","0.8","0.2","0.4","0.3538577565","0.0901010045","0.2023183299","0.4781941344","","","","","","","","","","","","","","72","H","0","img/none_selected.jpg","","226","main_expt",""
"","bandit","306","652741","0.0-268.0-0.0","88081406","wem/bandit_party_1","A2NTS2HNDOLRCR","either","4","387","","","","","","","1","0","0","0.4205879778","","0.6","0.8","0.2","0.4","","","","","0.4205879778","0.06499555022","0.1555458008","0.4742279627","","","","","","","","","","72","H","0","img/none_selected.jpg","","227","main_expt",""
"","bandit","307","654809","0.0-269.0-0.0","88081406","wem/bandit_party_1","A2NTS2HNDOLRCR","either","4","563","","","","","","","1","0","0","0.4082381823","","0.6","0.8","0.2","0.4","","","","","0.4082381823","0.06967502077","0.1210896773","0.4597327255","","","","","","","","","","72","H","0","img/none_selected.jpg","","228","main_expt",""
"","bandit","308","657005","0.0-270.0-0.0","88081406","wem/bandit_party_1","A2NTS2HNDOLRCR","either","4","692","","","","","","","0","0","1","0.4274963613","","0.6","0.8","0.2","0.4","","","","","0.4274963613","0.07642173418","0.1206830913","0.4733003713","","","","","","","","","","72","H","0","img/none_selected.jpg","","229","main_expt",""
"","bandit","309","659174","0.0-271.0-0.0","88081406","wem/bandit_party_1","A2NTS2HNDOLRCR","either","4","664","","","","","","","0","0","1","","0.4362488765","0.6","0.8","0.2","0.4","0.4362488765","0.04973788902","0.1334008039","0.4832022084","","","","","","","","","","","","","","72","H","0","img/none_selected.jpg","","230","main_expt",""
"","bandit","310","660966","0.0-272.0-0.0","88081406","wem/bandit_party_1","A2NTS2HNDOLRCR","either","4","286","","","","","","","0","0","1","","0.07419495466","0.6","0.8","0.2","0.4","0.4420629534","0.07419495466","0.1048467088","0.4802630573","","","","","","","","","","","","","","74","J","1","","","231","main_expt",""
"","bandit","311","662859","0.0-273.0-0.0","88081406","wem/bandit_party_1","A2NTS2HNDOLRCR","either","4","388","","","","","","","0","0","1","0.08125260149","","0.6","0.8","0.2","0.4","","","","","0.4287414635","0.08125260149","0.1184002818","0.4739318499","","","","","","","","","","74","J","1","","","232","main_expt",""
"","bandit","312","664721","0.0-274.0-0.0","88081406","wem/bandit_party_1","A2NTS2HNDOLRCR","either","4","355","","","","","","","0","0","1","0.06057073796","","0.6","0.8","0.2","0.4","","","","","0.4395511981","0.06057073796","0.08533064469","0.4709765286","","","","","","","","","","74","J","1","","","233","main_expt",""
"","bandit","313","666486","0.0-275.0-0.0","88081406","wem/bandit_party_1","A2NTS2HNDOLRCR","either","4","260","","","","","","","1","0","0","0.4479240545","","0.6","0.8","0.2","0.4","","","","","0.4479240545","0.1037411708","0.1190123434","0.4658145356","","","","","","","","","","72","H","0","img/none_selected.jpg","","234","main_expt",""
"","bandit","314","668333","0.0-276.0-0.0","88081406","wem/bandit_party_1","A2NTS2HNDOLRCR","either","4","341","","","","","","","0","0","1","","0.4476644646","0.6","0.8","0.2","0.4","0.4476644646","0.1267441937","0.1392024459","0.4312508187","","","","","","","","","","","","","","72","H","0","img/none_selected.jpg","","235","main_expt",""
