"consent","trial_type","trial_index","time_elapsed","internal_node_id","subjID","study","MID","cond","drift","rt","responses","button_pressed","key_press","like","value","connected","gems","bombs","no_reward","GemPrChosen","BombPrChosen","GainOverPainPr_0","GainOverPainPr_1","GainOverPainPr_2","GainOverPainPr_3","LosePr_0","LosePr_1","LosePr_2","LosePr_3","WinPr_0","WinPr_1","WinPr_2","WinPr_3","Q0","Q1","Q2","gender","age","ethnicity","label","expt_phase","target","respCharCode","respKey","respChoiceNum","respChoice","practice","trial_counter","trial_label","Q0_index"
"GDM/GDM_behavioral_consent_30min_online.html","consent","0","28667","0.0-0.0","88109297","wem/bandit_party_1","A2ONILC0LZKG6Y","either","1","","","","","","","","","","","","","","","","","","","","","","","","","","","","","","","","","","","","","","","","",""
"","survey-text","1","39856","0.0-1.0","88109297","wem/bandit_party_1","A2ONILC0LZKG6Y","either","1","10185","{""Q0"":""A2ONILC0LZKG6Y""}","","","","","","","","","","","","","","","","","","","","","","","","","","","","","","","","","","","","","","",""
"","button-response","2","42058","0.0-2.0","88109297","wem/bandit_party_1","A2ONILC0LZKG6Y","either","1","1198","","1","","","","","","","","","","","","","","","","","","","","","","","","","","","","","","","","","","","","","",""
"","text-replacement","3","56129","0.0-3.0","88109297","wem/bandit_party_1","A2ONILC0LZKG6Y","either","1","13069","","","32","","","","","","","","","","","","","","","","","","","","","","","","","","","","","","","","","","","","",""
"","text-replacement","4","75211","0.0-4.0","88109297","wem/bandit_party_1","A2ONILC0LZKG6Y","either","1","19081","","","32","","","","","","","","","","","","","","","","","","","","","","","","","","","","","","","","","","","","",""
"","identification","5","90971","0.0-6.0-0.0","88109297","wem/bandit_party_1","A2ONILC0LZKG6Y","either","1","15753","","","","1","3","1","","","","","","","","","","","","","","","","","","","","","","","","pre","identification_pre","the Republican party","","","","","","","",""
"","identification","6","105014","0.0-6.0-1.0","88109297","wem/bandit_party_1","A2ONILC0LZKG6Y","either","1","13036","","","","4","5","4","","","","","","","","","","","","","","","","","","","","","","","","pre","identification_pre","the Democratic Party","","","","","","","",""
"","text-replacement","7","119842","0.0-7.0","88109297","wem/bandit_party_1","A2ONILC0LZKG6Y","either","1","13827","","","32","","","","","","","","","","","","","","","","","","","","","","","","","","","","","","","","","","","","",""
"","text-replacement","8","128888","0.0-8.0","88109297","wem/bandit_party_1","A2ONILC0LZKG6Y","either","1","9045","","","32","","","","","","","","","","","","","","","","","","","","","","","","","","","","","","","","","","","","",""
"","text-replacement","9","143968","0.0-9.0","88109297","wem/bandit_party_1","A2ONILC0LZKG6Y","either","1","15078","","","32","","","","","","","","","","","","","","","","","","","","","","","","","","","","","","","","","","","","",""
"","text-replacement","10","148017","0.0-10.0","88109297","wem/bandit_party_1","A2ONILC0LZKG6Y","either","1","4048","","","32","","","","","","","","","","","","","","","","","","","","","","","","","","","","","","","","","","","","",""
"","text-replacement","11","155030","0.0-11.0","88109297","wem/bandit_party_1","A2ONILC0LZKG6Y","either","1","7012","","","32","","","","","","","","","","","","","","","","","","","","","","","","","","","","","","","","","","","","",""
"","bandit","12","157827","0.0-12.0-0.0","88109297","wem/bandit_party_1","A2ONILC0LZKG6Y","either","1","1293","","","","","","","0","0","1","0","0","","","","","0","","","","0","","","","","","","","","","","","","74","J","0","img/none_selected_demo.jpg","true","0","",""
"","bandit","13","160273","0.0-13.0-0.0","88109297","wem/bandit_party_1","A2ONILC0LZKG6Y","either","1","943","","","","","","","0","0","1","0","0","","","","","0","","","","0","","","","","","","","","","","","","75","K","0","img/none_selected_demo.jpg","true","0","",""
"","text-replacement","14","181083","0.0-14.0","88109297","wem/bandit_party_1","A2ONILC0LZKG6Y","either","1","20808","","","32","","","","","","","","","","","","","","","","","","","","","","","","","","","","","","","","","","","","",""
"","text-replacement","15","188343","0.0-15.0","88109297","wem/bandit_party_1","A2ONILC0LZKG6Y","either","1","7259","","","32","","","","","","","","","","","","","","","","","","","","","","","","","","","","","","","","","","","","",""
"","text-replacement","16","201787","0.0-16.0","88109297","wem/bandit_party_1","A2ONILC0LZKG6Y","either","1","13443","","","32","","","","","","","","","","","","","","","","","","","","","","","","","","","","","","","","","","","","",""
"","text-replacement","17","206073","0.0-17.0","88109297","wem/bandit_party_1","A2ONILC0LZKG6Y","either","1","4284","","","32","","","","","","","","","","","","","","","","","","","","","","","","","","","","","","","","","","","","",""
"","bandit","18","209520","0.0-18.0-0.0","88109297","wem/bandit_party_1","A2ONILC0LZKG6Y","either","1","1944","","","","","","","0","1","0","","0.8","0.5","0.5","","","0.8","0.2","","","","","","","","","","","","","","","","74","J","0","img/none_selected_demo.jpg","true","0","80_20_practice",""
"","bandit","19","211890","0.0-18.0-1.0","88109297","wem/bandit_party_1","A2ONILC0LZKG6Y","either","1","867","","","","","","","1","0","0","0.8","","0.5","0.5","","","","","","","0.8","0.2","","","","","","","","","","","","74","J","0","img/none_selected_demo.jpg","true","0","80_20_practice",""
"","bandit","20","214155","0.0-18.0-2.0","88109297","wem/bandit_party_1","A2ONILC0LZKG6Y","either","1","762","","","","","","","0","1","0","","0.8","0.5","0.5","","","0.8","0.2","","","","","","","","","","","","","","","","74","J","0","img/none_selected_demo.jpg","true","0","80_20_practice",""
"","bandit","21","216378","0.0-18.0-3.0","88109297","wem/bandit_party_1","A2ONILC0LZKG6Y","either","1","719","","","","","","","1","0","0","0.8","","0.5","0.5","","","","","","","0.8","0.2","","","","","","","","","","","","74","J","0","img/none_selected_demo.jpg","true","0","80_20_practice",""
"","bandit","22","218680","0.0-18.0-4.0","88109297","wem/bandit_party_1","A2ONILC0LZKG6Y","either","1","798","","","","","","","1","0","0","0.8","","0.5","0.5","","","","","","","0.8","0.2","","","","","","","","","","","","74","J","0","img/none_selected_demo.jpg","true","0","80_20_practice",""
"","bandit","23","222623","0.0-18.0-5.0","88109297","wem/bandit_party_1","A2ONILC0LZKG6Y","either","1","2439","","","","","","","0","0","1","","0.2","0.5","0.5","","","0.8","0.2","","","","","","","","","","","","","","","","75","K","1","","true","0","80_20_practice",""
"","bandit","24","224617","0.0-18.0-6.0","88109297","wem/bandit_party_1","A2ONILC0LZKG6Y","either","1","491","","","","","","","0","1","0","","0.2","0.5","0.5","","","0.8","0.2","","","","","","","","","","","","","","","","75","K","1","","true","0","80_20_practice",""
"","bandit","25","226864","0.0-18.0-7.0","88109297","wem/bandit_party_1","A2ONILC0LZKG6Y","either","1","744","","","","","","","0","0","1","","0.2","0.5","0.5","","","0.8","0.2","","","","","","","","","","","","","","","","75","K","1","","true","0","80_20_practice",""
"","bandit","26","229210","0.0-18.0-8.0","88109297","wem/bandit_party_1","A2ONILC0LZKG6Y","either","1","842","","","","","","","0","0","1","0.2","","0.5","0.5","","","","","","","0.8","0.2","","","","","","","","","","","","75","K","1","","true","0","80_20_practice",""
"","bandit","27","231562","0.0-18.0-9.0","88109297","wem/bandit_party_1","A2ONILC0LZKG6Y","either","1","849","","","","","","","0","1","0","","0.2","0.5","0.5","","","0.8","0.2","","","","","","","","","","","","","","","","75","K","1","","true","0","80_20_practice",""
"","bandit","28","234651","0.0-18.0-10.0","88109297","wem/bandit_party_1","A2ONILC0LZKG6Y","either","1","1585","","","","","","","0","0","1","","0.2","0.5","0.5","","","0.8","0.2","","","","","","","","","","","","","","","","75","K","1","","true","0","80_20_practice",""
"","bandit","29","236885","0.0-18.0-11.0","88109297","wem/bandit_party_1","A2ONILC0LZKG6Y","either","1","731","","","","","","","0","1","0","","0.2","0.5","0.5","","","0.8","0.2","","","","","","","","","","","","","","","","75","K","1","","true","0","80_20_practice",""
"","bandit","30","238960","0.0-18.0-12.0","88109297","wem/bandit_party_1","A2ONILC0LZKG6Y","either","1","572","","","","","","","0","0","1","0.2","","0.5","0.5","","","","","","","0.8","0.2","","","","","","","","","","","","75","K","1","","true","0","80_20_practice",""
"","bandit","31","240997","0.0-18.0-13.0","88109297","wem/bandit_party_1","A2ONILC0LZKG6Y","either","1","533","","","","","","","0","0","1","","0.2","0.5","0.5","","","0.8","0.2","","","","","","","","","","","","","","","","75","K","1","","true","0","80_20_practice",""
"","bandit","32","243050","0.0-18.0-14.0","88109297","wem/bandit_party_1","A2ONILC0LZKG6Y","either","1","549","","","","","","","0","0","1","0.2","","0.5","0.5","","","","","","","0.8","0.2","","","","","","","","","","","","75","K","1","","true","0","80_20_practice",""
"","bandit","33","245556","0.0-18.0-15.0","88109297","wem/bandit_party_1","A2ONILC0LZKG6Y","either","1","1003","","","","","","","0","1","0","","0.8","0.5","0.5","","","0.8","0.2","","","","","","","","","","","","","","","","74","J","0","img/none_selected_demo.jpg","true","0","80_20_practice",""
"","bandit","34","247379","0.0-18.0-16.0","88109297","wem/bandit_party_1","A2ONILC0LZKG6Y","either","1","320","","","","","","","0","0","1","0.8","","0.5","0.5","","","","","","","0.8","0.2","","","","","","","","","","","","74","J","0","img/none_selected_demo.jpg","true","0","80_20_practice",""
"","bandit","35","249205","0.0-18.0-17.0","88109297","wem/bandit_party_1","A2ONILC0LZKG6Y","either","1","323","","","","","","","0","1","0","","0.8","0.5","0.5","","","0.8","0.2","","","","","","","","","","","","","","","","74","J","0","img/none_selected_demo.jpg","true","0","80_20_practice",""
"","bandit","36","251077","0.0-18.0-18.0","88109297","wem/bandit_party_1","A2ONILC0LZKG6Y","either","1","369","","","","","","","0","0","1","0.8","","0.5","0.5","","","","","","","0.8","0.2","","","","","","","","","","","","74","J","0","img/none_selected_demo.jpg","true","0","80_20_practice",""
"","bandit","37","252967","0.0-18.0-19.0","88109297","wem/bandit_party_1","A2ONILC0LZKG6Y","either","1","387","","","","","","","0","1","0","","0.8","0.5","0.5","","","0.8","0.2","","","","","","","","","","","","","","","","74","J","0","img/none_selected_demo.jpg","true","0","80_20_practice",""
"","text-replacement","38","257118","0.0-19.0","88109297","wem/bandit_party_1","A2ONILC0LZKG6Y","either","1","4150","","","32","","","","","","","","","","","","","","","","","","","","","","","","","","","","","","","","","","","","",""
"","bandit","39","260151","0.0-20.0-0.0","88109297","wem/bandit_party_1","A2ONILC0LZKG6Y","either","1","1529","","","","","","","1","0","0","1","0","","","","","0","1","","","1","0","","","","","","","","","","","","74","J","0","img/none_selected_demo.jpg","true","0","",""
"","text-replacement","40","265551","0.0-21.0","88109297","wem/bandit_party_1","A2ONILC0LZKG6Y","either","1","5399","","","32","","","","","","","","","","","","","","","","","","","","","","","","","","","","","","","","","","","","",""
"","text-replacement","41","277004","0.0-22.0","88109297","wem/bandit_party_1","A2ONILC0LZKG6Y","either","1","11452","","","32","","","","","","","","","","","","","","","","","","","","","","","","","","","","","","","","","","","","",""
"","text-replacement","42","279727","0.0-23.0","88109297","wem/bandit_party_1","A2ONILC0LZKG6Y","either","1","2722","","","32","","","","","","","","","","","","","","","","","","","","","","","","","","","","","","","","","","","","",""
"","text-replacement","43","287197","0.0-24.0","88109297","wem/bandit_party_1","A2ONILC0LZKG6Y","either","1","7469","","","32","","","","","","","","","","","","","","","","","","","","","","","","","","","","","","","","","","","","",""
"","text-replacement","44","292474","0.0-25.0","88109297","wem/bandit_party_1","A2ONILC0LZKG6Y","either","1","5275","","","32","","","","","","","","","","","","","","","","","","","","","","","","","","","","","","","","","","","","",""
"","text-replacement","45","296575","0.0-26.0","88109297","wem/bandit_party_1","A2ONILC0LZKG6Y","either","1","4100","","","32","","","","","","","","","","","","","","","","","","","","","","","","","","","","","","","","","","","","",""
"","text-replacement","46","300774","0.0-27.0","88109297","wem/bandit_party_1","A2ONILC0LZKG6Y","either","1","4197","","","32","","","","","","","","","","","","","","","","","","","","","","","","","","","","","","","","","","","","",""
"","text-replacement","47","304105","0.0-28.0","88109297","wem/bandit_party_1","A2ONILC0LZKG6Y","either","1","3331","","","32","","","","","","","","","","","","","","","","","","","","","","","","","","","","","","","","","","","","",""
"","text-replacement","48","309863","0.0-29.0","88109297","wem/bandit_party_1","A2ONILC0LZKG6Y","either","1","5756","","","32","","","","","","","","","","","","","","","","","","","","","","","","","","","","","","","","","","","","",""
"","text-replacement","49","312125","0.0-30.0","88109297","wem/bandit_party_1","A2ONILC0LZKG6Y","either","1","2262","","","32","","","","","","","","","","","","","","","","","","","","","","","","","","","","","","","","","","","","",""
"","text-replacement","50","313354","0.0-31.0","88109297","wem/bandit_party_1","A2ONILC0LZKG6Y","either","1","1228","","","32","","","","","","","","","","","","","","","","","","","","","","","","","","","","","","","","","","","","",""
"","bandit","51","316004","0.0-32.0-0.0","88109297","wem/bandit_party_1","A2ONILC0LZKG6Y","either","1","1147","","","","","","","0","1","0","","0.8","0.5","0.5","0.5","0.5","0.8","0.2","0.6","0.2","","","","","","","","","","","","","","72","H","0","img/none_selected.jpg","true","0","full_practice",""
"","bandit","52","317894","0.0-32.0-1.0","88109297","wem/bandit_party_1","A2ONILC0LZKG6Y","either","1","386","","","","","","","0","1","0","","0.8","0.5","0.5","0.5","0.5","0.8","0.2","0.6","0.2","","","","","","","","","","","","","","72","H","0","img/none_selected.jpg","true","0","full_practice",""
"","bandit","53","319726","0.0-32.0-2.0","88109297","wem/bandit_party_1","A2ONILC0LZKG6Y","either","1","329","","","","","","","0","1","0","","0.8","0.5","0.5","0.5","0.5","0.8","0.2","0.6","0.2","","","","","","","","","","","","","","72","H","0","img/none_selected.jpg","true","0","full_practice",""
"","bandit","54","321628","0.0-32.0-3.0","88109297","wem/bandit_party_1","A2ONILC0LZKG6Y","either","1","398","","","","","","","1","0","0","0.8","","0.5","0.5","0.5","0.5","","","","","0.8","0.2","0.6","0.2","","","","","","","","","","72","H","0","img/none_selected.jpg","true","0","full_practice",""
"","bandit","55","323464","0.0-32.0-4.0","88109297","wem/bandit_party_1","A2ONILC0LZKG6Y","either","1","333","","","","","","","0","1","0","","0.8","0.5","0.5","0.5","0.5","0.8","0.2","0.6","0.2","","","","","","","","","","","","","","72","H","0","img/none_selected.jpg","true","0","full_practice",""
"","bandit","56","327630","0.0-32.0-5.0","88109297","wem/bandit_party_1","A2ONILC0LZKG6Y","either","1","2662","","","","","","","0","0","1","","0.8","0.5","0.5","0.5","0.5","0.8","0.2","0.6","0.2","","","","","","","","","","","","","","72","H","0","img/none_selected.jpg","true","0","full_practice",""
"","bandit","57","329438","0.0-32.0-6.0","88109297","wem/bandit_party_1","A2ONILC0LZKG6Y","either","1","305","","","","","","","1","0","0","0.8","","0.5","0.5","0.5","0.5","","","","","0.8","0.2","0.6","0.2","","","","","","","","","","72","H","0","img/none_selected.jpg","true","0","full_practice",""
"","bandit","58","331358","0.0-32.0-7.0","88109297","wem/bandit_party_1","A2ONILC0LZKG6Y","either","1","417","","","","","","","0","1","0","","0.8","0.5","0.5","0.5","0.5","0.8","0.2","0.6","0.2","","","","","","","","","","","","","","72","H","0","img/none_selected.jpg","true","0","full_practice",""
"","bandit","59","333174","0.0-32.0-8.0","88109297","wem/bandit_party_1","A2ONILC0LZKG6Y","either","1","313","","","","","","","1","0","0","0.8","","0.5","0.5","0.5","0.5","","","","","0.8","0.2","0.6","0.2","","","","","","","","","","72","H","0","img/none_selected.jpg","true","0","full_practice",""
"","bandit","60","334988","0.0-32.0-9.0","88109297","wem/bandit_party_1","A2ONILC0LZKG6Y","either","1","311","","","","","","","0","1","0","","0.8","0.5","0.5","0.5","0.5","0.8","0.2","0.6","0.2","","","","","","","","","","","","","","72","H","0","img/none_selected.jpg","true","0","full_practice",""
"","bandit","61","336812","0.0-32.0-10.0","88109297","wem/bandit_party_1","A2ONILC0LZKG6Y","either","1","319","","","","","","","0","0","1","0.2","","0.5","0.5","0.5","0.5","","","","","0.8","0.2","0.6","0.2","","","","","","","","","","74","J","1","","true","0","full_practice",""
"","bandit","62","338641","0.0-32.0-11.0","88109297","wem/bandit_party_1","A2ONILC0LZKG6Y","either","1","325","","","","","","","0","0","1","","0.2","0.5","0.5","0.5","0.5","0.8","0.2","0.6","0.2","","","","","","","","","","","","","","74","J","1","","true","0","full_practice",""
"","bandit","63","340452","0.0-32.0-12.0","88109297","wem/bandit_party_1","A2ONILC0LZKG6Y","either","1","308","","","","","","","0","0","1","0.2","","0.5","0.5","0.5","0.5","","","","","0.8","0.2","0.6","0.2","","","","","","","","","","74","J","1","","true","0","full_practice",""
"","bandit","64","342221","0.0-32.0-13.0","88109297","wem/bandit_party_1","A2ONILC0LZKG6Y","either","1","265","","","","","","","0","0","1","","0.2","0.5","0.5","0.5","0.5","0.8","0.2","0.6","0.2","","","","","","","","","","","","","","74","J","1","","true","0","full_practice",""
"","bandit","65","343972","0.0-32.0-14.0","88109297","wem/bandit_party_1","A2ONILC0LZKG6Y","either","1","247","","","","","","","0","0","1","","0.2","0.5","0.5","0.5","0.5","0.8","0.2","0.6","0.2","","","","","","","","","","","","","","74","J","1","","true","0","full_practice",""
"","bandit","66","345785","0.0-32.0-15.0","88109297","wem/bandit_party_1","A2ONILC0LZKG6Y","either","1","309","","","","","","","0","0","1","","0.2","0.5","0.5","0.5","0.5","0.8","0.2","0.6","0.2","","","","","","","","","","","","","","74","J","1","","true","0","full_practice",""
"","bandit","67","347592","0.0-32.0-16.0","88109297","wem/bandit_party_1","A2ONILC0LZKG6Y","either","1","304","","","","","","","0","1","0","","0.2","0.5","0.5","0.5","0.5","0.8","0.2","0.6","0.2","","","","","","","","","","","","","","74","J","1","","true","0","full_practice",""
"","bandit","68","349439","0.0-32.0-17.0","88109297","wem/bandit_party_1","A2ONILC0LZKG6Y","either","1","344","","","","","","","0","0","1","","0.2","0.5","0.5","0.5","0.5","0.8","0.2","0.6","0.2","","","","","","","","","","","","","","74","J","1","","true","0","full_practice",""
"","bandit","69","351274","0.0-32.0-18.0","88109297","wem/bandit_party_1","A2ONILC0LZKG6Y","either","1","331","","","","","","","0","0","1","0.2","","0.5","0.5","0.5","0.5","","","","","0.8","0.2","0.6","0.2","","","","","","","","","","74","J","1","","true","0","full_practice",""
"","bandit","70","353057","0.0-32.0-19.0","88109297","wem/bandit_party_1","A2ONILC0LZKG6Y","either","1","278","","","","","","","0","1","0","","0.2","0.5","0.5","0.5","0.5","0.8","0.2","0.6","0.2","","","","","","","","","","","","","","74","J","1","","true","0","full_practice",""
"","text","71","358257","0.0-33.0","88109297","wem/bandit_party_1","A2ONILC0LZKG6Y","either","1","5196","","","32","","","","","","","","","","","","","","","","","","","","","","","","","","","","","","","","","","","","",""
"","text-replacement","72","370259","0.0-34.0","88109297","wem/bandit_party_1","A2ONILC0LZKG6Y","either","1","11001","","","32","","","","","","","","","","","","","","","","","","","","","","","","","","","","","","","","","","","","",""
"","text-replacement","73","379724","0.0-35.0","88109297","wem/bandit_party_1","A2ONILC0LZKG6Y","either","1","9464","","","32","","","","","","","","","","","","","","","","","","","","","","","","","","","","","","","","","","","","",""
"","text-replacement","74","384741","0.0-36.0","88109297","wem/bandit_party_1","A2ONILC0LZKG6Y","either","1","5016","","","32","","","","","","","","","","","","","","","","","","","","","","","","","","","","","","","","","","","","",""
"","text-replacement","75","388814","0.0-37.0","88109297","wem/bandit_party_1","A2ONILC0LZKG6Y","either","1","4072","","","32","","","","","","","","","","","","","","","","","","","","","","","","","","","","","","","","","","","","",""
"","text-replacement","76","392578","0.0-38.0","88109297","wem/bandit_party_1","A2ONILC0LZKG6Y","either","1","3762","","","32","","","","","","","","","","","","","","","","","","","","","","","","","","","","","","","","","","","","",""
"","survey-multi-choice-replacement","77","401356","0.0-39.0-0.0","88109297","wem/bandit_party_1","A2ONILC0LZKG6Y","either","1","8773","","","","","","","","","","","","","","","","","","","","","","","","Money will be added to the pool for <span style='color:blue;'>DEMOCRATS</span>","","","","","","","attn_check","","","","","","","","","0"
"","survey-multi-choice-replacement","78","408069","0.0-40.0-0.0","88109297","wem/bandit_party_1","A2ONILC0LZKG6Y","either","1","5707","","","","","","","","","","","","","","","","","","","","","","","","Equal amounts of money will be added to the pool for <span style='color:blue;'>DEMOCRATS</span> and subtracted from the pool for <span style='color:red;'>REPUBLICANS</span>","","","","","","","attn_check","","","","","","","","","2"
"","survey-multi-choice-replacement","79","412314","0.0-41.0-0.0","88109297","wem/bandit_party_1","A2ONILC0LZKG6Y","either","1","3240","","","","","","","","","","","","","","","","","","","","","","","","No money will be added to either pool","","","","","","","attn_check","","","","","","","","","3"
"","bandit","80","417686","0.0-42.0-0.0","88109297","wem/bandit_party_1","A2ONILC0LZKG6Y","either","1","2866","","","","","","","0","0","1","0.02943109976","","0.6","0.2","0.8","0.4","","","","","0.02943109976","0.3592836462","0.4269289603","0.0798457429","","","","","","","","","","72","H","0","img/none_selected.jpg","","1","main_expt",""
"","bandit","81","419575","0.0-43.0-0.0","88109297","wem/bandit_party_1","A2ONILC0LZKG6Y","either","1","385","","","","","","","0","0","1","0.06336112212","","0.6","0.2","0.8","0.4","","","","","0.06336112212","0.3454903542","0.4660243271","0.07621336767","","","","","","","","","","72","H","0","img/none_selected.jpg","","2","main_expt",""
"","bandit","82","421425","0.0-44.0-0.0","88109297","wem/bandit_party_1","A2ONILC0LZKG6Y","either","1","345","","","","","","","0","0","1","","0.07335687118","0.6","0.2","0.8","0.4","0.07335687118","0.2941512374","0.4738503749","0.07476295528","","","","","","","","","","","","","","72","H","0","img/none_selected.jpg","","3","main_expt",""
"","bandit","83","423304","0.0-45.0-0.0","88109297","wem/bandit_party_1","A2ONILC0LZKG6Y","either","1","375","","","","","","","0","0","1","","0.2851241965","0.6","0.2","0.8","0.4","0.06156305515","0.2851241965","0.4618500418","0.06526985361","","","","","","","","","","","","","","74","J","1","","","4","main_expt",""
"","bandit","84","425078","0.0-46.0-0.0","88109297","wem/bandit_party_1","A2ONILC0LZKG6Y","either","1","270","","","","","","","0","1","0","","0.3172925843","0.6","0.2","0.8","0.4","0.08141194251","0.3172925843","0.4488935273","0.05487735528","","","","","","","","","","","","","","74","J","1","","","5","main_expt",""
"","bandit","85","426920","0.0-47.0-0.0","88109297","wem/bandit_party_1","A2ONILC0LZKG6Y","either","1","339","","","","","","","0","0","1","0.3319153021","","0.6","0.2","0.8","0.4","","","","","0.1104821702","0.3319153021","0.4437832297","0.04340015571","","","","","","","","","","74","J","1","","","6","main_expt",""
"","bandit","86","428784","0.0-48.0-0.0","88109297","wem/bandit_party_1","A2ONILC0LZKG6Y","either","1","361","","","","","","","1","0","0","0.4310077805","","0.6","0.2","0.8","0.4","","","","","0.1191408541","0.3553039772","0.4310077805","0.04575060371","","","","","","","","","","75","K","2","","","7","main_expt",""
"","bandit","87","430557","0.0-49.0-0.0","88109297","wem/bandit_party_1","A2ONILC0LZKG6Y","either","1","268","","","","","","","0","0","1","0.4480386191","","0.6","0.2","0.8","0.4","","","","","0.1517570037","0.3868093767","0.4480386191","0.06112087539","","","","","","","","","","75","K","2","","","8","main_expt",""
"","bandit","88","432464","0.0-50.0-0.0","88109297","wem/bandit_party_1","A2ONILC0LZKG6Y","either","1","403","","","","","","","0","0","1","0.4460224538","","0.6","0.2","0.8","0.4","","","","","0.1738087075","0.3754406694","0.4460224538","0.07854191076","","","","","","","","","","75","K","2","","","9","main_expt",""
"","bandit","89","434330","0.0-51.0-0.0","88109297","wem/bandit_party_1","A2ONILC0LZKG6Y","either","1","361","","","","","","","0","0","1","0.06865483858","","0.6","0.2","0.8","0.4","","","","","0.2033535465","0.3537433427","0.3954493452","0.06865483858","","","","","","","","","","76","L","3","","","10","main_expt",""
"","bandit","90","436135","0.0-52.0-0.0","88109297","wem/bandit_party_1","A2ONILC0LZKG6Y","either","1","301","","","","","","","0","0","1","","0.05083805298","0.6","0.2","0.8","0.4","0.1751631116","0.3793358735","0.4064238371","0.05083805298","","","","","","","","","","","","","","76","L","3","","","11","main_expt",""
"","bandit","91","437963","0.0-53.0-0.0","88109297","wem/bandit_party_1","A2ONILC0LZKG6Y","either","1","324","","","","","","","0","0","1","","0.1038792476","0.6","0.2","0.8","0.4","0.1787487179","0.3800428212","0.3800839449","0.1038792476","","","","","","","","","","","","","","76","L","3","","","12","main_expt",""
"","bandit","92","439801","0.0-54.0-0.0","88109297","wem/bandit_party_1","A2ONILC0LZKG6Y","either","1","334","","","","","","","0","1","0","","0.3866628193","0.6","0.2","0.8","0.4","0.1794712961","0.3647981021","0.3866628193","0.1197284353","","","","","","","","","","","","","","75","K","2","","","13","main_expt",""
"","bandit","93","441604","0.0-55.0-0.0","88109297","wem/bandit_party_1","A2ONILC0LZKG6Y","either","1","299","","","","","","","0","0","1","0.326509825","","0.6","0.2","0.8","0.4","","","","","0.2482140722","0.3646471907","0.326509825","0.135681701","","","","","","","","","","75","K","2","","","14","main_expt",""
"","bandit","94","443395","0.0-56.0-0.0","88109297","wem/bandit_party_1","A2ONILC0LZKG6Y","either","1","287","","","","","","","0","0","1","0.2428529647","","0.6","0.2","0.8","0.4","","","","","0.2859415589","0.3549291363","0.2428529647","0.125153919","","","","","","","","","","75","K","2","","","15","main_expt",""
"","bandit","95","445897","0.0-57.0-0.0","88109297","wem/bandit_party_1","A2ONILC0LZKG6Y","either","1","997","","","","","","","0","0","1","","0.3727350689","0.6","0.2","0.8","0.4","0.26587149","0.3727350689","0.2332962783","0.1096891688","","","","","","","","","","","","","","74","J","1","","","16","main_expt",""
"","bandit","96","447709","0.0-58.0-0.0","88109297","wem/bandit_party_1","A2ONILC0LZKG6Y","either","1","307","","","","","","","0","0","1","","0.3112083829","0.6","0.2","0.8","0.4","0.2776265896","0.3112083829","0.2271032234","0.1051581447","","","","","","","","","","","","","","74","J","1","","","17","main_expt",""
"","bandit","97","449493","0.0-59.0-0.0","88109297","wem/bandit_party_1","A2ONILC0LZKG6Y","either","1","278","","","","","","","0","0","1","","0.2403081055","0.6","0.2","0.8","0.4","0.3223387563","0.2403081055","0.1701710303","0.1437943492","","","","","","","","","","","","","","74","J","1","","","18","main_expt",""
"","bandit","98","451265","0.0-60.0-0.0","88109297","wem/bandit_party_1","A2ONILC0LZKG6Y","either","1","269","","","","","","","1","0","0","0.3192918255","","0.6","0.2","0.8","0.4","","","","","0.3192918255","0.2377482675","0.2070198111","0.1405615485","","","","","","","","","","72","H","0","img/none_selected.jpg","","19","main_expt",""
"","bandit","99","453042","0.0-61.0-0.0","88109297","wem/bandit_party_1","A2ONILC0LZKG6Y","either","1","273","","","","","","","0","1","0","","0.2739159796","0.6","0.2","0.8","0.4","0.2739159796","0.2607530295","0.2412547966","0.1063334751","","","","","","","","","","","","","","72","H","0","img/none_selected.jpg","","20","main_expt",""
"","bandit","100","454889","0.0-62.0-0.0","88109297","wem/bandit_party_1","A2ONILC0LZKG6Y","either","1","344","","","","","","","1","0","0","0.2454385858","","0.6","0.2","0.8","0.4","","","","","0.2454385858","0.2919400674","0.2184758186","0.07848250716","","","","","","","","","","72","H","0","img/none_selected.jpg","","21","main_expt",""
"","bandit","101","456661","0.0-63.0-0.0","88109297","wem/bandit_party_1","A2ONILC0LZKG6Y","either","1","268","","","","","","","0","1","0","","0.2340842041","0.6","0.2","0.8","0.4","0.2340842041","0.2995681058","0.1849325376","0.1005082742","","","","","","","","","","","","","","72","H","0","img/none_selected.jpg","","22","main_expt",""
"","bandit","102","458497","0.0-64.0-0.0","88109297","wem/bandit_party_1","A2ONILC0LZKG6Y","either","1","332","","","","","","","0","1","0","","0.1840173947","0.6","0.2","0.8","0.4","0.1840173947","0.292554742","0.1521197653","0.0792694407","","","","","","","","","","","","","","72","H","0","img/none_selected.jpg","","23","main_expt",""
"","bandit","103","460239","0.0-65.0-0.0","88109297","wem/bandit_party_1","A2ONILC0LZKG6Y","either","1","238","","","","","","","0","0","1","0.1745529383","","0.6","0.2","0.8","0.4","","","","","0.1745529383","0.3616894364","0.1759403195","0.07358699385","","","","","","","","","","72","H","0","img/none_selected.jpg","","24","main_expt",""
"","bandit","104","462019","0.0-66.0-0.0","88109297","wem/bandit_party_1","A2ONILC0LZKG6Y","either","1","276","","","","","","","0","0","1","0.1756582033","","0.6","0.2","0.8","0.4","","","","","0.1756582033","0.3575757263","0.09479311865","0.142208116","","","","","","","","","","72","H","0","img/none_selected.jpg","","25","main_expt",""
"","bandit","105","463804","0.0-67.0-0.0","88109297","wem/bandit_party_1","A2ONILC0LZKG6Y","either","1","280","","","","","","","0","0","1","0.2086365416","","0.6","0.2","0.8","0.4","","","","","0.2086365416","0.3635346368","0.08156123497","0.1245113583","","","","","","","","","","72","H","0","img/none_selected.jpg","","26","main_expt",""
"","bandit","106","465596","0.0-68.0-0.0","88109297","wem/bandit_party_1","A2ONILC0LZKG6Y","either","1","286","","","","","","","0","1","0","","0.4109801844","0.6","0.2","0.8","0.4","0.2139763749","0.4109801844","0.1102307873","0.118364605","","","","","","","","","","","","","","74","J","1","","","27","main_expt",""
"","bandit","107","467342","0.0-69.0-0.0","88109297","wem/bandit_party_1","A2ONILC0LZKG6Y","either","1","241","","","","","","","0","1","0","","0.3772962545","0.6","0.2","0.8","0.4","0.1613483267","0.3772962545","0.08274430796","0.1105930361","","","","","","","","","","","","","","74","J","1","","","28","main_expt",""
"","bandit","108","469098","0.0-70.0-0.0","88109297","wem/bandit_party_1","A2ONILC0LZKG6Y","either","1","251","","","","","","","0","0","1","","0.3875745016","0.6","0.2","0.8","0.4","0.1712488152","0.3875745016","0.1086911099","0.1118713044","","","","","","","","","","","","","","74","J","1","","","29","main_expt",""
"","bandit","109","470908","0.0-71.0-0.0","88109297","wem/bandit_party_1","A2ONILC0LZKG6Y","either","1","305","","","","","","","1","0","0","0.3780019893","","0.6","0.2","0.8","0.4","","","","","0.1675524316","0.3780019893","0.1116575632","0.1914750456","","","","","","","","","","74","J","1","","","30","main_expt",""
"","bandit","110","472727","0.0-72.0-0.0","88109297","wem/bandit_party_1","A2ONILC0LZKG6Y","either","1","315","","","","","","","0","1","0","","0.416860241","0.6","0.2","0.8","0.4","0.140325158","0.416860241","0.07828091442","0.2367730164","","","","","","","","","","","","","","74","J","1","","","31","main_expt",""
"","bandit","111","474478","0.0-73.0-0.0","88109297","wem/bandit_party_1","A2ONILC0LZKG6Y","either","1","247","","","","","","","0","0","1","0.4242573056","","0.6","0.2","0.8","0.4","","","","","0.1553940025","0.4242573056","0.07550395781","0.2109574779","","","","","","","","","","74","J","1","","","32","main_expt",""
"","bandit","112","476107","0.0-74.0-0.0","88109297","wem/bandit_party_1","A2ONILC0LZKG6Y","either","1","125","","","","","","","0","1","0","","0.4185546122","0.6","0.2","0.8","0.4","0.1925614924","0.4185546122","0.1445529326","0.2005542758","","","","","","","","","","","","","","74","J","1","","","33","main_expt",""
"","bandit","113","477872","0.0-75.0-0.0","88109297","wem/bandit_party_1","A2ONILC0LZKG6Y","either","1","260","","","","","","","0","1","0","","0.4268308419","0.6","0.2","0.8","0.4","0.2150530123","0.4268308419","0.1091775744","0.180377021","","","","","","","","","","","","","","74","J","1","","","34","main_expt",""
"","bandit","114","479629","0.0-76.0-0.0","88109297","wem/bandit_party_1","A2ONILC0LZKG6Y","either","1","253","","","","","","","0","0","1","","0.4265642185","0.6","0.2","0.8","0.4","0.2688968874","0.4265642185","0.1297995116","0.2111187229","","","","","","","","","","","","","","74","J","1","","","35","main_expt",""
"","bandit","115","481319","0.0-77.0-0.0","88109297","wem/bandit_party_1","A2ONILC0LZKG6Y","either","1","186","","","","","","","0","0","1","","0.4066287969","0.6","0.2","0.8","0.4","0.2977459964","0.4066287969","0.09468550628","0.2119332756","","","","","","","","","","","","","","74","J","1","","","36","main_expt",""
"","bandit","116","483032","0.0-78.0-0.0","88109297","wem/bandit_party_1","A2ONILC0LZKG6Y","either","1","208","","","","","","","0","0","1","","0.4611471687","0.6","0.2","0.8","0.4","0.2684429955","0.4611471687","0.09396978408","0.2256131965","","","","","","","","","","","","","","74","J","1","","","37","main_expt",""
"","bandit","117","484794","0.0-79.0-0.0","88109297","wem/bandit_party_1","A2ONILC0LZKG6Y","either","1","258","","","","","","","0","0","1","0.1062257399","","0.6","0.2","0.8","0.4","","","","","0.2490186117","0.4482708269","0.1062257399","0.1975147253","","","","","","","","","","75","K","2","","","38","main_expt",""
"","bandit","118","486536","0.0-80.0-0.0","88109297","wem/bandit_party_1","A2ONILC0LZKG6Y","either","1","237","","","","","","","0","0","1","","0.09676453159","0.6","0.2","0.8","0.4","0.2548033483","0.4402774387","0.09676453159","0.1595648847","","","","","","","","","","","","","","75","K","2","","","39","main_expt",""
"","bandit","119","488328","0.0-81.0-0.0","88109297","wem/bandit_party_1","A2ONILC0LZKG6Y","either","1","287","","","","","","","0","0","1","0.08197179495","","0.6","0.2","0.8","0.4","","","","","0.2688720753","0.4385128538","0.08197179495","0.1626610004","","","","","","","","","","75","K","2","","","40","main_expt",""
"","bandit","120","490077","0.0-82.0-0.0","88109297","wem/bandit_party_1","A2ONILC0LZKG6Y","either","1","245","","","","","","","0","1","0","","0.14416382","0.6","0.2","0.8","0.4","0.297778532","0.4380640779","0.14416382","0.1982402655","","","","","","","","","","","","","","75","K","2","","","41","main_expt",""
"","bandit","121","491866","0.0-83.0-0.0","88109297","wem/bandit_party_1","A2ONILC0LZKG6Y","either","1","284","","","","","","","0","0","1","0.1070927036","","0.6","0.2","0.8","0.4","","","","","0.2449207522","0.4265224768","0.1070927036","0.1863610343","","","","","","","","","","75","K","2","","","42","main_expt",""
"","bandit","122","493640","0.0-84.0-0.0","88109297","wem/bandit_party_1","A2ONILC0LZKG6Y","either","1","270","","","","","","","0","0","1","0.1214526226","","0.6","0.2","0.8","0.4","","","","","0.2457567503","0.435880106","0.1214526226","0.2418389683","","","","","","","","","","75","K","2","","","43","main_expt",""
"","bandit","123","495247","0.0-85.0-0.0","88109297","wem/bandit_party_1","A2ONILC0LZKG6Y","either","1","102","","","","","","","0","1","0","","0.1943491227","0.6","0.2","0.8","0.4","0.2432732657","0.4450576882","0.1450738833","0.1943491227","","","","","","","","","","","","","","76","L","3","","","44","main_expt",""
"","bandit","124","496808","0.0-86.0-0.0","88109297","wem/bandit_party_1","A2ONILC0LZKG6Y","either","1","57","","","","","","","0","0","1","","0.1543250971","0.6","0.2","0.8","0.4","0.2656772236","0.4382030275","0.09632230927","0.1543250971","","","","","","","","","","","","","","76","L","3","","","45","main_expt",""
"","bandit","125","498650","0.0-87.0-0.0","88109297","wem/bandit_party_1","A2ONILC0LZKG6Y","either","1","338","","","","","","","0","1","0","","0.09719433791","0.6","0.2","0.8","0.4","0.2432112423","0.4412369426","0.103211431","0.09719433791","","","","","","","","","","","","","","76","L","3","","","46","main_expt",""
"","bandit","126","500405","0.0-88.0-0.0","88109297","wem/bandit_party_1","A2ONILC0LZKG6Y","either","1","250","","","","","","","0","1","0","","0.1228880329","0.6","0.2","0.8","0.4","0.2992745976","0.4588863431","0.09916324924","0.1228880329","","","","","","","","","","","","","","76","L","3","","","47","main_expt",""
"","bandit","127","502247","0.0-89.0-0.0","88109297","wem/bandit_party_1","A2ONILC0LZKG6Y","either","1","337","","","","","","","0","0","1","","0.1068532567","0.6","0.2","0.8","0.4","0.2594611615","0.4408788818","0.1090242341","0.1068532567","","","","","","","","","","","","","","76","L","3","","","48","main_expt",""
"","bandit","128","503991","0.0-90.0-0.0","88109297","wem/bandit_party_1","A2ONILC0LZKG6Y","either","1","239","","","","","","","0","0","1","0.1044048509","","0.6","0.2","0.8","0.4","","","","","0.2767916858","0.4232064109","0.1265186769","0.1044048509","","","","","","","","","","76","L","3","","","49","main_expt",""
"","bandit","129","505783","0.0-91.0-0.0","88109297","wem/bandit_party_1","A2ONILC0LZKG6Y","either","1","288","","","","","","","0","0","1","0.1072026782","","0.6","0.2","0.8","0.4","","","","","0.2762534014","0.4210883962","0.1397440907","0.1072026782","","","","","","","","","","76","L","3","","","50","main_expt",""
"","bandit","130","507584","0.0-92.0-0.0","88109297","wem/bandit_party_1","A2ONILC0LZKG6Y","either","1","297","","","","","","","0","0","1","0.1287882573","","0.6","0.2","0.8","0.4","","","","","0.3379376541","0.4225635581","0.153600331","0.1287882573","","","","","","","","","","76","L","3","","","51","main_expt",""
"","bandit","131","509356","0.0-93.0-0.0","88109297","wem/bandit_party_1","A2ONILC0LZKG6Y","either","1","268","","","","","","","1","0","0","0.3395267946","","0.6","0.2","0.8","0.4","","","","","0.3395267946","0.4146237098","0.1718407591","0.1298059469","","","","","","","","","","72","H","0","img/none_selected.jpg","","52","main_expt",""
"","bandit","132","511126","0.0-94.0-0.0","88109297","wem/bandit_party_1","A2ONILC0LZKG6Y","either","1","266","","","","","","","1","0","0","0.29674647","","0.6","0.2","0.8","0.4","","","","","0.29674647","0.3763623321","0.1945727614","0.07423060895","","","","","","","","","","72","H","0","img/none_selected.jpg","","53","main_expt",""
"","bandit","133","512914","0.0-95.0-0.0","88109297","wem/bandit_party_1","A2ONILC0LZKG6Y","either","1","284","","","","","","","0","0","1","","0.3372955831","0.6","0.2","0.8","0.4","0.3372955831","0.3289081181","0.2450542523","0.08562383645","","","","","","","","","","","","","","72","H","0","img/none_selected.jpg","","54","main_expt",""
"","bandit","134","514738","0.0-96.0-0.0","88109297","wem/bandit_party_1","A2ONILC0LZKG6Y","either","1","319","","","","","","","0","0","1","","0.3506099842","0.6","0.2","0.8","0.4","0.3506099842","0.3025984711","0.2547241938","0.0757818623","","","","","","","","","","","","","","72","H","0","img/none_selected.jpg","","55","main_expt",""
"","bandit","135","516486","0.0-97.0-0.0","88109297","wem/bandit_party_1","A2ONILC0LZKG6Y","either","1","244","","","","","","","0","0","1","0.3418029788","","0.6","0.2","0.8","0.4","","","","","0.3418029788","0.2921333137","0.2595112895","0.09897923035","","","","","","","","","","72","H","0","img/none_selected.jpg","","56","main_expt",""
"","bandit","136","518209","0.0-98.0-0.0","88109297","wem/bandit_party_1","A2ONILC0LZKG6Y","either","1","219","","","","","","","0","0","1","","0.3162475816","0.6","0.2","0.8","0.4","0.3162475816","0.3317177772","0.2610276213","0.1160875525","","","","","","","","","","","","","","72","H","0","img/none_selected.jpg","","57","main_expt",""
"","bandit","137","519991","0.0-99.0-0.0","88109297","wem/bandit_party_1","A2ONILC0LZKG6Y","either","1","277","","","","","","","0","0","1","","0.3240244649","0.6","0.2","0.8","0.4","0.3269881105","0.3240244649","0.2354201416","0.1134641846","","","","","","","","","","","","","","74","J","1","","","58","main_expt",""
"","bandit","138","521783","0.0-100.0-0.0","88109297","wem/bandit_party_1","A2ONILC0LZKG6Y","either","1","287","","","","","","","0","0","1","0.2988076671","","0.6","0.2","0.8","0.4","","","","","0.2901324944","0.2988076671","0.2346370837","0.1177083384","","","","","","","","","","74","J","1","","","59","main_expt",""
"","bandit","139","523546","0.0-101.0-0.0","88109297","wem/bandit_party_1","A2ONILC0LZKG6Y","either","1","259","","","","","","","0","0","1","","0.3096792726","0.6","0.2","0.8","0.4","0.289588464","0.3096792726","0.2315637733","0.1125723432","","","","","","","","","","","","","","74","J","1","","","60","main_expt",""
"","bandit","140","525346","0.0-102.0-0.0","88109297","wem/bandit_party_1","A2ONILC0LZKG6Y","either","1","296","","","","","","","0","0","1","0.2821336973","","0.6","0.2","0.8","0.4","","","","","0.2782845563","0.2821336973","0.2599537756","0.09911093426","","","","","","","","","","74","J","1","","","61","main_expt",""
"","bandit","141","527177","0.0-103.0-0.0","88109297","wem/bandit_party_1","A2ONILC0LZKG6Y","either","1","327","","","","","","","0","0","1","0.2594941563","","0.6","0.2","0.8","0.4","","","","","0.3165490401","0.2414244345","0.2594941563","0.09440438105","","","","","","","","","","75","K","2","","","62","main_expt",""
"","bandit","142","528953","0.0-104.0-0.0","88109297","wem/bandit_party_1","A2ONILC0LZKG6Y","either","1","271","","","","","","","0","0","1","0.2660839385","","0.6","0.2","0.8","0.4","","","","","0.3034564924","0.213639373","0.2660839385","0.1015409351","","","","","","","","","","75","K","2","","","63","main_expt",""
"","bandit","143","530772","0.0-105.0-0.0","88109297","wem/bandit_party_1","A2ONILC0LZKG6Y","either","1","314","","","","","","","0","0","1","0.2426585031","","0.6","0.2","0.8","0.4","","","","","0.2506654962","0.1876308072","0.2426585031","0.07049798599","","","","","","","","","","75","K","2","","","64","main_expt",""
"","bandit","144","532562","0.0-106.0-0.0","88109297","wem/bandit_party_1","A2ONILC0LZKG6Y","either","1","286","","","","","","","0","0","1","0.2581047566","","0.6","0.2","0.8","0.4","","","","","0.253414466","0.1841803182","0.2581047566","0.05735603507","","","","","","","","","","75","K","2","","","65","main_expt",""
"","bandit","145","534667","0.0-107.0-0.0","88109297","wem/bandit_party_1","A2ONILC0LZKG6Y","either","1","600","","","","","","","0","0","1","","0.2836500186","0.6","0.2","0.8","0.4","0.2836500186","0.187417598","0.2872127433","0.0621258055","","","","","","","","","","","","","","72","H","0","img/none_selected.jpg","","66","main_expt",""
"","bandit","146","536687","0.0-108.0-0.0","88109297","wem/bandit_party_1","A2ONILC0LZKG6Y","either","1","515","","","","","","","0","0","1","0.3217852231","","0.6","0.2","0.8","0.4","","","","","0.3217852231","0.1395950637","0.3232337643","0.06966106928","","","","","","","","","","72","H","0","img/none_selected.jpg","","67","main_expt",""
"","bandit","147","538360","0.0-109.0-0.0","88109297","wem/bandit_party_1","A2ONILC0LZKG6Y","either","1","168","","","","","","","0","0","1","0.09965709916","","0.6","0.2","0.8","0.4","","","","","0.3574581916","0.1363519197","0.3376006622","0.09965709916","","","","","","","","","","76","L","3","","","68","main_expt",""
"","bandit","148","539905","0.0-110.0-0.0","88109297","wem/bandit_party_1","A2ONILC0LZKG6Y","either","1","41","","","","","","","0","0","1","0.1428217854","","0.6","0.2","0.8","0.4","","","","","0.3884563005","0.1117144852","0.2917609244","0.1428217854","","","","","","","","","","76","L","3","","","69","main_expt",""
"","bandit","149","541691","0.0-111.0-0.0","88109297","wem/bandit_party_1","A2ONILC0LZKG6Y","either","1","281","","","","","","","0","0","1","","0.1866845388","0.6","0.2","0.8","0.4","0.3920047773","0.09667493602","0.2218665627","0.1866845388","","","","","","","","","","","","","","76","L","3","","","70","main_expt",""
"","bandit","150","543721","0.0-112.0-0.0","88109297","wem/bandit_party_1","A2ONILC0LZKG6Y","either","1","524","","","","","","","0","0","1","","0.1702545286","0.6","0.2","0.8","0.4","0.4066376731","0.09186933139","0.2409383839","0.1702545286","","","","","","","","","","","","","","76","L","3","","","71","main_expt",""
"","bandit","151","545696","0.0-113.0-0.0","88109297","wem/bandit_party_1","A2ONILC0LZKG6Y","either","1","471","","","","","","","0","0","1","0.3443789926","","0.6","0.2","0.8","0.4","","","","","0.3443789926","0.09472009463","0.1920783453","0.1836279043","","","","","","","","","","72","H","0","img/none_selected.jpg","","72","main_expt",""
"","bandit","152","547462","0.0-114.0-0.0","88109297","wem/bandit_party_1","A2ONILC0LZKG6Y","either","1","261","","","","","","","0","0","1","0.3227553012","","0.6","0.2","0.8","0.4","","","","","0.3227553012","0.1167805336","0.1905254877","0.1644348242","","","","","","","","","","72","H","0","img/none_selected.jpg","","73","main_expt",""
"","bandit","153","549237","0.0-115.0-0.0","88109297","wem/bandit_party_1","A2ONILC0LZKG6Y","either","1","271","","","","","","","0","0","1","0.3336652139","","0.6","0.2","0.8","0.4","","","","","0.3336652139","0.1465151254","0.184198213","0.1833421201","","","","","","","","","","72","H","0","img/none_selected.jpg","","74","main_expt",""
"","bandit","154","551054","0.0-116.0-0.0","88109297","wem/bandit_party_1","A2ONILC0LZKG6Y","either","1","312","","","","","","","1","0","0","0.2890150868","","0.6","0.2","0.8","0.4","","","","","0.2890150868","0.123285719","0.1881920243","0.1519653276","","","","","","","","","","72","H","0","img/none_selected.jpg","","75","main_expt",""
"","bandit","155","552828","0.0-117.0-0.0","88109297","wem/bandit_party_1","A2ONILC0LZKG6Y","either","1","270","","","","","","","0","0","1","0.2673490463","","0.6","0.2","0.8","0.4","","","","","0.2673490463","0.1392606081","0.1988930589","0.1506622639","","","","","","","","","","72","H","0","img/none_selected.jpg","","76","main_expt",""
"","bandit","156","554554","0.0-118.0-0.0","88109297","wem/bandit_party_1","A2ONILC0LZKG6Y","either","1","221","","","","","","","0","0","1","0.2858541315","","0.6","0.2","0.8","0.4","","","","","0.2858541315","0.099337717","0.2255968657","0.1860897766","","","","","","","","","","72","H","0","img/none_selected.jpg","","77","main_expt",""
"","bandit","157","556354","0.0-119.0-0.0","88109297","wem/bandit_party_1","A2ONILC0LZKG6Y","either","1","295","","","","","","","0","0","1","0.09666605973","","0.6","0.2","0.8","0.4","","","","","0.2639968829","0.09666605973","0.1917014014","0.1618556875","","","","","","","","","","74","J","1","","","78","main_expt",""
"","bandit","158","558140","0.0-120.0-0.0","88109297","wem/bandit_party_1","A2ONILC0LZKG6Y","either","1","280","","","","","","","0","0","1","","0.09639353985","0.6","0.2","0.8","0.4","0.2304888896","0.09639353985","0.2092129429","0.1976853889","","","","","","","","","","","","","","74","J","1","","","79","main_expt",""
"","bandit","159","559916","0.0-121.0-0.0","88109297","wem/bandit_party_1","A2ONILC0LZKG6Y","either","1","272","","","","","","","0","0","1","","0.09566996791","0.6","0.2","0.8","0.4","0.1991809665","0.09566996791","0.1974306726","0.2198838985","","","","","","","","","","","","","","74","J","1","","","80","main_expt",""
"","bandit","160","561655","0.0-122.0-0.0","88109297","wem/bandit_party_1","A2ONILC0LZKG6Y","either","1","234","","","","","","","0","0","1","","0.07958501382","0.6","0.2","0.8","0.4","0.1627434897","0.07958501382","0.1414754506","0.2167005254","","","","","","","","","","","","","","74","J","1","","","81","main_expt",""
"","bandit","161","563275","0.0-123.0-0.0","88109297","wem/bandit_party_1","A2ONILC0LZKG6Y","either","1","116","","","","","","","0","0","1","0.08833774835","","0.6","0.2","0.8","0.4","","","","","0.1624637972","0.08833774835","0.1422587364","0.2527486409","","","","","","","","","","74","J","1","","","82","main_expt",""
"","bandit","162","565075","0.0-124.0-0.0","88109297","wem/bandit_party_1","A2ONILC0LZKG6Y","either","1","296","","","","","","","0","0","1","0.1079415531","","0.6","0.2","0.8","0.4","","","","","0.1900332","0.09109006352","0.1079415531","0.2569721607","","","","","","","","","","75","K","2","","","83","main_expt",""
"","bandit","163","566873","0.0-125.0-0.0","88109297","wem/bandit_party_1","A2ONILC0LZKG6Y","either","1","293","","","","","","","0","0","1","0.07696487024","","0.6","0.2","0.8","0.4","","","","","0.1705646391","0.05321730921","0.07696487024","0.2535394321","","","","","","","","","","75","K","2","","","84","main_expt",""
"","bandit","164","568661","0.0-126.0-0.0","88109297","wem/bandit_party_1","A2ONILC0LZKG6Y","either","1","283","","","","","","","0","0","1","0.08313016423","","0.6","0.2","0.8","0.4","","","","","0.2053302659","0.03321009489","0.08313016423","0.2255799186","","","","","","","","","","75","K","2","","","85","main_expt",""
"","bandit","165","570459","0.0-127.0-0.0","88109297","wem/bandit_party_1","A2ONILC0LZKG6Y","either","1","292","","","","","","","0","0","1","0.102083396","","0.6","0.2","0.8","0.4","","","","","0.2128685413","0.04864990798","0.102083396","0.2197080914","","","","","","","","","","75","K","2","","","86","main_expt",""
"","bandit","166","572304","0.0-128.0-0.0","88109297","wem/bandit_party_1","A2ONILC0LZKG6Y","either","1","340","","","","","","","0","0","1","","0.2230338057","0.6","0.2","0.8","0.4","0.213778815","0.07919268752","0.09067070718","0.2230338057","","","","","","","","","","","","","","76","L","3","","","87","main_expt",""
"","bandit","167","574091","0.0-129.0-0.0","88109297","wem/bandit_party_1","A2ONILC0LZKG6Y","either","1","282","","","","","","","0","0","1","0.2484269739","","0.6","0.2","0.8","0.4","","","","","0.2102340809","0.05835116993","0.1421970704","0.2484269739","","","","","","","","","","76","L","3","","","88","main_expt",""
"","bandit","168","575934","0.0-130.0-0.0","88109297","wem/bandit_party_1","A2ONILC0LZKG6Y","either","1","338","","","","","","","0","0","1","","0.2733562597","0.6","0.2","0.8","0.4","0.1809358483","0.05115519592","0.219142046","0.2733562597","","","","","","","","","","","","","","76","L","3","","","89","main_expt",""
"","bandit","169","577711","0.0-131.0-0.0","88109297","wem/bandit_party_1","A2ONILC0LZKG6Y","either","1","273","","","","","","","0","0","1","0.2973868449","","0.6","0.2","0.8","0.4","","","","","0.1293356972","0.07819273649","0.2806923657","0.2973868449","","","","","","","","","","76","L","3","","","90","main_expt",""
"","bandit","170","579465","0.0-132.0-0.0","88109297","wem/bandit_party_1","A2ONILC0LZKG6Y","either","1","250","","","","","","","0","1","0","","0.3067689268","0.6","0.2","0.8","0.4","0.1136224352","0.05564661524","0.2819660137","0.3067689268","","","","","","","","","","","","","","76","L","3","","","91","main_expt",""
"","bandit","171","581262","0.0-133.0-0.0","88109297","wem/bandit_party_1","A2ONILC0LZKG6Y","either","1","291","","","","","","","0","0","1","","0.2719776188","0.6","0.2","0.8","0.4","0.07539152519","0.05914103421","0.3370305887","0.2719776188","","","","","","","","","","","","","","76","L","3","","","92","main_expt",""
"","bandit","172","583004","0.0-134.0-0.0","88109297","wem/bandit_party_1","A2ONILC0LZKG6Y","either","1","236","","","","","","","0","1","0","","0.3081791896","0.6","0.2","0.8","0.4","0.08243558305","0.03944324463","0.3722719914","0.3081791896","","","","","","","","","","","","","","76","L","3","","","93","main_expt",""
"","bandit","173","584763","0.0-135.0-0.0","88109297","wem/bandit_party_1","A2ONILC0LZKG6Y","either","1","253","","","","","","","0","0","1","","0.356667856","0.6","0.2","0.8","0.4","0.09807673793","0.05023017475","0.3840030774","0.356667856","","","","","","","","","","","","","","76","L","3","","","94","main_expt",""
"","bandit","174","586531","0.0-136.0-0.0","88109297","wem/bandit_party_1","A2ONILC0LZKG6Y","either","1","263","","","","","","","0","1","0","","0.3300765204","0.6","0.2","0.8","0.4","0.09746204728","0.07311956304","0.4050844552","0.3300765204","","","","","","","","","","","","","","76","L","3","","","95","main_expt",""
"","bandit","175","588320","0.0-137.0-0.0","88109297","wem/bandit_party_1","A2ONILC0LZKG6Y","either","1","284","","","","","","","1","0","0","0.3642735905","","0.6","0.2","0.8","0.4","","","","","0.08559835745","0.09573717159","0.4081076376","0.3642735905","","","","","","","","","","76","L","3","","","96","main_expt",""
"","bandit","176","590168","0.0-138.0-0.0","88109297","wem/bandit_party_1","A2ONILC0LZKG6Y","either","1","343","","","","","","","0","1","0","","0.3885664579","0.6","0.2","0.8","0.4","0.0732645996","0.1235519285","0.4142780263","0.3885664579","","","","","","","","","","","","","","76","L","3","","","97","main_expt",""
"","bandit","177","591892","0.0-139.0-0.0","88109297","wem/bandit_party_1","A2ONILC0LZKG6Y","either","1","219","","","","","","","0","0","1","0.4162912028","","0.6","0.2","0.8","0.4","","","","","0.05343209845","0.1274282425","0.4131193208","0.4162912028","","","","","","","","","","76","L","3","","","98","main_expt",""
"","bandit","178","593416","0.0-140.0-0.0","88109297","wem/bandit_party_1","A2ONILC0LZKG6Y","either","1","18","","","","","","","0","0","1","","0.4074153657","0.6","0.2","0.8","0.4","0.05144299931","0.1457321849","0.428944851","0.4074153657","","","","","","","","","","","","","","76","L","3","","","99","main_expt",""
"","bandit","179","595200","0.0-141.0-0.0","88109297","wem/bandit_party_1","A2ONILC0LZKG6Y","either","1","278","","","","","","","0","0","1","0.3349137267","","0.6","0.2","0.8","0.4","","","","","0.03934302155","0.1492128348","0.4279797645","0.3349137267","","","","","","","","","","76","L","3","","","100","main_expt",""
"","bandit","180","597001","0.0-142.0-0.0","88109297","wem/bandit_party_1","A2ONILC0LZKG6Y","either","1","297","","","","","","","0","0","1","0.05783306622","","0.6","0.2","0.8","0.4","","","","","0.05783306622","0.125019219","0.4189249443","0.2732947861","","","","","","","","","","72","H","0","img/none_selected.jpg","","101","main_expt",""
"","bandit","181","598795","0.0-143.0-0.0","88109297","wem/bandit_party_1","A2ONILC0LZKG6Y","either","1","289","","","","","","","0","0","1","0.06484492547","","0.6","0.2","0.8","0.4","","","","","0.06484492547","0.1008510245","0.4279241466","0.2584454073","","","","","","","","","","72","H","0","img/none_selected.jpg","","102","main_expt",""
"","bandit","182","600583","0.0-144.0-0.0","88109297","wem/bandit_party_1","A2ONILC0LZKG6Y","either","1","284","","","","","","","0","0","1","","0.0701259157","0.6","0.2","0.8","0.4","0.0701259157","0.1087281004","0.419390052","0.2143891894","","","","","","","","","","","","","","72","H","0","img/none_selected.jpg","","103","main_expt",""
"","bandit","183","602344","0.0-145.0-0.0","88109297","wem/bandit_party_1","A2ONILC0LZKG6Y","either","1","257","","","","","","","0","0","1","0.06922647753","","0.6","0.2","0.8","0.4","","","","","0.06922647753","0.143855427","0.3761202226","0.1354346047","","","","","","","","","","72","H","0","img/none_selected.jpg","","104","main_expt",""
"","bandit","184","604060","0.0-146.0-0.0","88109297","wem/bandit_party_1","A2ONILC0LZKG6Y","either","1","210","","","","","","","0","0","1","0.07802312096","","0.6","0.2","0.8","0.4","","","","","0.07802312096","0.1606853024","0.4229881466","0.1615963473","","","","","","","","","","72","H","0","img/none_selected.jpg","","105","main_expt",""
"","bandit","185","606884","0.0-147.0-0.0","88109297","wem/bandit_party_1","A2ONILC0LZKG6Y","either","1","1319","","","","","","","1","0","0","0.4110558218","","0.6","0.2","0.8","0.4","","","","","0.08930313369","0.1612939645","0.4110558218","0.1738621023","","","","","","","","","","75","K","2","","","106","main_expt",""
"","bandit","186","608657","0.0-148.0-0.0","88109297","wem/bandit_party_1","A2ONILC0LZKG6Y","either","1","268","","","","","","","1","0","0","0.4176599015","","0.6","0.2","0.8","0.4","","","","","0.1397733654","0.1778053335","0.4176599015","0.1799671425","","","","","","","","","","75","K","2","","","107","main_expt",""
"","bandit","187","610466","0.0-149.0-0.0","88109297","wem/bandit_party_1","A2ONILC0LZKG6Y","either","1","303","","","","","","","1","0","0","0.4210396584","","0.6","0.2","0.8","0.4","","","","","0.1505899732","0.1826465361","0.4210396584","0.1844274074","","","","","","","","","","75","K","2","","","108","main_expt",""
"","bandit","188","612220","0.0-150.0-0.0","88109297","wem/bandit_party_1","A2ONILC0LZKG6Y","either","1","249","","","","","","","0","0","1","0.4328015469","","0.6","0.2","0.8","0.4","","","","","0.1162436109","0.1737022726","0.4328015469","0.1702708828","","","","","","","","","","75","K","2","","","109","main_expt",""
"","bandit","189","614009","0.0-151.0-0.0","88109297","wem/bandit_party_1","A2ONILC0LZKG6Y","either","1","284","","","","","","","0","0","1","0.4495585744","","0.6","0.2","0.8","0.4","","","","","0.08267976014","0.1658344406","0.4495585744","0.1964407335","","","","","","","","","","75","K","2","","","110","main_expt",""
"","bandit","190","615806","0.0-152.0-0.0","88109297","wem/bandit_party_1","A2ONILC0LZKG6Y","either","1","292","","","","","","","1","0","0","0.4237631325","","0.6","0.2","0.8","0.4","","","","","0.09389793805","0.240619448","0.4237631325","0.1777579569","","","","","","","","","","75","K","2","","","111","main_expt",""
"","bandit","191","617654","0.0-153.0-0.0","88109297","wem/bandit_party_1","A2ONILC0LZKG6Y","either","1","344","","","","","","","0","1","0","","0.4521571561","0.6","0.2","0.8","0.4","0.07903418564","0.1927397719","0.4521571561","0.1395994444","","","","","","","","","","","","","","75","K","2","","","112","main_expt",""
"","bandit","192","619450","0.0-154.0-0.0","88109297","wem/bandit_party_1","A2ONILC0LZKG6Y","either","1","292","","","","","","","1","0","0","0.4350762846","","0.6","0.2","0.8","0.4","","","","","0.05501139052","0.234725565","0.4350762846","0.1205999431","","","","","","","","","","75","K","2","","","113","main_expt",""
"","bandit","193","621244","0.0-155.0-0.0","88109297","wem/bandit_party_1","A2ONILC0LZKG6Y","either","1","288","","","","","","","1","0","0","0.4315824664","","0.6","0.2","0.8","0.4","","","","","0.07627702456","0.1950215869","0.4315824664","0.09123355482","","","","","","","","","","75","K","2","","","114","main_expt",""
"","bandit","194","623021","0.0-156.0-0.0","88109297","wem/bandit_party_1","A2ONILC0LZKG6Y","either","1","271","","","","","","","1","0","0","0.4127349624","","0.6","0.2","0.8","0.4","","","","","0.03985247356","0.2575833325","0.4127349624","0.09554471192","","","","","","","","","","75","K","2","","","115","main_expt",""
"","bandit","195","624853","0.0-157.0-0.0","88109297","wem/bandit_party_1","A2ONILC0LZKG6Y","either","1","327","","","","","","","0","1","0","","0.4468356006","0.6","0.2","0.8","0.4","0.0683792979","0.2296468005","0.4468356006","0.1942182492","","","","","","","","","","","","","","75","K","2","","","116","main_expt",""
"","bandit","196","626674","0.0-158.0-0.0","88109297","wem/bandit_party_1","A2ONILC0LZKG6Y","either","1","317","","","","","","","0","0","1","0.4458703805","","0.6","0.2","0.8","0.4","","","","","0.03956212276","0.2816483341","0.4458703805","0.2208250117","","","","","","","","","","75","K","2","","","117","main_expt",""
"","bandit","197","628441","0.0-159.0-0.0","88109297","wem/bandit_party_1","A2ONILC0LZKG6Y","either","1","261","","","","","","","0","0","1","0.4500370674","","0.6","0.2","0.8","0.4","","","","","0.04459229253","0.2626769985","0.4500370674","0.1687975443","","","","","","","","","","75","K","2","","","118","main_expt",""
"","bandit","198","630235","0.0-160.0-0.0","88109297","wem/bandit_party_1","A2ONILC0LZKG6Y","either","1","288","","","","","","","0","1","0","","0.4704359259","0.6","0.2","0.8","0.4","0.03386957434","0.2418090277","0.4704359259","0.1546105485","","","","","","","","","","","","","","75","K","2","","","119","main_expt",""
"","bandit","199","632002","0.0-161.0-0.0","88109297","wem/bandit_party_1","A2ONILC0LZKG6Y","either","1","262","","","","","","","0","0","1","0.4578798539","","0.6","0.2","0.8","0.4","","","","","0.03305427522","0.2603236095","0.4578798539","0.143668411","","","","","","","","","","75","K","2","","","120","main_expt",""
"","bandit","200","633788","0.0-162.0-0.0","88109297","wem/bandit_party_1","A2ONILC0LZKG6Y","either","1","282","","","","","","","0","0","1","0.4591190262","","0.6","0.2","0.8","0.4","","","","","0.03146098963","0.2381785671","0.4591190262","0.1098317425","","","","","","","","","","75","K","2","","","121","main_expt",""
"","bandit","201","635589","0.0-163.0-0.0","88109297","wem/bandit_party_1","A2ONILC0LZKG6Y","either","1","296","","","","","","","1","0","0","0.4643737298","","0.6","0.2","0.8","0.4","","","","","0.02311797033","0.2388462554","0.4643737298","0.1097832873","","","","","","","","","","75","K","2","","","122","main_expt",""
"","bandit","202","637380","0.0-164.0-0.0","88109297","wem/bandit_party_1","A2ONILC0LZKG6Y","either","1","286","","","","","","","1","0","0","0.451586091","","0.6","0.2","0.8","0.4","","","","","0.0171261738","0.2079929623","0.451586091","0.1145900252","","","","","","","","","","75","K","2","","","123","main_expt",""
"","bandit","203","639109","0.0-165.0-0.0","88109297","wem/bandit_party_1","A2ONILC0LZKG6Y","either","1","223","","","","","","","0","0","1","","0.4456906556","0.6","0.2","0.8","0.4","0.03468299263","0.2148400852","0.4456906556","0.1137783892","","","","","","","","","","","","","","75","K","2","","","124","main_expt",""
"","bandit","204","640661","0.0-166.0-0.0","88109297","wem/bandit_party_1","A2ONILC0LZKG6Y","either","1","48","","","","","","","0","0","1","0.4240876494","","0.6","0.2","0.8","0.4","","","","","0.02544516396","0.2185056602","0.4240876494","0.145605256","","","","","","","","","","75","K","2","","","125","main_expt",""
"","bandit","205","642429","0.0-167.0-0.0","88109297","wem/bandit_party_1","A2ONILC0LZKG6Y","either","1","263","","","","","","","0","0","1","0.4008501573","","0.6","0.2","0.8","0.4","","","","","0.03059506073","0.2152323899","0.4008501573","0.1443839055","","","","","","","","","","75","K","2","","","126","main_expt",""
"","bandit","206","644121","0.0-168.0-0.0","88109297","wem/bandit_party_1","A2ONILC0LZKG6Y","either","1","188","","","","","","","0","0","1","","0.1699446714","0.6","0.2","0.8","0.4","0.0339638967","0.1699446714","0.4066073101","0.1434222382","","","","","","","","","","","","","","74","J","1","","","127","main_expt",""
"","bandit","207","645879","0.0-169.0-0.0","88109297","wem/bandit_party_1","A2ONILC0LZKG6Y","either","1","253","","","","","","","0","0","1","","0.1299446217","0.6","0.2","0.8","0.4","0.02632978063","0.1299446217","0.4270302575","0.1412168693","","","","","","","","","","","","","","74","J","1","","","128","main_expt",""
"","bandit","208","647518","0.0-170.0-0.0","88109297","wem/bandit_party_1","A2ONILC0LZKG6Y","either","1","134","","","","","","","0","0","1","","0.1299487573","0.6","0.2","0.8","0.4","0.02640977482","0.1299487573","0.4401824822","0.1086871361","","","","","","","","","","","","","","74","J","1","","","129","main_expt",""
"","bandit","209","650275","0.0-171.0-0.0","88109297","wem/bandit_party_1","A2ONILC0LZKG6Y","either","1","1251","","","","","","","0","0","1","0.1172580566","","0.6","0.2","0.8","0.4","","","","","0.03646961518","0.1172580566","0.4160959849","0.1672766288","","","","","","","","","","74","J","1","","","130","main_expt",""
"","bandit","210","652064","0.0-172.0-0.0","88109297","wem/bandit_party_1","A2ONILC0LZKG6Y","either","1","284","","","","","","","0","0","1","","0.1289979545","0.6","0.2","0.8","0.4","0.02171712127","0.1289979545","0.4374535298","0.157110596","","","","","","","","","","","","","","74","J","1","","","131","main_expt",""
"","bandit","211","653762","0.0-173.0-0.0","88109297","wem/bandit_party_1","A2ONILC0LZKG6Y","either","1","193","","","","","","","0","0","1","0.01004766493","","0.6","0.2","0.8","0.4","","","","","0.01004766493","0.1243754988","0.4382483821","0.1338697581","","","","","","","","","","72","H","0","img/none_selected.jpg","","132","main_expt",""
"","bandit","212","655474","0.0-174.0-0.0","88109297","wem/bandit_party_1","A2ONILC0LZKG6Y","either","1","207","","","","","","","0","0","1","0.005153708139","","0.6","0.2","0.8","0.4","","","","","0.005153708139","0.1189203389","0.3913946914","0.1101669797","","","","","","","","","","72","H","0","img/none_selected.jpg","","133","main_expt",""
"","bandit","213","657220","0.0-175.0-0.0","88109297","wem/bandit_party_1","A2ONILC0LZKG6Y","either","1","240","","","","","","","0","0","1","","0.01308543257","0.6","0.2","0.8","0.4","0.01308543257","0.07075860378","0.4280120537","0.060775537","","","","","","","","","","","","","","72","H","0","img/none_selected.jpg","","134","main_expt",""
"","bandit","214","658973","0.0-176.0-0.0","88109297","wem/bandit_party_1","A2ONILC0LZKG6Y","either","1","247","","","","","","","0","0","1","0.02634180281","","0.6","0.2","0.8","0.4","","","","","0.02634180281","0.1073185777","0.4385213509","0.0714416082","","","","","","","","","","72","H","0","img/none_selected.jpg","","135","main_expt",""
"","bandit","215","660681","0.0-177.0-0.0","88109297","wem/bandit_party_1","A2ONILC0LZKG6Y","either","1","203","","","","","","","0","1","0","","0.1115096907","0.6","0.2","0.8","0.4","0.04122629063","0.1001442491","0.4605212521","0.1115096907","","","","","","","","","","","","","","76","L","3","","","136","main_expt",""
"","bandit","216","662384","0.0-178.0-0.0","88109297","wem/bandit_party_1","A2ONILC0LZKG6Y","either","1","198","","","","","","","0","0","1","0.1307091067","","0.6","0.2","0.8","0.4","","","","","0.05517648788","0.1736681681","0.4729500637","0.1307091067","","","","","","","","","","76","L","3","","","137","main_expt",""
"","bandit","217","664150","0.0-179.0-0.0","88109297","wem/bandit_party_1","A2ONILC0LZKG6Y","either","1","261","","","","","","","1","0","0","0.1289533412","","0.6","0.2","0.8","0.4","","","","","0.05929415862","0.1839908368","0.4705425907","0.1289533412","","","","","","","","","","76","L","3","","","138","main_expt",""
"","bandit","218","665843","0.0-180.0-0.0","88109297","wem/bandit_party_1","A2ONILC0LZKG6Y","either","1","187","","","","","","","0","0","1","","0.1215972271","0.6","0.2","0.8","0.4","0.05470710098","0.1500833973","0.465423541","0.1215972271","","","","","","","","","","","","","","76","L","3","","","139","main_expt",""
"","bandit","219","667873","0.0-181.0-0.0","88109297","wem/bandit_party_1","A2ONILC0LZKG6Y","either","1","525","","","","","","","0","0","1","","0.1158179575","0.6","0.2","0.8","0.4","0.06062538604","0.1718879457","0.4486857012","0.1158179575","","","","","","","","","","","","","","76","L","3","","","140","main_expt",""
"","bandit","220","669662","0.0-182.0-0.0","88109297","wem/bandit_party_1","A2ONILC0LZKG6Y","either","1","284","","","","","","","0","0","1","","0.08691297649","0.6","0.2","0.8","0.4","0.05819772386","0.2025036279","0.4053061298","0.08691297649","","","","","","","","","","","","","","76","L","3","","","141","main_expt",""
"","bandit","221","671496","0.0-183.0-0.0","88109297","wem/bandit_party_1","A2ONILC0LZKG6Y","either","1","329","","","","","","","0","0","1","","0.05329701838","0.6","0.2","0.8","0.4","0.05329701838","0.1872564568","0.3989731656","0.1425267255","","","","","","","","","","","","","","72","H","0","img/none_selected.jpg","","142","main_expt",""
"","bandit","222","673268","0.0-184.0-0.0","88109297","wem/bandit_party_1","A2ONILC0LZKG6Y","either","1","267","","","","","","","0","0","1","0.06209903385","","0.6","0.2","0.8","0.4","","","","","0.06209903385","0.1676641842","0.3783570596","0.1425141192","","","","","","","","","","72","H","0","img/none_selected.jpg","","143","main_expt",""
"","bandit","223","675010","0.0-185.0-0.0","88109297","wem/bandit_party_1","A2ONILC0LZKG6Y","either","1","237","","","","","","","0","0","1","","0.06954729647","0.6","0.2","0.8","0.4","0.06954729647","0.1502987652","0.3485663762","0.1362652721","","","","","","","","","","","","","","72","H","0","img/none_selected.jpg","","144","main_expt",""
"","bandit","224","676794","0.0-186.0-0.0","88109297","wem/bandit_party_1","A2ONILC0LZKG6Y","either","1","279","","","","","","","0","0","1","","0.1050568962","0.6","0.2","0.8","0.4","0.062760129","0.1050568962","0.3534190037","0.1335650053","","","","","","","","","","","","","","74","J","1","","","145","main_expt",""
"","bandit","225","678572","0.0-187.0-0.0","88109297","wem/bandit_party_1","A2ONILC0LZKG6Y","either","1","273","","","","","","","0","0","1","0.1266784727","","0.6","0.2","0.8","0.4","","","","","0.05014677947","0.1266784727","0.342282706","0.1392461982","","","","","","","","","","74","J","1","","","146","main_expt",""
"","bandit","226","680314","0.0-188.0-0.0","88109297","wem/bandit_party_1","A2ONILC0LZKG6Y","either","1","237","","","","","","","0","0","1","0.1121887101","","0.6","0.2","0.8","0.4","","","","","0.04801868921","0.1121887101","0.3497384939","0.1060810453","","","","","","","","","","74","J","1","","","147","main_expt",""
"","bandit","227","682056","0.0-189.0-0.0","88109297","wem/bandit_party_1","A2ONILC0LZKG6Y","either","1","236","","","","","","","0","1","0","","0.1050077765","0.6","0.2","0.8","0.4","0.05298179562","0.1050077765","0.3507348305","0.1076054289","","","","","","","","","","","","","","74","J","1","","","148","main_expt",""
"","bandit","228","683831","0.0-190.0-0.0","88109297","wem/bandit_party_1","A2ONILC0LZKG6Y","either","1","270","","","","","","","0","0","1","0.08725679698","","0.6","0.2","0.8","0.4","","","","","0.05271587927","0.08725679698","0.306786392","0.09143227578","","","","","","","","","","74","J","1","","","149","main_expt",""
"","bandit","229","685605","0.0-191.0-0.0","88109297","wem/bandit_party_1","A2ONILC0LZKG6Y","either","1","269","","","","","","","0","0","1","0.04813781364","","0.6","0.2","0.8","0.4","","","","","0.06153260368","0.04813781364","0.3289077467","0.08361181256","","","","","","","","","","74","J","1","","","150","main_expt",""
"","bandit","230","687385","0.0-192.0-0.0","88109297","wem/bandit_party_1","A2ONILC0LZKG6Y","either","1","275","","","","","","","0","0","1","0.2844912386","","0.6","0.2","0.8","0.4","","","","","0.07716317934","0.04690393958","0.2844912386","0.1038450747","","","","","","","","","","75","K","2","","","151","main_expt",""
"","bandit","231","689212","0.0-193.0-0.0","88109297","wem/bandit_party_1","A2ONILC0LZKG6Y","either","1","322","","","","","","","1","0","0","0.3221551402","","0.6","0.2","0.8","0.4","","","","","0.08370894892","0.05051779207","0.3221551402","0.1311897928","","","","","","","","","","75","K","2","","","152","main_expt",""
"","bandit","232","691029","0.0-194.0-0.0","88109297","wem/bandit_party_1","A2ONILC0LZKG6Y","either","1","312","","","","","","","1","0","0","0.288581716","","0.6","0.2","0.8","0.4","","","","","0.06235129306","0.0417019452","0.288581716","0.1106636196","","","","","","","","","","75","K","2","","","153","main_expt",""
"","bandit","233","692834","0.0-195.0-0.0","88109297","wem/bandit_party_1","A2ONILC0LZKG6Y","either","1","299","","","","","","","1","0","0","0.3674714493","","0.6","0.2","0.8","0.4","","","","","0.08808261531","0.04565059468","0.3674714493","0.08044616817","","","","","","","","","","75","K","2","","","154","main_expt",""
"","bandit","234","694650","0.0-196.0-0.0","88109297","wem/bandit_party_1","A2ONILC0LZKG6Y","either","1","311","","","","","","","0","0","1","0.3836765626","","0.6","0.2","0.8","0.4","","","","","0.08415746701","0.0249337719","0.3836765626","0.09849608375","","","","","","","","","","75","K","2","","","155","main_expt",""
"","bandit","235","696440","0.0-197.0-0.0","88109297","wem/bandit_party_1","A2ONILC0LZKG6Y","either","1","284","","","","","","","0","1","0","","0.3499766022","0.6","0.2","0.8","0.4","0.1363215429","0.0207568711","0.3499766022","0.0679626842","","","","","","","","","","","","","","75","K","2","","","156","main_expt",""
"","bandit","236","698392","0.0-198.0-0.0","88109297","wem/bandit_party_1","A2ONILC0LZKG6Y","either","1","446","","","","","","","0","0","1","0.3083455354","","0.6","0.2","0.8","0.4","","","","","0.176329139","0.01044871803","0.3083455354","0.06316877849","","","","","","","","","","75","K","2","","","157","main_expt",""
"","bandit","237","700200","0.0-199.0-0.0","88109297","wem/bandit_party_1","A2ONILC0LZKG6Y","either","1","303","","","","","","","0","0","1","0.2780985587","","0.6","0.2","0.8","0.4","","","","","0.2239815039","0.008486032171","0.2780985587","0.06381796224","","","","","","","","","","75","K","2","","","158","main_expt",""
"","bandit","238","701985","0.0-200.0-0.0","88109297","wem/bandit_party_1","A2ONILC0LZKG6Y","either","1","280","","","","","","","0","0","1","0.2721424699","","0.6","0.2","0.8","0.4","","","","","0.1754735631","0.006770001311","0.2721424699","0.09986374221","","","","","","","","","","75","K","2","","","159","main_expt",""
"","bandit","239","703777","0.0-201.0-0.0","88109297","wem/bandit_party_1","A2ONILC0LZKG6Y","either","1","287","","","","","","","0","1","0","","0.3005636977","0.6","0.2","0.8","0.4","0.1820859676","0.005009972043","0.3005636977","0.08334790929","","","","","","","","","","","","","","75","K","2","","","160","main_expt",""
"","bandit","240","705663","0.0-202.0-0.0","88109297","wem/bandit_party_1","A2ONILC0LZKG6Y","either","1","381","","","","","","","0","0","1","","0.2481613967","0.6","0.2","0.8","0.4","0.1771527669","0.003825417776","0.2481613967","0.1094566723","","","","","","","","","","","","","","75","K","2","","","161","main_expt",""
"","bandit","241","707489","0.0-203.0-0.0","88109297","wem/bandit_party_1","A2ONILC0LZKG6Y","either","1","321","","","","","","","0","0","1","0.2040880477","","0.6","0.2","0.8","0.4","","","","","0.209245514","0.006458278423","0.2040880477","0.1287108975","","","","","","","","","","75","K","2","","","162","main_expt",""
"","bandit","242","709274","0.0-204.0-0.0","88109297","wem/bandit_party_1","A2ONILC0LZKG6Y","either","1","279","","","","","","","0","0","1","0.1811808859","","0.6","0.2","0.8","0.4","","","","","0.1864252411","0.01344146107","0.256608811","0.1811808859","","","","","","","","","","76","L","3","","","163","main_expt",""
"","bandit","243","710868","0.0-205.0-0.0","88109297","wem/bandit_party_1","A2ONILC0LZKG6Y","either","1","86","","","","","","","0","0","1","","0.1374611454","0.6","0.2","0.8","0.4","0.1662237337","0.004940614731","0.2798468236","0.1374611454","","","","","","","","","","","","","","76","L","3","","","164","main_expt",""
"","bandit","244","712652","0.0-206.0-0.0","88109297","wem/bandit_party_1","A2ONILC0LZKG6Y","either","1","279","","","","","","","0","0","1","","0.1640313333","0.6","0.2","0.8","0.4","0.1375661656","0.007349038951","0.2689568899","0.1640313333","","","","","","","","","","","","","","76","L","3","","","165","main_expt",""
"","bandit","245","714368","0.0-207.0-0.0","88109297","wem/bandit_party_1","A2ONILC0LZKG6Y","either","1","211","","","","","","","0","0","1","","0.20052236","0.6","0.2","0.8","0.4","0.1416727521","0.005679103294","0.2786045926","0.20052236","","","","","","","","","","","","","","76","L","3","","","166","main_expt",""
"","bandit","246","716092","0.0-208.0-0.0","88109297","wem/bandit_party_1","A2ONILC0LZKG6Y","either","1","218","","","","","","","0","0","1","","0.1945206589","0.6","0.2","0.8","0.4","0.1497541138","0.004037182679","0.2507583434","0.1945206589","","","","","","","","","","","","","","76","L","3","","","167","main_expt",""
"","bandit","247","717699","0.0-209.0-0.0","88109297","wem/bandit_party_1","A2ONILC0LZKG6Y","either","1","102","","","","","","","0","0","1","0.1761460581","","0.6","0.2","0.8","0.4","","","","","0.1761460581","0.007111326723","0.1827624484","0.1902154162","","","","","","","","","","72","H","0","img/none_selected.jpg","","168","main_expt",""
"","bandit","248","719446","0.0-210.0-0.0","88109297","wem/bandit_party_1","A2ONILC0LZKG6Y","either","1","241","","","","","","","0","0","1","0.2248215173","","0.6","0.2","0.8","0.4","","","","","0.2248215173","0.01708305062","0.1558723634","0.1931964682","","","","","","","","","","72","H","0","img/none_selected.jpg","","169","main_expt",""
"","bandit","249","721190","0.0-211.0-0.0","88109297","wem/bandit_party_1","A2ONILC0LZKG6Y","either","1","238","","","","","","","0","0","1","0.2503105048","","0.6","0.2","0.8","0.4","","","","","0.2503105048","0.02105388628","0.1757164868","0.236179436","","","","","","","","","","72","H","0","img/none_selected.jpg","","170","main_expt",""
"","bandit","250","722910","0.0-212.0-0.0","88109297","wem/bandit_party_1","A2ONILC0LZKG6Y","either","1","214","","","","","","","0","0","1","","0.2515708499","0.6","0.2","0.8","0.4","0.2515708499","0.01477187034","0.1985597056","0.2229285478","","","","","","","","","","","","","","72","H","0","img/none_selected.jpg","","171","main_expt",""
"","bandit","251","724675","0.0-213.0-0.0","88109297","wem/bandit_party_1","A2ONILC0LZKG6Y","either","1","260","","","","","","","0","1","0","","0.2601117771","0.6","0.2","0.8","0.4","0.2601117771","0.00639283578","0.1725269859","0.1805811295","","","","","","","","","","","","","","72","H","0","img/none_selected.jpg","","172","main_expt",""
"","bandit","252","726423","0.0-214.0-0.0","88109297","wem/bandit_party_1","A2ONILC0LZKG6Y","either","1","242","","","","","","","0","0","1","","0.2277859889","0.6","0.2","0.8","0.4","0.2277859889","0.008503536177","0.1955807132","0.2203049146","","","","","","","","","","","","","","72","H","0","img/none_selected.jpg","","173","main_expt",""
"","bandit","253","728200","0.0-215.0-0.0","88109297","wem/bandit_party_1","A2ONILC0LZKG6Y","either","1","272","","","","","","","0","0","1","","0.204090619","0.6","0.2","0.8","0.4","0.204090619","0.01512836446","0.1712969398","0.2079245196","","","","","","","","","","","","","","72","H","0","img/none_selected.jpg","","174","main_expt",""
"","bandit","254","729803","0.0-216.0-0.0","88109297","wem/bandit_party_1","A2ONILC0LZKG6Y","either","1","98","","","","","","","0","0","1","","0.034550241","0.6","0.2","0.8","0.4","0.2264282848","0.034550241","0.2145566876","0.1904909119","","","","","","","","","","","","","","74","J","1","","","175","main_expt",""
"","bandit","255","731569","0.0-217.0-0.0","88109297","wem/bandit_party_1","A2ONILC0LZKG6Y","either","1","260","","","","","","","0","0","1","0.01969997198","","0.6","0.2","0.8","0.4","","","","","0.2263436383","0.01969997198","0.1987050603","0.1611975006","","","","","","","","","","74","J","1","","","176","main_expt",""
"","bandit","256","733390","0.0-218.0-0.0","88109297","wem/bandit_party_1","A2ONILC0LZKG6Y","either","1","315","","","","","","","0","0","1","","0.02558747067","0.6","0.2","0.8","0.4","0.2449632337","0.02558747067","0.2161967517","0.1747210449","","","","","","","","","","","","","","74","J","1","","","177","main_expt",""
"","bandit","257","735132","0.0-219.0-0.0","88109297","wem/bandit_party_1","A2ONILC0LZKG6Y","either","1","236","","","","","","","0","0","1","","0.02865462312","0.6","0.2","0.8","0.4","0.1923885174","0.02865462312","0.1790488899","0.1667690144","","","","","","","","","","","","","","74","J","1","","","178","main_expt",""
"","bandit","258","736930","0.0-220.0-0.0","88109297","wem/bandit_party_1","A2ONILC0LZKG6Y","either","1","292","","","","","","","0","0","1","0.248539666","","0.6","0.2","0.8","0.4","","","","","0.1791230597","0.05873937836","0.1254539317","0.248539666","","","","","","","","","","76","L","3","","","179","main_expt",""
"","bandit","259","738687","0.0-221.0-0.0","88109297","wem/bandit_party_1","A2ONILC0LZKG6Y","either","1","252","","","","","","","0","0","1","0.2393284063","","0.6","0.2","0.8","0.4","","","","","0.1641305094","0.04996702027","0.1761702366","0.2393284063","","","","","","","","","","76","L","3","","","180","main_expt",""
"","bandit","260","740433","0.0-222.0-0.0","88109297","wem/bandit_party_1","A2ONILC0LZKG6Y","either","1","241","","","","","","","0","0","1","","0.2450765022","0.6","0.2","0.8","0.4","0.1567194189","0.06192223509","0.2307221343","0.2450765022","","","","","","","","","","","","","","76","L","3","","","181","main_expt",""
"","bandit","261","742206","0.0-223.0-0.0","88109297","wem/bandit_party_1","A2ONILC0LZKG6Y","either","1","267","","","","","","","0","0","1","0.2898963007","","0.6","0.2","0.8","0.4","","","","","0.1805899487","0.07865608963","0.1656926355","0.2898963007","","","","","","","","","","76","L","3","","","182","main_expt",""
"","bandit","262","743712","0.0-224.0-0.0","88109297","wem/bandit_party_1","A2ONILC0LZKG6Y","either","1","0","","","","","","","0","0","1","0.337419987","","0.6","0.2","0.8","0.4","","","","","0.1381226487","0.0695036973","0.1997223474","0.337419987","","","","","","","","","","76","L","3","","","183","main_expt",""
"","bandit","263","745474","0.0-225.0-0.0","88109297","wem/bandit_party_1","A2ONILC0LZKG6Y","either","1","256","","","","","","","0","0","1","","0.3334404967","0.6","0.2","0.8","0.4","0.1157029232","0.09883674892","0.1936006223","0.3334404967","","","","","","","","","","","","","","76","L","3","","","184","main_expt",""
"","bandit","264","747280","0.0-226.0-0.0","88109297","wem/bandit_party_1","A2ONILC0LZKG6Y","either","1","301","","","","","","","0","0","1","0.1794548994","","0.6","0.2","0.8","0.4","","","","","0.09007466759","0.1344132801","0.1794548994","0.3049781316","","","","","","","","","","75","K","2","","","185","main_expt",""
"","bandit","265","749040","0.0-227.0-0.0","88109297","wem/bandit_party_1","A2ONILC0LZKG6Y","either","1","255","","","","","","","0","0","1","0.1679588243","","0.6","0.2","0.8","0.4","","","","","0.07784091677","0.1194183803","0.1679588243","0.322039184","","","","","","","","","","75","K","2","","","186","main_expt",""
"","bandit","266","750864","0.0-228.0-0.0","88109297","wem/bandit_party_1","A2ONILC0LZKG6Y","either","1","319","","","","","","","0","0","1","0.1692259204","","0.6","0.2","0.8","0.4","","","","","0.1332261693","0.1456002269","0.1692259204","0.2898485093","","","","","","","","","","75","K","2","","","187","main_expt",""
"","bandit","267","752720","0.0-229.0-0.0","88109297","wem/bandit_party_1","A2ONILC0LZKG6Y","either","1","351","","","","","","","0","0","1","0.1796926114","","0.6","0.2","0.8","0.4","","","","","0.1302169342","0.1008589119","0.1796926114","0.3046836684","","","","","","","","","","75","K","2","","","188","main_expt",""
"","bandit","268","754457","0.0-230.0-0.0","88109297","wem/bandit_party_1","A2ONILC0LZKG6Y","either","1","231","","","","","","","0","0","1","0.1463090895","","0.6","0.2","0.8","0.4","","","","","0.1459867673","0.09109327247","0.1463090895","0.3437642557","","","","","","","","","","75","K","2","","","189","main_expt",""
"","bandit","269","756291","0.0-231.0-0.0","88109297","wem/bandit_party_1","A2ONILC0LZKG6Y","either","1","329","","","","","","","0","0","1","0.1930387326","","0.6","0.2","0.8","0.4","","","","","0.1930387326","0.133333279","0.1670442817","0.3685715368","","","","","","","","","","72","H","0","img/none_selected.jpg","","190","main_expt",""
"","bandit","270","757957","0.0-232.0-0.0","88109297","wem/bandit_party_1","A2ONILC0LZKG6Y","either","1","160","","","","","","","0","0","1","0.1447045196","","0.6","0.2","0.8","0.4","","","","","0.1447045196","0.1253338948","0.2148667481","0.4063368095","","","","","","","","","","72","H","0","img/none_selected.jpg","","191","main_expt",""
"","bandit","271","759791","0.0-233.0-0.0","88109297","wem/bandit_party_1","A2ONILC0LZKG6Y","either","1","329","","","","","","","0","0","1","0.1521301445","","0.6","0.2","0.8","0.4","","","","","0.1521301445","0.1371372983","0.1891029698","0.4194789623","","","","","","","","","","72","H","0","img/none_selected.jpg","","192","main_expt",""
"","bandit","272","761404","0.0-234.0-0.0","88109297","wem/bandit_party_1","A2ONILC0LZKG6Y","either","1","106","","","","","","","0","0","1","","0.1216552598","0.6","0.2","0.8","0.4","0.1216552598","0.1269519223","0.1818436489","0.3914453041","","","","","","","","","","","","","","72","H","0","img/none_selected.jpg","","193","main_expt",""
"","bandit","273","763195","0.0-235.0-0.0","88109297","wem/bandit_party_1","A2ONILC0LZKG6Y","either","1","285","","","","","","","0","1","0","","0.07681554104","0.6","0.2","0.8","0.4","0.07681554104","0.1253972088","0.2036833838","0.3988429791","","","","","","","","","","","","","","72","H","0","img/none_selected.jpg","","194","main_expt",""
"","bandit","274","764918","0.0-236.0-0.0","88109297","wem/bandit_party_1","A2ONILC0LZKG6Y","either","1","217","","","","","","","0","0","1","0.07468822185","","0.6","0.2","0.8","0.4","","","","","0.07468822185","0.1231557279","0.2189502041","0.4212514022","","","","","","","","","","72","H","0","img/none_selected.jpg","","195","main_expt",""
"","bandit","275","766602","0.0-237.0-0.0","88109297","wem/bandit_party_1","A2ONILC0LZKG6Y","either","1","179","","","","","","","0","0","1","0.07634526252","","0.6","0.2","0.8","0.4","","","","","0.07634526252","0.2304226507","0.2011136523","0.4128950903","","","","","","","","","","72","H","0","img/none_selected.jpg","","196","main_expt",""
"","bandit","276","768204","0.0-238.0-0.0","88109297","wem/bandit_party_1","A2ONILC0LZKG6Y","either","1","96","","","","","","","0","0","1","","0.06680697181","0.6","0.2","0.8","0.4","0.06680697181","0.3102822931","0.2295646827","0.3979973083","","","","","","","","","","","","","","72","H","0","img/none_selected.jpg","","197","main_expt",""
"","bandit","277","769938","0.0-239.0-0.0","88109297","wem/bandit_party_1","A2ONILC0LZKG6Y","either","1","228","","","","","","","0","1","0","","0.05107679344","0.6","0.2","0.8","0.4","0.05107679344","0.3222054514","0.2570874699","0.3153467244","","","","","","","","","","","","","","72","H","0","img/none_selected.jpg","","198","main_expt",""
"","bandit","278","771739","0.0-240.0-0.0","88109297","wem/bandit_party_1","A2ONILC0LZKG6Y","either","1","295","","","","","","","0","0","1","0.06140804873","","0.6","0.2","0.8","0.4","","","","","0.06140804873","0.3416159467","0.2215013189","0.3121882746","","","","","","","","","","72","H","0","img/none_selected.jpg","","199","main_expt",""
"","bandit","279","774363","0.0-241.0-0.0","88109297","wem/bandit_party_1","A2ONILC0LZKG6Y","either","1","1117","","","","","","","0","0","1","0.05697288244","","0.6","0.2","0.8","0.4","","","","","0.05697288244","0.3826655938","0.1681318695","0.3789620948","","","","","","","","","","72","H","0","img/none_selected.jpg","","200","main_expt",""
"","bandit","280","776125","0.0-242.0-0.0","88109297","wem/bandit_party_1","A2ONILC0LZKG6Y","either","1","256","","","","","","","0","0","1","0.04802221103","","0.6","0.2","0.8","0.4","","","","","0.04802221103","0.4117435103","0.1787039029","0.3575696279","","","","","","","","","","72","H","0","img/none_selected.jpg","","201","main_expt",""
"","bandit","281","777901","0.0-243.0-0.0","88109297","wem/bandit_party_1","A2ONILC0LZKG6Y","either","1","270","","","","","","","0","1","0","","0.4023622846","0.6","0.2","0.8","0.4","0.04583536071","0.4023622846","0.2180442152","0.3937046418","","","","","","","","","","","","","","74","J","1","","","202","main_expt",""
"","bandit","282","779726","0.0-244.0-0.0","88109297","wem/bandit_party_1","A2ONILC0LZKG6Y","either","1","317","","","","","","","0","1","0","","0.4225273878","0.6","0.2","0.8","0.4","0.03655969434","0.4225273878","0.262784421","0.3901943722","","","","","","","","","","","","","","74","J","1","","","203","main_expt",""
"","bandit","283","781568","0.0-245.0-0.0","88109297","wem/bandit_party_1","A2ONILC0LZKG6Y","either","1","335","","","","","","","0","1","0","","0.4151046429","0.6","0.2","0.8","0.4","0.05773518339","0.4151046429","0.2843732649","0.4099131859","","","","","","","","","","","","","","74","J","1","","","204","main_expt",""
"","bandit","284","783484","0.0-246.0-0.0","88109297","wem/bandit_party_1","A2ONILC0LZKG6Y","either","1","409","","","","","","","0","0","1","","0.4288165897","0.6","0.2","0.8","0.4","0.06616346658","0.4288165897","0.2549063301","0.4238238901","","","","","","","","","","","","","","74","J","1","","","205","main_expt",""
"","bandit","285","785309","0.0-247.0-0.0","88109297","wem/bandit_party_1","A2ONILC0LZKG6Y","either","1","318","","","","","","","0","1","0","","0.436745712","0.6","0.2","0.8","0.4","0.09055598832","0.436745712","0.2982701688","0.4139837541","","","","","","","","","","","","","","74","J","1","","","206","main_expt",""
"","bandit","286","787355","0.0-248.0-0.0","88109297","wem/bandit_party_1","A2ONILC0LZKG6Y","either","1","540","","","","","","","0","1","0","","0.4484652972","0.6","0.2","0.8","0.4","0.07583085731","0.4484652972","0.3423773839","0.3544894801","","","","","","","","","","","","","","74","J","1","","","207","main_expt",""
"","bandit","287","789188","0.0-249.0-0.0","88109297","wem/bandit_party_1","A2ONILC0LZKG6Y","either","1","326","","","","","","","0","0","1","","0.4516947584","0.6","0.2","0.8","0.4","0.09768014643","0.4516947584","0.3321535101","0.3703609936","","","","","","","","","","","","","","74","J","1","","","208","main_expt",""
"","bandit","288","790962","0.0-250.0-0.0","88109297","wem/bandit_party_1","A2ONILC0LZKG6Y","either","1","267","","","","","","","0","0","1","","0.4590139285","0.6","0.2","0.8","0.4","0.08389795445","0.4590139285","0.3467721984","0.3590511704","","","","","","","","","","","","","","74","J","1","","","209","main_expt",""
"","bandit","289","792755","0.0-251.0-0.0","88109297","wem/bandit_party_1","A2ONILC0LZKG6Y","either","1","287","","","","","","","0","0","1","","0.4378910613","0.6","0.2","0.8","0.4","0.07846525543","0.4378910613","0.3513447539","0.3781523972","","","","","","","","","","","","","","74","J","1","","","210","main_expt",""
"","bandit","290","794501","0.0-252.0-0.0","88109297","wem/bandit_party_1","A2ONILC0LZKG6Y","either","1","240","","","","","","","1","0","0","0.4003692624","","0.6","0.2","0.8","0.4","","","","","0.05906932722","0.4139384991","0.4003692624","0.3895188655","","","","","","","","","","75","K","2","","","211","main_expt",""
"","bandit","291","796355","0.0-253.0-0.0","88109297","wem/bandit_party_1","A2ONILC0LZKG6Y","either","1","346","","","","","","","1","0","0","0.3949660502","","0.6","0.2","0.8","0.4","","","","","0.04754192311","0.3659234609","0.3949660502","0.4075098947","","","","","","","","","","75","K","2","","","212","main_expt",""
"","bandit","292","798147","0.0-254.0-0.0","88109297","wem/bandit_party_1","A2ONILC0LZKG6Y","either","1","286","","","","","","","0","0","1","0.4233479157","","0.6","0.2","0.8","0.4","","","","","0.05481920189","0.3180572988","0.4233479157","0.4191075236","","","","","","","","","","75","K","2","","","213","main_expt",""
"","bandit","293","799902","0.0-255.0-0.0","88109297","wem/bandit_party_1","A2ONILC0LZKG6Y","either","1","249","","","","","","","0","0","1","0.4182751871","","0.6","0.2","0.8","0.4","","","","","0.07954578011","0.2611162072","0.4182751871","0.3799529118","","","","","","","","","","75","K","2","","","214","main_expt",""
"","bandit","294","801483","0.0-256.0-0.0","88109297","wem/bandit_party_1","A2ONILC0LZKG6Y","either","1","74","","","","","","","0","0","1","0.3745823719","","0.6","0.2","0.8","0.4","","","","","0.1078137614","0.2331309726","0.3745823719","0.3924699069","","","","","","","","","","75","K","2","","","215","main_expt",""
"","bandit","295","803319","0.0-257.0-0.0","88109297","wem/bandit_party_1","A2ONILC0LZKG6Y","either","1","330","","","","","","","1","0","0","0.3809837923","","0.6","0.2","0.8","0.4","","","","","0.1269525553","0.2428402293","0.3809837923","0.3556657658","","","","","","","","","","75","K","2","","","216","main_expt",""
"","bandit","296","805196","0.0-258.0-0.0","88109297","wem/bandit_party_1","A2ONILC0LZKG6Y","either","1","371","","","","","","","0","0","1","","0.4144294186","0.6","0.2","0.8","0.4","0.1849794572","0.2317762644","0.4144294186","0.3870416945","","","","","","","","","","","","","","75","K","2","","","217","main_expt",""
"","bandit","297","807001","0.0-259.0-0.0","88109297","wem/bandit_party_1","A2ONILC0LZKG6Y","either","1","299","","","","","","","0","0","1","0.4090742927","","0.6","0.2","0.8","0.4","","","","","0.1903787706","0.204309912","0.4090742927","0.3944581396","","","","","","","","","","75","K","2","","","218","main_expt",""
"","bandit","298","809303","0.0-260.0-0.0","88109297","wem/bandit_party_1","A2ONILC0LZKG6Y","either","1","795","","","","","","","0","0","1","0.3869695378","","0.6","0.2","0.8","0.4","","","","","0.1768508397","0.1685596251","0.3869695378","0.4256173987","","","","","","","","","","75","K","2","","","219","main_expt",""
"","bandit","299","811364","0.0-261.0-0.0","88109297","wem/bandit_party_1","A2ONILC0LZKG6Y","either","1","555","","","","","","","1","0","0","0.3814250035","","0.6","0.2","0.8","0.4","","","","","0.2176561852","0.2488487331","0.3814250035","0.4240862242","","","","","","","","","","75","K","2","","","220","main_expt",""
"","bandit","300","813414","0.0-262.0-0.0","88109297","wem/bandit_party_1","A2ONILC0LZKG6Y","either","1","544","","","","","","","1","0","0","0.3560431311","","0.6","0.2","0.8","0.4","","","","","0.2075488201","0.2789816034","0.3560431311","0.4364702466","","","","","","","","","","75","K","2","","","221","main_expt",""
"","bandit","301","815289","0.0-263.0-0.0","88109297","wem/bandit_party_1","A2ONILC0LZKG6Y","either","1","368","","","","","","","1","0","0","0.3424215647","","0.6","0.2","0.8","0.4","","","","","0.2260831429","0.242729834","0.3424215647","0.4512924842","","","","","","","","","","75","K","2","","","222","main_expt",""
"","bandit","302","817302","0.0-264.0-0.0","88109297","wem/bandit_party_1","A2ONILC0LZKG6Y","either","1","507","","","","","","","0","1","0","","0.3118962833","0.6","0.2","0.8","0.4","0.2512075751","0.196538567","0.3118962833","0.4649948574","","","","","","","","","","","","","","75","K","2","","","223","main_expt",""
"","bandit","303","819151","0.0-265.0-0.0","88109297","wem/bandit_party_1","A2ONILC0LZKG6Y","either","1","342","","","","","","","1","0","0","0.261290028","","0.6","0.2","0.8","0.4","","","","","0.3072691987","0.2189223785","0.261290028","0.4692106987","","","","","","","","","","75","K","2","","","224","main_expt",""
"","bandit","304","821091","0.0-266.0-0.0","88109297","wem/bandit_party_1","A2ONILC0LZKG6Y","either","1","434","","","","","","","0","0","1","0.2748104332","","0.6","0.2","0.8","0.4","","","","","0.3358063032","0.2131207899","0.2748104332","0.4772226815","","","","","","","","","","75","K","2","","","225","main_expt",""
"","bandit","305","822908","0.0-267.0-0.0","88109297","wem/bandit_party_1","A2ONILC0LZKG6Y","either","1","311","","","","","","","0","0","1","","0.2112523614","0.6","0.2","0.8","0.4","0.2994610032","0.187439681","0.2112523614","0.4828013869","","","","","","","","","","","","","","75","K","2","","","226","main_expt",""
"","bandit","306","824707","0.0-268.0-0.0","88109297","wem/bandit_party_1","A2ONILC0LZKG6Y","either","1","292","","","","","","","0","0","1","0.1879164098","","0.6","0.2","0.8","0.4","","","","","0.2719992041","0.1522087394","0.1879164098","0.4805292857","","","","","","","","","","75","K","2","","","227","main_expt",""
"","bandit","307","826514","0.0-269.0-0.0","88109297","wem/bandit_party_1","A2ONILC0LZKG6Y","either","1","301","","","","","","","0","0","1","0.1857646906","","0.6","0.2","0.8","0.4","","","","","0.2601066631","0.1975586059","0.1857646906","0.4770879938","","","","","","","","","","75","K","2","","","228","main_expt",""
"","bandit","308","828261","0.0-270.0-0.0","88109297","wem/bandit_party_1","A2ONILC0LZKG6Y","either","1","241","","","","","","","0","0","1","","0.4830225504","0.6","0.2","0.8","0.4","0.2333982712","0.2280604414","0.1608888173","0.4830225504","","","","","","","","","","","","","","76","L","3","","","229","main_expt",""
"","bandit","309","830056","0.0-271.0-0.0","88109297","wem/bandit_party_1","A2ONILC0LZKG6Y","either","1","289","","","","","","","0","1","0","","0.4827210916","0.6","0.2","0.8","0.4","0.2179366985","0.2120359748","0.1139945837","0.4827210916","","","","","","","","","","","","","","76","L","3","","","230","main_expt",""
"","bandit","310","831943","0.0-272.0-0.0","88109297","wem/bandit_party_1","A2ONILC0LZKG6Y","either","1","380","","","","","","","0","0","1","0.4764813513","","0.6","0.2","0.8","0.4","","","","","0.210335649","0.2260377558","0.1071229599","0.4764813513","","","","","","","","","","76","L","3","","","231","main_expt",""
"","bandit","311","833739","0.0-273.0-0.0","88109297","wem/bandit_party_1","A2ONILC0LZKG6Y","either","1","290","","","","","","","0","0","1","0.4794978353","","0.6","0.2","0.8","0.4","","","","","0.2154905401","0.2810037348","0.1250262501","0.4794978353","","","","","","","","","","76","L","3","","","232","main_expt",""
"","bandit","312","835967","0.0-274.0-0.0","88109297","wem/bandit_party_1","A2ONILC0LZKG6Y","either","1","722","","","","","","","0","0","1","","0.4717583679","0.6","0.2","0.8","0.4","0.2199054097","0.3371590923","0.1262657767","0.4717583679","","","","","","","","","","","","","","76","L","3","","","233","main_expt",""
"","bandit","313","837773","0.0-275.0-0.0","88109297","wem/bandit_party_1","A2ONILC0LZKG6Y","either","1","299","","","","","","","1","0","0","0.4801470087","","0.6","0.2","0.8","0.4","","","","","0.2116885818","0.2614597929","0.1436583916","0.4801470087","","","","","","","","","","76","L","3","","","234","main_expt",""
"","bandit","314","839511","0.0-276.0-0.0","88109297","wem/bandit_party_1","A2ONILC0LZKG6Y","either","1","232","","","","","","","0","1","0","","0.4698449305","0.6","0.2","0.8","0.4","0.2037112673","0.2855471023","0.1776605917","0.4698449305","","","","","","","","","","","","","","76","L","3","","","235","main_expt",""
"","bandit","315","841277","0.0-277.0-0.0","88109297","wem/bandit_party_1","A2ONILC0LZKG6Y","either","1","259","","","","","","","0","0","1","0.4750890902","","0.6","0.2","0.8","0.4","","","","","0.2295670059","0.2806831757","0.2039581082","0.4750890902","","","","","","","","","","76","L","3","","","236","main_expt",""
"","bandit","316","843081","0.0-278.0-0.0","88109297","wem/bandit_party_1","A2ONILC0LZKG6Y","either","1","297","","","","","","","0","1","0","","0.490873849","0.6","0.2","0.8","0.4","0.2602584061","0.3314479917","0.1898025468","0.490873849","","","","","","","","","","","","","","76","L","3","","","237","main_expt",""
