"consent","trial_type","trial_index","time_elapsed","internal_node_id","subjID","study","MID","cond","drift","rt","responses","button_pressed","key_press","like","value","connected","gems","bombs","no_reward","GemPrChosen","BombPrChosen","GainOverPainPr_0","GainOverPainPr_1","GainOverPainPr_2","GainOverPainPr_3","LosePr_0","LosePr_1","LosePr_2","LosePr_3","WinPr_0","WinPr_1","WinPr_2","WinPr_3","Q0","Q1","Q2","gender","age","ethnicity","label","expt_phase","target","respCharCode","respKey","respChoiceNum","respChoice","practice","trial_counter","trial_label","Q0_index"
"GDM/GDM_behavioral_consent_30min_online.html","consent","0","21438","0.0-0.0","88761984","wem/bandit_party_1","A35C12CR628WKD","either","6","","","","","","","","","","","","","","","","","","","","","","","","","","","","","","","","","","","","","","","","",""
"","survey-text","1","31192","0.0-1.0","88761984","wem/bandit_party_1","A35C12CR628WKD","either","6","8749","{""Q0"":""A35C12CR628WKD""}","","","","","","","","","","","","","","","","","","","","","","","","","","","","","","","","","","","","","","",""
"","button-response","2","34008","0.0-2.0","88761984","wem/bandit_party_1","A35C12CR628WKD","either","6","1813","","0","","","","","","","","","","","","","","","","","","","","","","","","","","","","","","","","","","","","","",""
"","text-replacement","3","76165","0.0-3.0","88761984","wem/bandit_party_1","A35C12CR628WKD","either","6","41153","","","32","","","","","","","","","","","","","","","","","","","","","","","","","","","","","","","","","","","","",""
"","text-replacement","4","85043","0.0-4.0","88761984","wem/bandit_party_1","A35C12CR628WKD","either","6","8877","","","32","","","","","","","","","","","","","","","","","","","","","","","","","","","","","","","","","","","","",""
"","identification","5","89511","0.0-6.0-0.0","88761984","wem/bandit_party_1","A35C12CR628WKD","either","6","4460","","","","4","5","5","","","","","","","","","","","","","","","","","","","","","","","","pre","identification_pre","the Republican party","","","","","","","",""
"","identification","6","94910","0.0-6.0-1.0","88761984","wem/bandit_party_1","A35C12CR628WKD","either","6","4391","","","","0","0","0","","","","","","","","","","","","","","","","","","","","","","","","pre","identification_pre","the Democratic Party","","","","","","","",""
"","text-replacement","7","99133","0.0-7.0","88761984","wem/bandit_party_1","A35C12CR628WKD","either","6","3221","","","32","","","","","","","","","","","","","","","","","","","","","","","","","","","","","","","","","","","","",""
"","text-replacement","8","103226","0.0-8.0","88761984","wem/bandit_party_1","A35C12CR628WKD","either","6","4092","","","32","","","","","","","","","","","","","","","","","","","","","","","","","","","","","","","","","","","","",""
"","text-replacement","9","121061","0.0-9.0","88761984","wem/bandit_party_1","A35C12CR628WKD","either","6","17834","","","32","","","","","","","","","","","","","","","","","","","","","","","","","","","","","","","","","","","","",""
"","text-replacement","10","124693","0.0-10.0","88761984","wem/bandit_party_1","A35C12CR628WKD","either","6","3631","","","32","","","","","","","","","","","","","","","","","","","","","","","","","","","","","","","","","","","","",""
"","text-replacement","11","128594","0.0-11.0","88761984","wem/bandit_party_1","A35C12CR628WKD","either","6","3901","","","32","","","","","","","","","","","","","","","","","","","","","","","","","","","","","","","","","","","","",""
"","bandit","12","134258","0.0-12.0-0.0","88761984","wem/bandit_party_1","A35C12CR628WKD","either","6","4159","","","","","","","0","0","1","0","0","","","","","0","","","","0","","","","","","","","","","","","","74","J","0","img/none_selected_demo.jpg","true","0","",""
"","bandit","13","138766","0.0-13.0-0.0","88761984","wem/bandit_party_1","A35C12CR628WKD","either","6","3004","","","","","","","0","0","1","0","0","","","","","0","","","","0","","","","","","","","","","","","","75","K","0","img/none_selected_demo.jpg","true","0","",""
"","text-replacement","14","150644","0.0-14.0","88761984","wem/bandit_party_1","A35C12CR628WKD","either","6","11877","","","32","","","","","","","","","","","","","","","","","","","","","","","","","","","","","","","","","","","","",""
"","text-replacement","15","158130","0.0-15.0","88761984","wem/bandit_party_1","A35C12CR628WKD","either","6","7486","","","32","","","","","","","","","","","","","","","","","","","","","","","","","","","","","","","","","","","","",""
"","text-replacement","16","164198","0.0-16.0","88761984","wem/bandit_party_1","A35C12CR628WKD","either","6","6067","","","32","","","","","","","","","","","","","","","","","","","","","","","","","","","","","","","","","","","","",""
"","text-replacement","17","167265","0.0-17.0","88761984","wem/bandit_party_1","A35C12CR628WKD","either","6","3066","","","32","","","","","","","","","","","","","","","","","","","","","","","","","","","","","","","","","","","","",""
"","bandit","18","169364","0.0-18.0-0.0","88761984","wem/bandit_party_1","A35C12CR628WKD","either","6","594","","","","","","","1","0","0","0.8","","0.5","0.5","","","","","","","0.8","0.2","","","","","","","","","","","","74","J","0","img/none_selected_demo.jpg","true","0","80_20_practice",""
"","bandit","19","171134","0.0-18.0-1.0","88761984","wem/bandit_party_1","A35C12CR628WKD","either","6","267","","","","","","","1","0","0","0.8","","0.5","0.5","","","","","","","0.8","0.2","","","","","","","","","","","","74","J","0","img/none_selected_demo.jpg","true","0","80_20_practice",""
"","bandit","20","172916","0.0-18.0-2.0","88761984","wem/bandit_party_1","A35C12CR628WKD","either","6","277","","","","","","","1","0","0","0.8","","0.5","0.5","","","","","","","0.8","0.2","","","","","","","","","","","","74","J","0","img/none_selected_demo.jpg","true","0","80_20_practice",""
"","bandit","21","174597","0.0-18.0-3.0","88761984","wem/bandit_party_1","A35C12CR628WKD","either","6","178","","","","","","","0","0","1","0.2","","0.5","0.5","","","","","","","0.8","0.2","","","","","","","","","","","","75","K","1","","true","0","80_20_practice",""
"","bandit","22","176379","0.0-18.0-4.0","88761984","wem/bandit_party_1","A35C12CR628WKD","either","6","278","","","","","","","0","0","1","","0.2","0.5","0.5","","","0.8","0.2","","","","","","","","","","","","","","","","75","K","1","","true","0","80_20_practice",""
"","bandit","23","178371","0.0-18.0-5.0","88761984","wem/bandit_party_1","A35C12CR628WKD","either","6","488","","","","","","","0","0","1","","0.2","0.5","0.5","","","0.8","0.2","","","","","","","","","","","","","","","","75","K","1","","true","0","80_20_practice",""
"","bandit","24","180054","0.0-18.0-6.0","88761984","wem/bandit_party_1","A35C12CR628WKD","either","6","180","","","","","","","0","1","0","","0.8","0.5","0.5","","","0.8","0.2","","","","","","","","","","","","","","","","74","J","0","img/none_selected_demo.jpg","true","0","80_20_practice",""
"","bandit","25","181853","0.0-18.0-7.0","88761984","wem/bandit_party_1","A35C12CR628WKD","either","6","296","","","","","","","1","0","0","0.8","","0.5","0.5","","","","","","","0.8","0.2","","","","","","","","","","","","74","J","0","img/none_selected_demo.jpg","true","0","80_20_practice",""
"","bandit","26","183392","0.0-18.0-8.0","88761984","wem/bandit_party_1","A35C12CR628WKD","either","6","35","","","","","","","0","0","1","0.2","","0.5","0.5","","","","","","","0.8","0.2","","","","","","","","","","","","75","K","1","","true","0","80_20_practice",""
"","bandit","27","185024","0.0-18.0-9.0","88761984","wem/bandit_party_1","A35C12CR628WKD","either","6","128","","","","","","","0","0","1","","0.2","0.5","0.5","","","0.8","0.2","","","","","","","","","","","","","","","","75","K","1","","true","0","80_20_practice",""
"","bandit","28","186874","0.0-18.0-10.0","88761984","wem/bandit_party_1","A35C12CR628WKD","either","6","347","","","","","","","0","0","1","0.2","","0.5","0.5","","","","","","","0.8","0.2","","","","","","","","","","","","75","K","1","","true","0","80_20_practice",""
"","bandit","29","188563","0.0-18.0-11.0","88761984","wem/bandit_party_1","A35C12CR628WKD","either","6","185","","","","","","","1","0","0","0.8","","0.5","0.5","","","","","","","0.8","0.2","","","","","","","","","","","","74","J","0","img/none_selected_demo.jpg","true","0","80_20_practice",""
"","bandit","30","190617","0.0-18.0-12.0","88761984","wem/bandit_party_1","A35C12CR628WKD","either","6","550","","","","","","","1","0","0","0.8","","0.5","0.5","","","","","","","0.8","0.2","","","","","","","","","","","","74","J","0","img/none_selected_demo.jpg","true","0","80_20_practice",""
"","bandit","31","192679","0.0-18.0-13.0","88761984","wem/bandit_party_1","A35C12CR628WKD","either","6","559","","","","","","","1","0","0","0.8","","0.5","0.5","","","","","","","0.8","0.2","","","","","","","","","","","","74","J","0","img/none_selected_demo.jpg","true","0","80_20_practice",""
"","bandit","32","194937","0.0-18.0-14.0","88761984","wem/bandit_party_1","A35C12CR628WKD","either","6","754","","","","","","","0","0","1","","0.2","0.5","0.5","","","0.8","0.2","","","","","","","","","","","","","","","","75","K","1","","true","0","80_20_practice",""
"","bandit","33","196613","0.0-18.0-15.0","88761984","wem/bandit_party_1","A35C12CR628WKD","either","6","173","","","","","","","1","0","0","0.8","","0.5","0.5","","","","","","","0.8","0.2","","","","","","","","","","","","74","J","0","img/none_selected_demo.jpg","true","0","80_20_practice",""
"","bandit","34","198352","0.0-18.0-16.0","88761984","wem/bandit_party_1","A35C12CR628WKD","either","6","233","","","","","","","1","0","0","0.8","","0.5","0.5","","","","","","","0.8","0.2","","","","","","","","","","","","74","J","0","img/none_selected_demo.jpg","true","0","80_20_practice",""
"","bandit","35","199952","0.0-18.0-17.0","88761984","wem/bandit_party_1","A35C12CR628WKD","either","6","96","","","","","","","1","0","0","0.8","","0.5","0.5","","","","","","","0.8","0.2","","","","","","","","","","","","74","J","0","img/none_selected_demo.jpg","true","0","80_20_practice",""
"","bandit","36","201567","0.0-18.0-18.0","88761984","wem/bandit_party_1","A35C12CR628WKD","either","6","112","","","","","","","0","0","1","","0.2","0.5","0.5","","","0.8","0.2","","","","","","","","","","","","","","","","75","K","1","","true","0","80_20_practice",""
"","bandit","37","203209","0.0-18.0-19.0","88761984","wem/bandit_party_1","A35C12CR628WKD","either","6","137","","","","","","","0","1","0","","0.2","0.5","0.5","","","0.8","0.2","","","","","","","","","","","","","","","","75","K","1","","true","0","80_20_practice",""
"","text-replacement","38","204751","0.0-19.0","88761984","wem/bandit_party_1","A35C12CR628WKD","either","6","1542","","","32","","","","","","","","","","","","","","","","","","","","","","","","","","","","","","","","","","","","",""
"","bandit","39","206876","0.0-20.0-0.0","88761984","wem/bandit_party_1","A35C12CR628WKD","either","6","621","","","","","","","1","0","0","1","0","","","","","0","1","","","1","0","","","","","","","","","","","","74","J","0","img/none_selected_demo.jpg","true","0","",""
"","text-replacement","40","212133","0.0-21.0","88761984","wem/bandit_party_1","A35C12CR628WKD","either","6","5255","","","32","","","","","","","","","","","","","","","","","","","","","","","","","","","","","","","","","","","","",""
"","text-replacement","41","216357","0.0-22.0","88761984","wem/bandit_party_1","A35C12CR628WKD","either","6","4224","","","32","","","","","","","","","","","","","","","","","","","","","","","","","","","","","","","","","","","","",""
"","text-replacement","42","218531","0.0-23.0","88761984","wem/bandit_party_1","A35C12CR628WKD","either","6","2172","","","32","","","","","","","","","","","","","","","","","","","","","","","","","","","","","","","","","","","","",""
"","text-replacement","43","220969","0.0-24.0","88761984","wem/bandit_party_1","A35C12CR628WKD","either","6","2437","","","32","","","","","","","","","","","","","","","","","","","","","","","","","","","","","","","","","","","","",""
"","text-replacement","44","222633","0.0-25.0","88761984","wem/bandit_party_1","A35C12CR628WKD","either","6","1662","","","32","","","","","","","","","","","","","","","","","","","","","","","","","","","","","","","","","","","","",""
"","text-replacement","45","223403","0.0-26.0","88761984","wem/bandit_party_1","A35C12CR628WKD","either","6","769","","","32","","","","","","","","","","","","","","","","","","","","","","","","","","","","","","","","","","","","",""
"","text-replacement","46","224886","0.0-27.0","88761984","wem/bandit_party_1","A35C12CR628WKD","either","6","1482","","","32","","","","","","","","","","","","","","","","","","","","","","","","","","","","","","","","","","","","",""
"","text-replacement","47","226121","0.0-28.0","88761984","wem/bandit_party_1","A35C12CR628WKD","either","6","1234","","","32","","","","","","","","","","","","","","","","","","","","","","","","","","","","","","","","","","","","",""
"","text-replacement","48","227489","0.0-29.0","88761984","wem/bandit_party_1","A35C12CR628WKD","either","6","1366","","","32","","","","","","","","","","","","","","","","","","","","","","","","","","","","","","","","","","","","",""
"","text-replacement","49","228916","0.0-30.0","88761984","wem/bandit_party_1","A35C12CR628WKD","either","6","1427","","","32","","","","","","","","","","","","","","","","","","","","","","","","","","","","","","","","","","","","",""
"","text-replacement","50","231367","0.0-31.0","88761984","wem/bandit_party_1","A35C12CR628WKD","either","6","2449","","","32","","","","","","","","","","","","","","","","","","","","","","","","","","","","","","","","","","","","",""
"","bandit","51","233200","0.0-32.0-0.0","88761984","wem/bandit_party_1","A35C12CR628WKD","either","6","330","","","","","","","1","0","0","0.8","","0.5","0.5","0.5","0.5","","","","","0.8","0.2","0.6","0.2","","","","","","","","","","72","H","0","img/none_selected.jpg","true","0","full_practice",""
"","bandit","52","234827","0.0-32.0-1.0","88761984","wem/bandit_party_1","A35C12CR628WKD","either","6","122","","","","","","","0","0","1","0.2","","0.5","0.5","0.5","0.5","","","","","0.8","0.2","0.6","0.2","","","","","","","","","","74","J","1","","true","0","full_practice",""
"","bandit","53","236400","0.0-32.0-2.0","88761984","wem/bandit_party_1","A35C12CR628WKD","either","6","71","","","","","","","0","1","0","","0.6","0.5","0.5","0.5","0.5","0.8","0.2","0.6","0.2","","","","","","","","","","","","","","75","K","2","","true","0","full_practice",""
"","bandit","54","237986","0.0-32.0-3.0","88761984","wem/bandit_party_1","A35C12CR628WKD","either","6","80","","","","","","","0","1","0","","0.6","0.5","0.5","0.5","0.5","0.8","0.2","0.6","0.2","","","","","","","","","","","","","","75","K","2","","true","0","full_practice",""
"","bandit","55","239732","0.0-32.0-4.0","88761984","wem/bandit_party_1","A35C12CR628WKD","either","6","242","","","","","","","0","0","1","0.2","","0.5","0.5","0.5","0.5","","","","","0.8","0.2","0.6","0.2","","","","","","","","","","76","L","3","","true","0","full_practice",""
"","bandit","56","241274","0.0-32.0-5.0","88761984","wem/bandit_party_1","A35C12CR628WKD","either","6","38","","","","","","","0","0","1","0.6","","0.5","0.5","0.5","0.5","","","","","0.8","0.2","0.6","0.2","","","","","","","","","","75","K","2","","true","0","full_practice",""
"","bandit","57","242956","0.0-32.0-6.0","88761984","wem/bandit_party_1","A35C12CR628WKD","either","6","176","","","","","","","1","0","0","0.8","","0.5","0.5","0.5","0.5","","","","","0.8","0.2","0.6","0.2","","","","","","","","","","72","H","0","img/none_selected.jpg","true","0","full_practice",""
"","bandit","58","244537","0.0-32.0-7.0","88761984","wem/bandit_party_1","A35C12CR628WKD","either","6","77","","","","","","","1","0","0","0.8","","0.5","0.5","0.5","0.5","","","","","0.8","0.2","0.6","0.2","","","","","","","","","","72","H","0","img/none_selected.jpg","true","0","full_practice",""
"","bandit","59","246177","0.0-32.0-8.0","88761984","wem/bandit_party_1","A35C12CR628WKD","either","6","136","","","","","","","1","0","0","0.8","","0.5","0.5","0.5","0.5","","","","","0.8","0.2","0.6","0.2","","","","","","","","","","72","H","0","img/none_selected.jpg","true","0","full_practice",""
"","bandit","60","247864","0.0-32.0-9.0","88761984","wem/bandit_party_1","A35C12CR628WKD","either","6","184","","","","","","","0","1","0","","0.8","0.5","0.5","0.5","0.5","0.8","0.2","0.6","0.2","","","","","","","","","","","","","","72","H","0","img/none_selected.jpg","true","0","full_practice",""
"","bandit","61","249369","0.0-32.0-10.0","88761984","wem/bandit_party_1","A35C12CR628WKD","either","6","0","","","","","","","0","1","0","","0.8","0.5","0.5","0.5","0.5","0.8","0.2","0.6","0.2","","","","","","","","","","","","","","72","H","0","img/none_selected.jpg","true","0","full_practice",""
"","bandit","62","250935","0.0-32.0-11.0","88761984","wem/bandit_party_1","A35C12CR628WKD","either","6","62","","","","","","","1","0","0","0.8","","0.5","0.5","0.5","0.5","","","","","0.8","0.2","0.6","0.2","","","","","","","","","","72","H","0","img/none_selected.jpg","true","0","full_practice",""
"","bandit","63","252602","0.0-32.0-12.0","88761984","wem/bandit_party_1","A35C12CR628WKD","either","6","162","","","","","","","0","1","0","","0.8","0.5","0.5","0.5","0.5","0.8","0.2","0.6","0.2","","","","","","","","","","","","","","72","H","0","img/none_selected.jpg","true","0","full_practice",""
"","bandit","64","254345","0.0-32.0-13.0","88761984","wem/bandit_party_1","A35C12CR628WKD","either","6","240","","","","","","","1","0","0","0.8","","0.5","0.5","0.5","0.5","","","","","0.8","0.2","0.6","0.2","","","","","","","","","","72","H","0","img/none_selected.jpg","true","0","full_practice",""
"","bandit","65","255952","0.0-32.0-14.0","88761984","wem/bandit_party_1","A35C12CR628WKD","either","6","102","","","","","","","1","0","0","0.8","","0.5","0.5","0.5","0.5","","","","","0.8","0.2","0.6","0.2","","","","","","","","","","72","H","0","img/none_selected.jpg","true","0","full_practice",""
"","bandit","66","257642","0.0-32.0-15.0","88761984","wem/bandit_party_1","A35C12CR628WKD","either","6","187","","","","","","","1","0","0","0.8","","0.5","0.5","0.5","0.5","","","","","0.8","0.2","0.6","0.2","","","","","","","","","","72","H","0","img/none_selected.jpg","true","0","full_practice",""
"","bandit","67","259156","0.0-32.0-16.0","88761984","wem/bandit_party_1","A35C12CR628WKD","either","6","10","","","","","","","1","0","0","0.8","","0.5","0.5","0.5","0.5","","","","","0.8","0.2","0.6","0.2","","","","","","","","","","72","H","0","img/none_selected.jpg","true","0","full_practice",""
"","bandit","68","260836","0.0-32.0-17.0","88761984","wem/bandit_party_1","A35C12CR628WKD","either","6","176","","","","","","","0","0","1","0.2","","0.5","0.5","0.5","0.5","","","","","0.8","0.2","0.6","0.2","","","","","","","","","","74","J","1","","true","0","full_practice",""
"","bandit","69","262429","0.0-32.0-18.0","88761984","wem/bandit_party_1","A35C12CR628WKD","either","6","89","","","","","","","1","0","0","0.6","","0.5","0.5","0.5","0.5","","","","","0.8","0.2","0.6","0.2","","","","","","","","","","75","K","2","","true","0","full_practice",""
"","bandit","70","263956","0.0-32.0-19.0","88761984","wem/bandit_party_1","A35C12CR628WKD","either","6","23","","","","","","","0","0","1","0.6","","0.5","0.5","0.5","0.5","","","","","0.8","0.2","0.6","0.2","","","","","","","","","","75","K","2","","true","0","full_practice",""
"","text","71","265694","0.0-33.0","88761984","wem/bandit_party_1","A35C12CR628WKD","either","6","1732","","","32","","","","","","","","","","","","","","","","","","","","","","","","","","","","","","","","","","","","",""
"","text-replacement","72","280633","0.0-34.0","88761984","wem/bandit_party_1","A35C12CR628WKD","either","6","13937","","","32","","","","","","","","","","","","","","","","","","","","","","","","","","","","","","","","","","","","",""
"","text-replacement","73","290209","0.0-35.0","88761984","wem/bandit_party_1","A35C12CR628WKD","either","6","9574","","","32","","","","","","","","","","","","","","","","","","","","","","","","","","","","","","","","","","","","",""
"","text-replacement","74","293271","0.0-36.0","88761984","wem/bandit_party_1","A35C12CR628WKD","either","6","3061","","","32","","","","","","","","","","","","","","","","","","","","","","","","","","","","","","","","","","","","",""
"","text-replacement","75","294180","0.0-37.0","88761984","wem/bandit_party_1","A35C12CR628WKD","either","6","907","","","32","","","","","","","","","","","","","","","","","","","","","","","","","","","","","","","","","","","","",""
"","text-replacement","76","296350","0.0-38.0","88761984","wem/bandit_party_1","A35C12CR628WKD","either","6","2169","","","32","","","","","","","","","","","","","","","","","","","","","","","","","","","","","","","","","","","","",""
"","survey-multi-choice-replacement","77","300169","0.0-39.0-0.0","88761984","wem/bandit_party_1","A35C12CR628WKD","either","6","3814","","","","","","","","","","","","","","","","","","","","","","","","Money will be added to the pool for <span style='color:red;'>REPUBLICANS</span>","","","","","","","attn_check","","","","","","","","","0"
"","survey-multi-choice-replacement","78","304377","0.0-40.0-0.0","88761984","wem/bandit_party_1","A35C12CR628WKD","either","6","3201","","","","","","","","","","","","","","","","","","","","","","","","Equal amounts of money will be added to the pool for <span style='color:red;'>REPUBLICANS</span> and subtracted from the pool for <span style='color:blue;'>DEMOCRATS</span>","","","","","","","attn_check","","","","","","","","","2"
"","survey-multi-choice-replacement","79","307772","0.0-41.0-0.0","88761984","wem/bandit_party_1","A35C12CR628WKD","either","6","2390","","","","","","","","","","","","","","","","","","","","","","","","No money will be added to either pool","","","","","","","attn_check","","","","","","","","","3"
"","bandit","80","311365","0.0-42.0-0.0","88761984","wem/bandit_party_1","A35C12CR628WKD","either","6","1086","","","","","","","0","1","0","","0.1720655487","0.4","0.8","0.2","0.6","0.1720655487","0.06094066238","0.4656478179","0.1734470434","","","","","","","","","","","","","","72","H","0","img/none_selected.jpg","","1","main_expt",""
"","bandit","81","313070","0.0-43.0-0.0","88761984","wem/bandit_party_1","A35C12CR628WKD","either","6","200","","","","","","","0","0","1","","0.1607886358","0.4","0.8","0.2","0.6","0.1607886358","0.04941180107","0.4661883906","0.1582158198","","","","","","","","","","","","","","72","H","0","img/none_selected.jpg","","2","main_expt",""
"","bandit","82","314791","0.0-44.0-0.0","88761984","wem/bandit_party_1","A35C12CR628WKD","either","6","218","","","","","","","0","0","1","0.09066711981","","0.4","0.8","0.2","0.6","","","","","0.1825924006","0.09066711981","0.4608397999","0.1264016625","","","","","","","","","","74","J","1","","","3","main_expt",""
"","bandit","83","316395","0.0-45.0-0.0","88761984","wem/bandit_party_1","A35C12CR628WKD","either","6","100","","","","","","","0","0","1","","0.4568511376","0.4","0.8","0.2","0.6","0.1572982515","0.07815644495","0.4568511376","0.1212924903","","","","","","","","","","","","","","75","K","2","","","4","main_expt",""
"","bandit","84","317951","0.0-46.0-0.0","88761984","wem/bandit_party_1","A35C12CR628WKD","either","6","51","","","","","","","0","0","1","0.1603104869","","0.4","0.8","0.2","0.6","","","","","0.1873501432","0.06547040057","0.4576747282","0.1603104869","","","","","","","","","","76","L","3","","","5","main_expt",""
"","bandit","85","319520","0.0-47.0-0.0","88761984","wem/bandit_party_1","A35C12CR628WKD","either","6","66","","","","","","","0","0","1","0.1484719509","","0.4","0.8","0.2","0.6","","","","","0.1484719509","0.09500806419","0.4673201091","0.1916070739","","","","","","","","","","72","H","0","img/none_selected.jpg","","6","main_expt",""
"","bandit","86","321122","0.0-48.0-0.0","88761984","wem/bandit_party_1","A35C12CR628WKD","either","6","98","","","","","","","0","0","1","","0.1368680622","0.4","0.8","0.2","0.6","0.1368680622","0.1156714339","0.4671816856","0.1624213819","","","","","","","","","","","","","","72","H","0","img/none_selected.jpg","","7","main_expt",""
"","bandit","87","322648","0.0-49.0-0.0","88761984","wem/bandit_party_1","A35C12CR628WKD","either","6","22","","","","","","","0","0","1","0.08939878806","","0.4","0.8","0.2","0.6","","","","","0.1412197478","0.08939878806","0.4577650209","0.1529627983","","","","","","","","","","74","J","1","","","8","main_expt",""
"","bandit","88","324345","0.0-50.0-0.0","88761984","wem/bandit_party_1","A35C12CR628WKD","either","6","193","","","","","","","0","0","1","0.1379609943","","0.4","0.8","0.2","0.6","","","","","0.1285241668","0.1379609943","0.4538037209","0.1638779","","","","","","","","","","74","J","1","","","9","main_expt",""
"","bandit","89","325993","0.0-51.0-0.0","88761984","wem/bandit_party_1","A35C12CR628WKD","either","6","141","","","","","","","1","0","0","0.4567906288","","0.4","0.8","0.2","0.6","","","","","0.1137500729","0.08892925829","0.4567906288","0.1682184418","","","","","","","","","","75","K","2","","","10","main_expt",""
"","bandit","90","327576","0.0-52.0-0.0","88761984","wem/bandit_party_1","A35C12CR628WKD","either","6","78","","","","","","","0","1","0","","0.4707556997","0.4","0.8","0.2","0.6","0.1134058804","0.1053961985","0.4707556997","0.1511948373","","","","","","","","","","","","","","75","K","2","","","11","main_expt",""
"","bandit","91","329281","0.0-53.0-0.0","88761984","wem/bandit_party_1","A35C12CR628WKD","either","6","200","","","","","","","0","0","1","0.4534589675","","0.4","0.8","0.2","0.6","","","","","0.1358134986","0.1267534428","0.4534589675","0.2144966391","","","","","","","","","","75","K","2","","","12","main_expt",""
"","bandit","92","330885","0.0-54.0-0.0","88761984","wem/bandit_party_1","A35C12CR628WKD","either","6","101","","","","","","","0","0","1","","0.4474824422","0.4","0.8","0.2","0.6","0.1105925571","0.1179877152","0.4474824422","0.1443049275","","","","","","","","","","","","","","75","K","2","","","13","main_expt",""
"","bandit","93","332519","0.0-55.0-0.0","88761984","wem/bandit_party_1","A35C12CR628WKD","either","6","128","","","","","","","0","1","0","","0.4125602811","0.4","0.8","0.2","0.6","0.09057326494","0.1300626215","0.4125602811","0.149160688","","","","","","","","","","","","","","75","K","2","","","14","main_expt",""
"","bandit","94","334103","0.0-56.0-0.0","88761984","wem/bandit_party_1","A35C12CR628WKD","either","6","79","","","","","","","0","0","1","0.1525333278","","0.4","0.8","0.2","0.6","","","","","0.05963436345","0.1129073675","0.3715785473","0.1525333278","","","","","","","","","","76","L","3","","","15","main_expt",""
"","bandit","95","335624","0.0-57.0-0.0","88761984","wem/bandit_party_1","A35C12CR628WKD","either","6","16","","","","","","","0","0","1","0.1437253933","","0.4","0.8","0.2","0.6","","","","","0.03970917029","0.1132840383","0.3670357029","0.1437253933","","","","","","","","","","76","L","3","","","16","main_expt",""
"","bandit","96","337181","0.0-58.0-0.0","88761984","wem/bandit_party_1","A35C12CR628WKD","either","6","52","","","","","","","0","1","0","","0.333794799","0.4","0.8","0.2","0.6","0.03301664506","0.1530786807","0.333794799","0.1191274054","","","","","","","","","","","","","","75","K","2","","","17","main_expt",""
"","bandit","97","338736","0.0-59.0-0.0","88761984","wem/bandit_party_1","A35C12CR628WKD","either","6","49","","","","","","","0","0","1","","0.3720862831","0.4","0.8","0.2","0.6","0.0325619","0.1367655081","0.3720862831","0.1231388663","","","","","","","","","","","","","","75","K","2","","","18","main_expt",""
"","bandit","98","340298","0.0-60.0-0.0","88761984","wem/bandit_party_1","A35C12CR628WKD","either","6","57","","","","","","","0","0","1","","0.3940248177","0.4","0.8","0.2","0.6","0.05136562407","0.1519969922","0.3940248177","0.1014962652","","","","","","","","","","","","","","75","K","2","","","19","main_expt",""
"","bandit","99","341860","0.0-61.0-0.0","88761984","wem/bandit_party_1","A35C12CR628WKD","either","6","58","","","","","","","0","1","0","","0.3980303587","0.4","0.8","0.2","0.6","0.05620034239","0.2344823222","0.3980303587","0.1184271466","","","","","","","","","","","","","","75","K","2","","","20","main_expt",""
"","bandit","100","343418","0.0-62.0-0.0","88761984","wem/bandit_party_1","A35C12CR628WKD","either","6","53","","","","","","","0","0","1","0.405953395","","0.4","0.8","0.2","0.6","","","","","0.04865895453","0.2227593861","0.405953395","0.1434190777","","","","","","","","","","75","K","2","","","21","main_expt",""
"","bandit","101","345000","0.0-63.0-0.0","88761984","wem/bandit_party_1","A35C12CR628WKD","either","6","78","","","","","","","0","0","1","","0.37898799","0.4","0.8","0.2","0.6","0.05276066643","0.1831098024","0.37898799","0.1323354157","","","","","","","","","","","","","","75","K","2","","","22","main_expt",""
"","bandit","102","346527","0.0-64.0-0.0","88761984","wem/bandit_party_1","A35C12CR628WKD","either","6","23","","","","","","","0","0","1","","0.05284133488","0.4","0.8","0.2","0.6","0.05284133488","0.1660310818","0.3661255489","0.1384191998","","","","","","","","","","","","","","72","H","0","img/none_selected.jpg","","23","main_expt",""
"","bandit","103","348141","0.0-65.0-0.0","88761984","wem/bandit_party_1","A35C12CR628WKD","either","6","110","","","","","","","0","0","1","","0.0333904923","0.4","0.8","0.2","0.6","0.0333904923","0.1400827643","0.3576379461","0.1395593146","","","","","","","","","","","","","","72","H","0","img/none_selected.jpg","","24","main_expt",""
"","bandit","104","349785","0.0-66.0-0.0","88761984","wem/bandit_party_1","A35C12CR628WKD","either","6","140","","","","","","","0","0","1","0.2022937807","","0.4","0.8","0.2","0.6","","","","","0.04666446392","0.2022937807","0.3346121782","0.1696236693","","","","","","","","","","74","J","1","","","25","main_expt",""
"","bandit","105","351473","0.0-67.0-0.0","88761984","wem/bandit_party_1","A35C12CR628WKD","either","6","184","","","","","","","1","0","0","0.1725383963","","0.4","0.8","0.2","0.6","","","","","0.04067930801","0.1725383963","0.3790434843","0.1754084838","","","","","","","","","","74","J","1","","","26","main_expt",""
"","bandit","106","353135","0.0-68.0-0.0","88761984","wem/bandit_party_1","A35C12CR628WKD","either","6","158","","","","","","","0","0","1","0.1735642386","","0.4","0.8","0.2","0.6","","","","","0.03070036018","0.1735642386","0.3744762435","0.118483546","","","","","","","","","","74","J","1","","","27","main_expt",""
"","bandit","107","354775","0.0-69.0-0.0","88761984","wem/bandit_party_1","A35C12CR628WKD","either","6","134","","","","","","","0","0","1","0.149532802","","0.4","0.8","0.2","0.6","","","","","0.02292460278","0.149532802","0.3650769418","0.1259847853","","","","","","","","","","74","J","1","","","28","main_expt",""
"","bandit","108","356370","0.0-70.0-0.0","88761984","wem/bandit_party_1","A35C12CR628WKD","either","6","89","","","","","","","0","1","0","","0.3299345172","0.4","0.8","0.2","0.6","0.03476379039","0.1597785082","0.3299345172","0.1072727049","","","","","","","","","","","","","","75","K","2","","","29","main_expt",""
"","bandit","109","358024","0.0-71.0-0.0","88761984","wem/bandit_party_1","A35C12CR628WKD","either","6","149","","","","","","","0","0","1","0.3010095271","","0.4","0.8","0.2","0.6","","","","","0.04211589453","0.1978771271","0.3010095271","0.07952930744","","","","","","","","","","75","K","2","","","30","main_expt",""
"","bandit","110","359687","0.0-72.0-0.0","88761984","wem/bandit_party_1","A35C12CR628WKD","either","6","158","","","","","","","0","0","1","","0.331530841","0.4","0.8","0.2","0.6","0.04495483672","0.1928768267","0.331530841","0.09691030242","","","","","","","","","","","","","","75","K","2","","","31","main_expt",""
"","bandit","111","361324","0.0-73.0-0.0","88761984","wem/bandit_party_1","A35C12CR628WKD","either","6","133","","","","","","","0","1","0","","0.1338720944","0.4","0.8","0.2","0.6","0.04126869591","0.1511047494","0.3469043085","0.1338720944","","","","","","","","","","","","","","76","L","3","","","32","main_expt",""
"","bandit","112","362975","0.0-74.0-0.0","88761984","wem/bandit_party_1","A35C12CR628WKD","either","6","146","","","","","","","0","0","1","","0.1428203538","0.4","0.8","0.2","0.6","0.02396570111","0.09247049486","0.2778139242","0.1428203538","","","","","","","","","","","","","","76","L","3","","","33","main_expt",""
"","bandit","113","364579","0.0-75.0-0.0","88761984","wem/bandit_party_1","A35C12CR628WKD","either","6","99","","","","","","","0","0","1","","0.1258169527","0.4","0.8","0.2","0.6","0.03561151332","0.1127946788","0.236883459","0.1258169527","","","","","","","","","","","","","","76","L","3","","","34","main_expt",""
"","bandit","114","366246","0.0-76.0-0.0","88761984","wem/bandit_party_1","A35C12CR628WKD","either","6","158","","","","","","","0","0","1","0.1279928094","","0.4","0.8","0.2","0.6","","","","","0.04565222073","0.1279928094","0.2656196476","0.1652362889","","","","","","","","","","74","J","1","","","35","main_expt",""
"","bandit","115","367792","0.0-77.0-0.0","88761984","wem/bandit_party_1","A35C12CR628WKD","either","6","42","","","","","","","0","0","1","","0.09285608896","0.4","0.8","0.2","0.6","0.05036449293","0.09285608896","0.2309028503","0.1472348388","","","","","","","","","","","","","","74","J","1","","","36","main_expt",""
"","bandit","116","369468","0.0-78.0-0.0","88761984","wem/bandit_party_1","A35C12CR628WKD","either","6","171","","","","","","","0","0","1","0.1251507517","","0.4","0.8","0.2","0.6","","","","","0.04764774511","0.1251507517","0.1961267878","0.20581188","","","","","","","","","","74","J","1","","","37","main_expt",""
"","bandit","117","371166","0.0-79.0-0.0","88761984","wem/bandit_party_1","A35C12CR628WKD","either","6","193","","","","","","","0","0","1","","0.04692466818","0.4","0.8","0.2","0.6","0.04692466818","0.1248439258","0.2197692452","0.2096070571","","","","","","","","","","","","","","72","H","0","img/none_selected.jpg","","38","main_expt",""
"","bandit","118","372844","0.0-80.0-0.0","88761984","wem/bandit_party_1","A35C12CR628WKD","either","6","173","","","","","","","0","0","1","0.06150360576","","0.4","0.8","0.2","0.6","","","","","0.06150360576","0.1192858938","0.1783178102","0.1888903691","","","","","","","","","","72","H","0","img/none_selected.jpg","","39","main_expt",""
"","bandit","119","374521","0.0-81.0-0.0","88761984","wem/bandit_party_1","A35C12CR628WKD","either","6","172","","","","","","","0","0","1","0.1025324214","","0.4","0.8","0.2","0.6","","","","","0.1025324214","0.1457630933","0.1354267005","0.1769314034","","","","","","","","","","72","H","0","img/none_selected.jpg","","40","main_expt",""
"","bandit","120","376149","0.0-82.0-0.0","88761984","wem/bandit_party_1","A35C12CR628WKD","either","6","124","","","","","","","1","0","0","0.1278282258","","0.4","0.8","0.2","0.6","","","","","0.1278282258","0.1788887836","0.1307301687","0.1764673912","","","","","","","","","","72","H","0","img/none_selected.jpg","","41","main_expt",""
"","bandit","121","377818","0.0-83.0-0.0","88761984","wem/bandit_party_1","A35C12CR628WKD","either","6","163","","","","","","","0","0","1","","0.1144783829","0.4","0.8","0.2","0.6","0.1144783829","0.1550439797","0.1002459791","0.1164002711","","","","","","","","","","","","","","72","H","0","img/none_selected.jpg","","42","main_expt",""
"","bandit","122","379519","0.0-84.0-0.0","88761984","wem/bandit_party_1","A35C12CR628WKD","either","6","195","","","","","","","0","0","1","","0.148274456","0.4","0.8","0.2","0.6","0.148274456","0.1624336935","0.06131682752","0.1248357276","","","","","","","","","","","","","","72","H","0","img/none_selected.jpg","","43","main_expt",""
"","bandit","123","381241","0.0-85.0-0.0","88761984","wem/bandit_party_1","A35C12CR628WKD","either","6","218","","","","","","","0","0","1","","0.05757194937","0.4","0.8","0.2","0.6","0.1733993608","0.2610419313","0.05757194937","0.1801883524","","","","","","","","","","","","","","75","K","2","","","44","main_expt",""
"","bandit","124","382814","0.0-86.0-0.0","88761984","wem/bandit_party_1","A35C12CR628WKD","either","6","68","","","","","","","0","0","1","0.06317169253","","0.4","0.8","0.2","0.6","","","","","0.1731137141","0.2547096211","0.06317169253","0.1536252234","","","","","","","","","","75","K","2","","","45","main_expt",""
"","bandit","125","384385","0.0-87.0-0.0","88761984","wem/bandit_party_1","A35C12CR628WKD","either","6","66","","","","","","","0","0","1","","0.08604650327","0.4","0.8","0.2","0.6","0.2577534017","0.2690630982","0.08604650327","0.1453657368","","","","","","","","","","","","","","75","K","2","","","46","main_expt",""
"","bandit","126","385896","0.0-88.0-0.0","88761984","wem/bandit_party_1","A35C12CR628WKD","either","6","4","","","","","","","0","0","1","0.2613787364","","0.4","0.8","0.2","0.6","","","","","0.2436059896","0.2613787364","0.07503215105","0.1163474927","","","","","","","","","","74","J","1","","","47","main_expt",""
"","bandit","127","387570","0.0-89.0-0.0","88761984","wem/bandit_party_1","A35C12CR628WKD","either","6","168","","","","","","","0","0","1","0.2764851171","","0.4","0.8","0.2","0.6","","","","","0.261356988","0.2764851171","0.09661626413","0.1187671899","","","","","","","","","","74","J","1","","","48","main_expt",""
"","bandit","128","389079","0.0-90.0-0.0","88761984","wem/bandit_party_1","A35C12CR628WKD","either","6","5","","","","","","","0","0","1","","0.2707362224","0.4","0.8","0.2","0.6","0.2707362224","0.2628846066","0.141419135","0.1321787199","","","","","","","","","","","","","","72","H","0","img/none_selected.jpg","","49","main_expt",""
"","bandit","129","390617","0.0-91.0-0.0","88761984","wem/bandit_party_1","A35C12CR628WKD","either","6","32","","","","","","","0","1","0","","0.2733601765","0.4","0.8","0.2","0.6","0.2733601765","0.3634831931","0.1341637883","0.1310663867","","","","","","","","","","","","","","72","H","0","img/none_selected.jpg","","50","main_expt",""
"","bandit","130","392260","0.0-92.0-0.0","88761984","wem/bandit_party_1","A35C12CR628WKD","either","6","138","","","","","","","0","0","1","","0.2590969561","0.4","0.8","0.2","0.6","0.2590969561","0.3771608335","0.1225974466","0.1450472339","","","","","","","","","","","","","","72","H","0","img/none_selected.jpg","","51","main_expt",""
"","bandit","131","393845","0.0-93.0-0.0","88761984","wem/bandit_party_1","A35C12CR628WKD","either","6","80","","","","","","","0","0","1","0.2515646212","","0.4","0.8","0.2","0.6","","","","","0.2515646212","0.3093307572","0.1145468474","0.1731775471","","","","","","","","","","72","H","0","img/none_selected.jpg","","52","main_expt",""
"","bandit","132","395535","0.0-94.0-0.0","88761984","wem/bandit_party_1","A35C12CR628WKD","either","6","186","","","","","","","0","0","1","","0.2257746054","0.4","0.8","0.2","0.6","0.2257746054","0.2990929044","0.1059564611","0.2258016315","","","","","","","","","","","","","","72","H","0","img/none_selected.jpg","","53","main_expt",""
"","bandit","133","397106","0.0-95.0-0.0","88761984","wem/bandit_party_1","A35C12CR628WKD","either","6","67","","","","","","","0","0","1","","0.1090017536","0.4","0.8","0.2","0.6","0.2750925763","0.2221679908","0.1090017536","0.2172527187","","","","","","","","","","","","","","75","K","2","","","54","main_expt",""
"","bandit","134","398779","0.0-96.0-0.0","88761984","wem/bandit_party_1","A35C12CR628WKD","either","6","168","","","","","","","0","0","1","0.1249444004","","0.4","0.8","0.2","0.6","","","","","0.3608357377","0.1886471815","0.1249444004","0.1652356872","","","","","","","","","","75","K","2","","","55","main_expt",""
"","bandit","135","400340","0.0-97.0-0.0","88761984","wem/bandit_party_1","A35C12CR628WKD","either","6","57","","","","","","","0","0","1","","0.09043885587","0.4","0.8","0.2","0.6","0.4022545085","0.1973213641","0.09043885587","0.1576418272","","","","","","","","","","","","","","75","K","2","","","56","main_expt",""
"","bandit","136","402013","0.0-98.0-0.0","88761984","wem/bandit_party_1","A35C12CR628WKD","either","6","169","","","","","","","0","0","1","0.180776926","","0.4","0.8","0.2","0.6","","","","","0.3867568464","0.2207101474","0.07448640425","0.180776926","","","","","","","","","","76","L","3","","","57","main_expt",""
"","bandit","137","403601","0.0-99.0-0.0","88761984","wem/bandit_party_1","A35C12CR628WKD","either","6","82","","","","","","","0","0","1","0.1489081552","","0.4","0.8","0.2","0.6","","","","","0.3840355114","0.2480089655","0.09808879237","0.1489081552","","","","","","","","","","76","L","3","","","58","main_expt",""
"","bandit","138","405153","0.0-100.0-0.0","88761984","wem/bandit_party_1","A35C12CR628WKD","either","6","46","","","","","","","0","0","1","","0.125555473","0.4","0.8","0.2","0.6","0.3617876187","0.2667579505","0.0721355853","0.125555473","","","","","","","","","","","","","","76","L","3","","","59","main_expt",""
"","bandit","139","406766","0.0-101.0-0.0","88761984","wem/bandit_party_1","A35C12CR628WKD","either","6","107","","","","","","","0","0","1","0.2637313595","","0.4","0.8","0.2","0.6","","","","","0.3018070945","0.2637313595","0.08871326978","0.1228814318","","","","","","","","","","74","J","1","","","60","main_expt",""
"","bandit","140","408415","0.0-102.0-0.0","88761984","wem/bandit_party_1","A35C12CR628WKD","either","6","144","","","","","","","0","1","0","","0.2400462537","0.4","0.8","0.2","0.6","0.2687465691","0.2400462537","0.1472383223","0.195834737","","","","","","","","","","","","","","74","J","1","","","61","main_expt",""
"","bandit","141","409931","0.0-103.0-0.0","88761984","wem/bandit_party_1","A35C12CR628WKD","either","6","11","","","","","","","0","0","1","0.2396546157","","0.4","0.8","0.2","0.6","","","","","0.287622952","0.2396546157","0.1625866577","0.1952904108","","","","","","","","","","74","J","1","","","62","main_expt",""
"","bandit","142","411613","0.0-104.0-0.0","88761984","wem/bandit_party_1","A35C12CR628WKD","either","6","176","","","","","","","0","0","1","0.2558687718","","0.4","0.8","0.2","0.6","","","","","0.2060093557","0.2558687718","0.1196153378","0.187392073","","","","","","","","","","74","J","1","","","63","main_expt",""
"","bandit","143","413201","0.0-105.0-0.0","88761984","wem/bandit_party_1","A35C12CR628WKD","either","6","82","","","","","","","0","0","1","","0.1789331692","0.4","0.8","0.2","0.6","0.1865830226","0.1789331692","0.1025290435","0.1774517964","","","","","","","","","","","","","","74","J","1","","","64","main_expt",""
"","bandit","144","414833","0.0-106.0-0.0","88761984","wem/bandit_party_1","A35C12CR628WKD","either","6","126","","","","","","","0","0","1","","0.06637487434","0.4","0.8","0.2","0.6","0.2242960511","0.2041721298","0.06637487434","0.1956590225","","","","","","","","","","","","","","75","K","2","","","65","main_expt",""
"","bandit","145","416494","0.0-107.0-0.0","88761984","wem/bandit_party_1","A35C12CR628WKD","either","6","157","","","","","","","0","0","1","","0.09888809835","0.4","0.8","0.2","0.6","0.213739571","0.1083731131","0.09888809835","0.1559932489","","","","","","","","","","","","","","75","K","2","","","66","main_expt",""
"","bandit","146","418021","0.0-108.0-0.0","88761984","wem/bandit_party_1","A35C12CR628WKD","either","6","20","","","","","","","0","0","1","0.2463093088","","0.4","0.8","0.2","0.6","","","","","0.2463093088","0.08148965902","0.08542348091","0.1327283285","","","","","","","","","","72","H","0","img/none_selected.jpg","","67","main_expt",""
"","bandit","147","419639","0.0-109.0-0.0","88761984","wem/bandit_party_1","A35C12CR628WKD","either","6","112","","","","","","","0","0","1","","0.1863602012","0.4","0.8","0.2","0.6","0.1863602012","0.115871946","0.05648132023","0.1646421129","","","","","","","","","","","","","","72","H","0","img/none_selected.jpg","","68","main_expt",""
"","bandit","148","421294","0.0-110.0-0.0","88761984","wem/bandit_party_1","A35C12CR628WKD","either","6","151","","","","","","","0","0","1","0.1481768435","","0.4","0.8","0.2","0.6","","","","","0.1481768435","0.1049465522","0.07427448495","0.1879918005","","","","","","","","","","72","H","0","img/none_selected.jpg","","69","main_expt",""
"","bandit","149","422856","0.0-111.0-0.0","88761984","wem/bandit_party_1","A35C12CR628WKD","either","6","56","","","","","","","0","0","1","0.1224614501","","0.4","0.8","0.2","0.6","","","","","0.2062415021","0.1224614501","0.1052870039","0.1708527721","","","","","","","","","","74","J","1","","","70","main_expt",""
"","bandit","150","424557","0.0-112.0-0.0","88761984","wem/bandit_party_1","A35C12CR628WKD","either","6","195","","","","","","","0","0","1","","0.1114501371","0.4","0.8","0.2","0.6","0.2175562698","0.1687358413","0.1114501371","0.1930923514","","","","","","","","","","","","","","75","K","2","","","71","main_expt",""
"","bandit","151","426139","0.0-113.0-0.0","88761984","wem/bandit_party_1","A35C12CR628WKD","either","6","75","","","","","","","0","1","0","","0.2289396243","0.4","0.8","0.2","0.6","0.2182173038","0.1902964731","0.1282799478","0.2289396243","","","","","","","","","","","","","","76","L","3","","","72","main_expt",""
"","bandit","152","427833","0.0-114.0-0.0","88761984","wem/bandit_party_1","A35C12CR628WKD","either","6","189","","","","","","","0","0","1","0.2223781067","","0.4","0.8","0.2","0.6","","","","","0.1629952044","0.1764690901","0.1113050996","0.2223781067","","","","","","","","","","76","L","3","","","73","main_expt",""
"","bandit","153","429600","0.0-115.0-0.0","88761984","wem/bandit_party_1","A35C12CR628WKD","either","6","262","","","","","","","0","0","1","0.1664819569","","0.4","0.8","0.2","0.6","","","","","0.2291178652","0.1720288853","0.1573287606","0.1664819569","","","","","","","","","","76","L","3","","","74","main_expt",""
"","bandit","154","431347","0.0-116.0-0.0","88761984","wem/bandit_party_1","A35C12CR628WKD","either","6","243","","","","","","","0","0","1","0.1157276324","","0.4","0.8","0.2","0.6","","","","","0.2087405931","0.098780463","0.168318459","0.1157276324","","","","","","","","","","76","L","3","","","75","main_expt",""
"","bandit","155","432945","0.0-117.0-0.0","88761984","wem/bandit_party_1","A35C12CR628WKD","either","6","92","","","","","","","1","0","0","0.131742089","","0.4","0.8","0.2","0.6","","","","","0.1981976751","0.08192786134","0.131742089","0.06912044911","","","","","","","","","","75","K","2","","","76","main_expt",""
"","bandit","156","434720","0.0-118.0-0.0","88761984","wem/bandit_party_1","A35C12CR628WKD","either","6","268","","","","","","","0","0","1","","0.1382621175","0.4","0.8","0.2","0.6","0.2302368041","0.03620126105","0.1382621175","0.06151132513","","","","","","","","","","","","","","75","K","2","","","77","main_expt",""
"","bandit","157","436430","0.0-119.0-0.0","88761984","wem/bandit_party_1","A35C12CR628WKD","either","6","204","","","","","","","0","0","1","","0.1351161864","0.4","0.8","0.2","0.6","0.2538269909","0.03362754592","0.1351161864","0.08824794056","","","","","","","","","","","","","","75","K","2","","","78","main_expt",""
"","bandit","158","438077","0.0-120.0-0.0","88761984","wem/bandit_party_1","A35C12CR628WKD","either","6","143","","","","","","","0","0","1","","0.08425003046","0.4","0.8","0.2","0.6","0.221492582","0.03917851348","0.1125986002","0.08425003046","","","","","","","","","","","","","","76","L","3","","","79","main_expt",""
"","bandit","159","439776","0.0-121.0-0.0","88761984","wem/bandit_party_1","A35C12CR628WKD","either","6","192","","","","","","","0","0","1","0.06916691586","","0.4","0.8","0.2","0.6","","","","","0.2126184008","0.06916691586","0.1071358869","0.1059393704","","","","","","","","","","74","J","1","","","80","main_expt",""
"","bandit","160","441491","0.0-122.0-0.0","88761984","wem/bandit_party_1","A35C12CR628WKD","either","6","210","","","","","","","0","0","1","","0.1803612399","0.4","0.8","0.2","0.6","0.1803612399","0.1110223174","0.1410751298","0.114990546","","","","","","","","","","","","","","72","H","0","img/none_selected.jpg","","81","main_expt",""
"","bandit","161","443137","0.0-123.0-0.0","88761984","wem/bandit_party_1","A35C12CR628WKD","either","6","141","","","","","","","0","0","1","0.08899533144","","0.4","0.8","0.2","0.6","","","","","0.1883980103","0.08899533144","0.1518454263","0.1246300745","","","","","","","","","","74","J","1","","","82","main_expt",""
"","bandit","162","444811","0.0-124.0-0.0","88761984","wem/bandit_party_1","A35C12CR628WKD","either","6","169","","","","","","","0","0","1","","0.1285150734","0.4","0.8","0.2","0.6","0.2099895667","0.1383499545","0.1285150734","0.1523433176","","","","","","","","","","","","","","75","K","2","","","83","main_expt",""
"","bandit","163","446412","0.0-125.0-0.0","88761984","wem/bandit_party_1","A35C12CR628WKD","either","6","95","","","","","","","0","0","1","0.1230513595","","0.4","0.8","0.2","0.6","","","","","0.1760666055","0.1815119679","0.1083679187","0.1230513595","","","","","","","","","","76","L","3","","","84","main_expt",""
"","bandit","164","447993","0.0-126.0-0.0","88761984","wem/bandit_party_1","A35C12CR628WKD","either","6","75","","","","","","","0","0","1","0.2077415988","","0.4","0.8","0.2","0.6","","","","","0.2077415988","0.2121304898","0.08985983991","0.1460595132","","","","","","","","","","72","H","0","img/none_selected.jpg","","85","main_expt",""
"","bandit","165","449648","0.0-127.0-0.0","88761984","wem/bandit_party_1","A35C12CR628WKD","either","6","149","","","","","","","0","0","1","0.1931166697","","0.4","0.8","0.2","0.6","","","","","0.1940704576","0.1931166697","0.08377758623","0.1578730034","","","","","","","","","","74","J","1","","","86","main_expt",""
"","bandit","166","451309","0.0-128.0-0.0","88761984","wem/bandit_party_1","A35C12CR628WKD","either","6","157","","","","","","","0","0","1","0.1920524506","","0.4","0.8","0.2","0.6","","","","","0.1920524506","0.1908876969","0.08340742779","0.1329566931","","","","","","","","","","72","H","0","img/none_selected.jpg","","87","main_expt",""
"","bandit","167","452857","0.0-129.0-0.0","88761984","wem/bandit_party_1","A35C12CR628WKD","either","6","44","","","","","","","0","0","1","","0.1727332377","0.4","0.8","0.2","0.6","0.2525081946","0.1727332377","0.06937011617","0.1156353122","","","","","","","","","","","","","","74","J","1","","","88","main_expt",""
"","bandit","168","454412","0.0-130.0-0.0","88761984","wem/bandit_party_1","A35C12CR628WKD","either","6","48","","","","","","","0","0","1","","0.08556693901","0.4","0.8","0.2","0.6","0.2476280913","0.1747664758","0.08556693901","0.1169245856","","","","","","","","","","","","","","75","K","2","","","89","main_expt",""
"","bandit","169","455922","0.0-131.0-0.0","88761984","wem/bandit_party_1","A35C12CR628WKD","either","6","5","","","","","","","0","0","1","","0.1013294801","0.4","0.8","0.2","0.6","0.2476417222","0.1302891894","0.1013294801","0.1276927611","","","","","","","","","","","","","","75","K","2","","","90","main_expt",""
"","bandit","170","457600","0.0-132.0-0.0","88761984","wem/bandit_party_1","A35C12CR628WKD","either","6","173","","","","","","","0","1","0","","0.1567130635","0.4","0.8","0.2","0.6","0.1875867431","0.1143331172","0.1567130635","0.1633868825","","","","","","","","","","","","","","75","K","2","","","91","main_expt",""
"","bandit","171","459300","0.0-133.0-0.0","88761984","wem/bandit_party_1","A35C12CR628WKD","either","6","194","","","","","","","0","0","1","","0.1214255195","0.4","0.8","0.2","0.6","0.1804963823","0.1674068059","0.1214255195","0.2172033847","","","","","","","","","","","","","","75","K","2","","","92","main_expt",""
"","bandit","172","460891","0.0-134.0-0.0","88761984","wem/bandit_party_1","A35C12CR628WKD","either","6","85","","","","","","","0","0","1","","0.1317465968","0.4","0.8","0.2","0.6","0.1468121695","0.1405005834","0.1317465968","0.2178255547","","","","","","","","","","","","","","75","K","2","","","93","main_expt",""
"","bandit","173","462450","0.0-135.0-0.0","88761984","wem/bandit_party_1","A35C12CR628WKD","either","6","51","","","","","","","0","0","1","","0.1810196293","0.4","0.8","0.2","0.6","0.1270151289","0.1338278818","0.1810196293","0.2058786334","","","","","","","","","","","","","","75","K","2","","","94","main_expt",""
"","bandit","174","464160","0.0-136.0-0.0","88761984","wem/bandit_party_1","A35C12CR628WKD","either","6","204","","","","","","","0","0","1","","0.1537803575","0.4","0.8","0.2","0.6","0.1049494322","0.16416917","0.1537803575","0.2009860572","","","","","","","","","","","","","","75","K","2","","","95","main_expt",""
"","bandit","175","466078","0.0-137.0-0.0","88761984","wem/bandit_party_1","A35C12CR628WKD","either","6","413","","","","","","","0","0","1","","0.2792576191","0.4","0.8","0.2","0.6","0.1242023773","0.1075549125","0.2255368078","0.2792576191","","","","","","","","","","","","","","76","L","3","","","96","main_expt",""
"","bandit","176","467677","0.0-138.0-0.0","88761984","wem/bandit_party_1","A35C12CR628WKD","either","6","94","","","","","","","0","0","1","0.291042229","","0.4","0.8","0.2","0.6","","","","","0.101802889","0.07285617598","0.1881791955","0.291042229","","","","","","","","","","76","L","3","","","97","main_expt",""
"","bandit","177","469296","0.0-139.0-0.0","88761984","wem/bandit_party_1","A35C12CR628WKD","either","6","113","","","","","","","0","0","1","","0.2919937097","0.4","0.8","0.2","0.6","0.08559904752","0.1128802937","0.1722186849","0.2919937097","","","","","","","","","","","","","","76","L","3","","","98","main_expt",""
"","bandit","178","471029","0.0-140.0-0.0","88761984","wem/bandit_party_1","A35C12CR628WKD","either","6","228","","","","","","","0","0","1","0.338066437","","0.4","0.8","0.2","0.6","","","","","0.04480153982","0.07338875894","0.2581810796","0.338066437","","","","","","","","","","76","L","3","","","99","main_expt",""
"","bandit","179","472660","0.0-141.0-0.0","88761984","wem/bandit_party_1","A35C12CR628WKD","either","6","125","","","","","","","0","0","1","0.06256672301","","0.4","0.8","0.2","0.6","","","","","0.03694367041","0.06256672301","0.3094702251","0.3466775547","","","","","","","","","","74","J","1","","","100","main_expt",""
"","bandit","180","474336","0.0-142.0-0.0","88761984","wem/bandit_party_1","A35C12CR628WKD","either","6","171","","","","","","","0","0","1","0.06765033746","","0.4","0.8","0.2","0.6","","","","","0.02534596886","0.06765033746","0.3217449289","0.3776837944","","","","","","","","","","74","J","1","","","101","main_expt",""
"","bandit","181","476021","0.0-143.0-0.0","88761984","wem/bandit_party_1","A35C12CR628WKD","either","6","180","","","","","","","0","0","1","0.08460413752","","0.4","0.8","0.2","0.6","","","","","0.03456503798","0.08460413752","0.3656493725","0.3988278911","","","","","","","","","","74","J","1","","","102","main_expt",""
"","bandit","182","477700","0.0-144.0-0.0","88761984","wem/bandit_party_1","A35C12CR628WKD","either","6","173","","","","","","","0","0","1","","0.1149622558","0.4","0.8","0.2","0.6","0.03116272615","0.1149622558","0.4097417878","0.3642388176","","","","","","","","","","","","","","74","J","1","","","103","main_expt",""
"","bandit","183","479303","0.0-145.0-0.0","88761984","wem/bandit_party_1","A35C12CR628WKD","either","6","97","","","","","","","0","0","1","0.04034009898","","0.4","0.8","0.2","0.6","","","","","0.04034009898","0.1223821921","0.4005896235","0.3059376685","","","","","","","","","","72","H","0","img/none_selected.jpg","","104","main_expt",""
"","bandit","184","480905","0.0-146.0-0.0","88761984","wem/bandit_party_1","A35C12CR628WKD","either","6","96","","","","","","","0","1","0","","0.06132200156","0.4","0.8","0.2","0.6","0.06132200156","0.1302837569","0.3967946647","0.2658022239","","","","","","","","","","","","","","72","H","0","img/none_selected.jpg","","105","main_expt",""
"","bandit","185","482525","0.0-147.0-0.0","88761984","wem/bandit_party_1","A35C12CR628WKD","either","6","114","","","","","","","0","0","1","","0.03171667797","0.4","0.8","0.2","0.6","0.03171667797","0.1405927316","0.3920329447","0.2583534607","","","","","","","","","","","","","","72","H","0","img/none_selected.jpg","","106","main_expt",""
"","bandit","186","484058","0.0-148.0-0.0","88761984","wem/bandit_party_1","A35C12CR628WKD","either","6","29","","","","","","","0","0","1","0.06603394544","","0.4","0.8","0.2","0.6","","","","","0.06603394544","0.1835021143","0.3973329777","0.2402432731","","","","","","","","","","72","H","0","img/none_selected.jpg","","107","main_expt",""
"","bandit","187","485811","0.0-149.0-0.0","88761984","wem/bandit_party_1","A35C12CR628WKD","either","6","247","","","","","","","0","0","1","0.08137973005","","0.4","0.8","0.2","0.6","","","","","0.08137973005","0.2124513917","0.3839010997","0.2364509509","","","","","","","","","","72","H","0","img/none_selected.jpg","","108","main_expt",""
"","bandit","188","487376","0.0-150.0-0.0","88761984","wem/bandit_party_1","A35C12CR628WKD","either","6","60","","","","","","","0","0","1","","0.04765661509","0.4","0.8","0.2","0.6","0.04765661509","0.218007314","0.3879107289","0.2164051194","","","","","","","","","","","","","","72","H","0","img/none_selected.jpg","","109","main_expt",""
"","bandit","189","489036","0.0-151.0-0.0","88761984","wem/bandit_party_1","A35C12CR628WKD","either","6","154","","","","","","","0","0","1","","0.3989855113","0.4","0.8","0.2","0.6","0.06789381979","0.229469423","0.3989855113","0.1611838666","","","","","","","","","","","","","","75","K","2","","","110","main_expt",""
"","bandit","190","490607","0.0-152.0-0.0","88761984","wem/bandit_party_1","A35C12CR628WKD","either","6","66","","","","","","","0","0","1","","0.3959495959","0.4","0.8","0.2","0.6","0.08972795074","0.2923436213","0.3959495959","0.2042622235","","","","","","","","","","","","","","75","K","2","","","111","main_expt",""
"","bandit","191","492273","0.0-153.0-0.0","88761984","wem/bandit_party_1","A35C12CR628WKD","either","6","160","","","","","","","0","0","1","","0.335596647","0.4","0.8","0.2","0.6","0.1176683061","0.2778802509","0.335596647","0.2113733305","","","","","","","","","","","","","","75","K","2","","","112","main_expt",""
"","bandit","192","493859","0.0-154.0-0.0","88761984","wem/bandit_party_1","A35C12CR628WKD","either","6","83","","","","","","","0","0","1","0.2876347753","","0.4","0.8","0.2","0.6","","","","","0.1973953549","0.2852166322","0.2876347753","0.220236308","","","","","","","","","","75","K","2","","","113","main_expt",""
"","bandit","193","495538","0.0-155.0-0.0","88761984","wem/bandit_party_1","A35C12CR628WKD","either","6","174","","","","","","","0","0","1","0.2811359795","","0.4","0.8","0.2","0.6","","","","","0.200840576","0.3222351196","0.2811359795","0.2453392608","","","","","","","","","","75","K","2","","","114","main_expt",""
"","bandit","194","497110","0.0-156.0-0.0","88761984","wem/bandit_party_1","A35C12CR628WKD","either","6","67","","","","","","","0","0","1","0.2865303103","","0.4","0.8","0.2","0.6","","","","","0.2544006126","0.2865303103","0.2056035349","0.2311931225","","","","","","","","","","74","J","1","","","115","main_expt",""
"","bandit","195","498857","0.0-157.0-0.0","88761984","wem/bandit_party_1","A35C12CR628WKD","either","6","242","","","","","","","0","0","1","0.1901772154","","0.4","0.8","0.2","0.6","","","","","0.2264812366","0.1901772154","0.2435386161","0.2290532582","","","","","","","","","","74","J","1","","","116","main_expt",""
"","bandit","196","500584","0.0-158.0-0.0","88761984","wem/bandit_party_1","A35C12CR628WKD","either","6","221","","","","","","","0","0","1","0.2535822563","","0.4","0.8","0.2","0.6","","","","","0.2535822563","0.1854727963","0.2523066444","0.2610634121","","","","","","","","","","72","H","0","img/none_selected.jpg","","117","main_expt",""
"","bandit","197","502171","0.0-159.0-0.0","88761984","wem/bandit_party_1","A35C12CR628WKD","either","6","82","","","","","","","0","0","1","","0.288462609","0.4","0.8","0.2","0.6","0.288462609","0.223078523","0.258758296","0.2915584027","","","","","","","","","","","","","","72","H","0","img/none_selected.jpg","","118","main_expt",""
"","bandit","198","503729","0.0-160.0-0.0","88761984","wem/bandit_party_1","A35C12CR628WKD","either","6","53","","","","","","","0","0","1","0.3077733757","","0.4","0.8","0.2","0.6","","","","","0.3077733757","0.2157898803","0.2513882557","0.3240034744","","","","","","","","","","72","H","0","img/none_selected.jpg","","119","main_expt",""
"","bandit","199","505340","0.0-161.0-0.0","88761984","wem/bandit_party_1","A35C12CR628WKD","either","6","107","","","","","","","0","0","1","","0.3470363664","0.4","0.8","0.2","0.6","0.3470363664","0.2055853597","0.2178230887","0.3584552205","","","","","","","","","","","","","","72","H","0","img/none_selected.jpg","","120","main_expt",""
"","bandit","200","507868","0.0-162.0-0.0","88761984","wem/bandit_party_1","A35C12CR628WKD","either","6","1023","","","","","","","0","0","1","","0.36369082","0.4","0.8","0.2","0.6","0.36369082","0.2308362602","0.2249913612","0.3392259721","","","","","","","","","","","","","","72","H","0","img/none_selected.jpg","","121","main_expt",""
"","bandit","201","509505","0.0-163.0-0.0","88761984","wem/bandit_party_1","A35C12CR628WKD","either","6","130","","","","","","","0","0","1","0.3211990091","","0.4","0.8","0.2","0.6","","","","","0.3740977319","0.1858821776","0.2135386538","0.3211990091","","","","","","","","","","76","L","3","","","122","main_expt",""
"","bandit","202","511207","0.0-164.0-0.0","88761984","wem/bandit_party_1","A35C12CR628WKD","either","6","196","","","","","","","0","0","1","0.3082515077","","0.4","0.8","0.2","0.6","","","","","0.3617230251","0.1948645322","0.2742148462","0.3082515077","","","","","","","","","","76","L","3","","","123","main_expt",""
"","bandit","203","512929","0.0-165.0-0.0","88761984","wem/bandit_party_1","A35C12CR628WKD","either","6","216","","","","","","","0","0","1","0.3092488957","","0.4","0.8","0.2","0.6","","","","","0.3189133642","0.1875433284","0.3092488957","0.3337980485","","","","","","","","","","75","K","2","","","124","main_expt",""
"","bandit","204","514656","0.0-166.0-0.0","88761984","wem/bandit_party_1","A35C12CR628WKD","either","6","221","","","","","","","0","0","1","","0.2832498899","0.4","0.8","0.2","0.6","0.3134342975","0.1805360773","0.2832498899","0.2815584253","","","","","","","","","","","","","","75","K","2","","","125","main_expt",""
"","bandit","205","516259","0.0-167.0-0.0","88761984","wem/bandit_party_1","A35C12CR628WKD","either","6","98","","","","","","","0","0","1","","0.2199741614","0.4","0.8","0.2","0.6","0.2889117865","0.2199741614","0.321902755","0.2544389989","","","","","","","","","","","","","","74","J","1","","","126","main_expt",""
"","bandit","206","517962","0.0-168.0-0.0","88761984","wem/bandit_party_1","A35C12CR628WKD","either","6","197","","","","","","","0","0","1","0.212963778","","0.4","0.8","0.2","0.6","","","","","0.3101500906","0.212963778","0.3163630435","0.217883989","","","","","","","","","","74","J","1","","","127","main_expt",""
"","bandit","207","519598","0.0-169.0-0.0","88761984","wem/bandit_party_1","A35C12CR628WKD","either","6","131","","","","","","","0","1","0","","0.3257933697","0.4","0.8","0.2","0.6","0.3257933697","0.1853882534","0.3242789072","0.1941215274","","","","","","","","","","","","","","72","H","0","img/none_selected.jpg","","128","main_expt",""
"","bandit","208","521354","0.0-170.0-0.0","88761984","wem/bandit_party_1","A35C12CR628WKD","either","6","251","","","","","","","1","0","0","0.2767822115","","0.4","0.8","0.2","0.6","","","","","0.2767822115","0.1486900389","0.3430844202","0.2093197904","","","","","","","","","","72","H","0","img/none_selected.jpg","","129","main_expt",""
"","bandit","209","523164","0.0-171.0-0.0","88761984","wem/bandit_party_1","A35C12CR628WKD","either","6","304","","","","","","","0","0","1","0.3389859305","","0.4","0.8","0.2","0.6","","","","","0.3389859305","0.1581202816","0.3487272729","0.2325895014","","","","","","","","","","72","H","0","img/none_selected.jpg","","130","main_expt",""
"","bandit","210","524871","0.0-172.0-0.0","88761984","wem/bandit_party_1","A35C12CR628WKD","either","6","201","","","","","","","0","0","1","0.2807576759","","0.4","0.8","0.2","0.6","","","","","0.2807576759","0.1189605486","0.3850752379","0.2680880231","","","","","","","","","","72","H","0","img/none_selected.jpg","","131","main_expt",""
"","bandit","211","526599","0.0-173.0-0.0","88761984","wem/bandit_party_1","A35C12CR628WKD","either","6","222","","","","","","","0","0","1","0.2044414959","","0.4","0.8","0.2","0.6","","","","","0.2044414959","0.08638656351","0.3547422913","0.2053564998","","","","","","","","","","72","H","0","img/none_selected.jpg","","132","main_expt",""
"","bandit","212","528327","0.0-174.0-0.0","88761984","wem/bandit_party_1","A35C12CR628WKD","either","6","220","","","","","","","0","0","1","","0.2352631215","0.4","0.8","0.2","0.6","0.2352631215","0.104542274","0.3256782816","0.2102644512","","","","","","","","","","","","","","72","H","0","img/none_selected.jpg","","133","main_expt",""
"","bandit","213","530089","0.0-175.0-0.0","88761984","wem/bandit_party_1","A35C12CR628WKD","either","6","256","","","","","","","0","0","1","","0.2808822736","0.4","0.8","0.2","0.6","0.2808822736","0.1401790922","0.2479378245","0.2028105977","","","","","","","","","","","","","","72","H","0","img/none_selected.jpg","","134","main_expt",""
"","bandit","214","531835","0.0-176.0-0.0","88761984","wem/bandit_party_1","A35C12CR628WKD","either","6","240","","","","","","","0","0","1","0.3053704558","","0.4","0.8","0.2","0.6","","","","","0.3053704558","0.1818128853","0.24301602","0.1556880781","","","","","","","","","","72","H","0","img/none_selected.jpg","","135","main_expt",""
"","bandit","215","533604","0.0-177.0-0.0","88761984","wem/bandit_party_1","A35C12CR628WKD","either","6","262","","","","","","","0","1","0","","0.3140058771","0.4","0.8","0.2","0.6","0.3140058771","0.1583738081","0.2630427063","0.1428421262","","","","","","","","","","","","","","72","H","0","img/none_selected.jpg","","136","main_expt",""
"","bandit","216","535379","0.0-178.0-0.0","88761984","wem/bandit_party_1","A35C12CR628WKD","either","6","269","","","","","","","0","0","1","0.323699752","","0.4","0.8","0.2","0.6","","","","","0.323699752","0.1497920091","0.3053425806","0.1039390038","","","","","","","","","","72","H","0","img/none_selected.jpg","","137","main_expt",""
"","bandit","217","537112","0.0-179.0-0.0","88761984","wem/bandit_party_1","A35C12CR628WKD","either","6","227","","","","","","","0","0","1","0.3435108126","","0.4","0.8","0.2","0.6","","","","","0.3435108126","0.1128601551","0.3588623722","0.07132433681","","","","","","","","","","72","H","0","img/none_selected.jpg","","138","main_expt",""
"","bandit","218","538842","0.0-180.0-0.0","88761984","wem/bandit_party_1","A35C12CR628WKD","either","6","223","","","","","","","0","1","0","","0.3505637202","0.4","0.8","0.2","0.6","0.3505637202","0.1073604677","0.2762704672","0.1047165976","","","","","","","","","","","","","","72","H","0","img/none_selected.jpg","","139","main_expt",""
"","bandit","219","540696","0.0-181.0-0.0","88761984","wem/bandit_party_1","A35C12CR628WKD","either","6","348","","","","","","","1","0","0","0.4185251601","","0.4","0.8","0.2","0.6","","","","","0.4185251601","0.1376710563","0.2475753012","0.09043849554","","","","","","","","","","72","H","0","img/none_selected.jpg","","140","main_expt",""
"","bandit","220","542309","0.0-182.0-0.0","88761984","wem/bandit_party_1","A35C12CR628WKD","either","6","106","","","","","","","0","1","0","","0.4225289085","0.4","0.8","0.2","0.6","0.4225289085","0.1412662962","0.2436306075","0.05096505815","","","","","","","","","","","","","","72","H","0","img/none_selected.jpg","","141","main_expt",""
"","bandit","221","544011","0.0-183.0-0.0","88761984","wem/bandit_party_1","A35C12CR628WKD","either","6","196","","","","","","","0","0","1","","0.455259632","0.4","0.8","0.2","0.6","0.455259632","0.1543424817","0.1998899021","0.02973759478","","","","","","","","","","","","","","72","H","0","img/none_selected.jpg","","142","main_expt",""
"","bandit","222","545640","0.0-184.0-0.0","88761984","wem/bandit_party_1","A35C12CR628WKD","either","6","122","","","","","","","0","1","0","","0.4287003803","0.4","0.8","0.2","0.6","0.4287003803","0.1552636118","0.2568100034","0.04457260366","","","","","","","","","","","","","","72","H","0","img/none_selected.jpg","","143","main_expt",""
"","bandit","223","547352","0.0-185.0-0.0","88761984","wem/bandit_party_1","A35C12CR628WKD","either","6","205","","","","","","","1","0","0","0.4260506414","","0.4","0.8","0.2","0.6","","","","","0.4260506414","0.2241753426","0.2859833531","0.04060115041","","","","","","","","","","72","H","0","img/none_selected.jpg","","144","main_expt",""
"","bandit","224","549109","0.0-186.0-0.0","88761984","wem/bandit_party_1","A35C12CR628WKD","either","6","251","","","","","","","0","1","0","","0.4202170594","0.4","0.8","0.2","0.6","0.4202170594","0.2484131349","0.2080640158","0.06712401514","","","","","","","","","","","","","","72","H","0","img/none_selected.jpg","","145","main_expt",""
"","bandit","225","550771","0.0-187.0-0.0","88761984","wem/bandit_party_1","A35C12CR628WKD","either","6","158","","","","","","","0","0","1","0.4333226383","","0.4","0.8","0.2","0.6","","","","","0.4333226383","0.2905032103","0.2469639643","0.08780921534","","","","","","","","","","72","H","0","img/none_selected.jpg","","146","main_expt",""
"","bandit","226","552570","0.0-188.0-0.0","88761984","wem/bandit_party_1","A35C12CR628WKD","either","6","291","","","","","","","0","0","1","","0.4340954059","0.4","0.8","0.2","0.6","0.4340954059","0.2846703457","0.2169279296","0.1333368233","","","","","","","","","","","","","","72","H","0","img/none_selected.jpg","","147","main_expt",""
"","bandit","227","554303","0.0-189.0-0.0","88761984","wem/bandit_party_1","A35C12CR628WKD","either","6","228","","","","","","","0","0","1","","0.3903754431","0.4","0.8","0.2","0.6","0.3903754431","0.3010433131","0.1248284812","0.09264147873","","","","","","","","","","","","","","72","H","0","img/none_selected.jpg","","148","main_expt",""
"","bandit","228","556037","0.0-190.0-0.0","88761984","wem/bandit_party_1","A35C12CR628WKD","either","6","227","","","","","","","0","0","1","0.3421268102","","0.4","0.8","0.2","0.6","","","","","0.4161192262","0.3421268102","0.1498862571","0.123708687","","","","","","","","","","74","J","1","","","149","main_expt",""
"","bandit","229","557652","0.0-191.0-0.0","88761984","wem/bandit_party_1","A35C12CR628WKD","either","6","109","","","","","","","0","0","1","","0.2044632824","0.4","0.8","0.2","0.6","0.4545257836","0.3382865341","0.2044632824","0.1087811601","","","","","","","","","","","","","","75","K","2","","","150","main_expt",""
"","bandit","230","559635","0.0-192.0-0.0","88761984","wem/bandit_party_1","A35C12CR628WKD","either","6","476","","","","","","","0","0","1","0.1640336927","","0.4","0.8","0.2","0.6","","","","","0.4553704948","0.3031951358","0.1630699797","0.1640336927","","","","","","","","","","76","L","3","","","151","main_expt",""
"","bandit","231","561480","0.0-193.0-0.0","88761984","wem/bandit_party_1","A35C12CR628WKD","either","6","340","","","","","","","0","0","1","","0.1534962237","0.4","0.8","0.2","0.6","0.4692720684","0.3163498213","0.1534962237","0.1474195158","","","","","","","","","","","","","","75","K","2","","","152","main_expt",""
"","bandit","232","563187","0.0-194.0-0.0","88761984","wem/bandit_party_1","A35C12CR628WKD","either","6","201","","","","","","","1","0","0","0.3205280093","","0.4","0.8","0.2","0.6","","","","","0.4794448159","0.3205280093","0.1506701345","0.1200421148","","","","","","","","","","74","J","1","","","153","main_expt",""
"","bandit","233","564935","0.0-195.0-0.0","88761984","wem/bandit_party_1","A35C12CR628WKD","either","6","242","","","","","","","0","0","1","0.2780981807","","0.4","0.8","0.2","0.6","","","","","0.4762011242","0.2780981807","0.1810992197","0.1295208369","","","","","","","","","","74","J","1","","","154","main_expt",""
"","bandit","234","566716","0.0-196.0-0.0","88761984","wem/bandit_party_1","A35C12CR628WKD","either","6","274","","","","","","","1","0","0","0.2543788853","","0.4","0.8","0.2","0.6","","","","","0.4797315341","0.2543788853","0.2574031695","0.1189574303","","","","","","","","","","74","J","1","","","155","main_expt",""
"","bandit","235","568543","0.0-197.0-0.0","88761984","wem/bandit_party_1","A35C12CR628WKD","either","6","322","","","","","","","1","0","0","0.2601772157","","0.4","0.8","0.2","0.6","","","","","0.4815153028","0.2601772157","0.1838662476","0.1511338071","","","","","","","","","","74","J","1","","","156","main_expt",""
"","bandit","236","570321","0.0-198.0-0.0","88761984","wem/bandit_party_1","A35C12CR628WKD","either","6","271","","","","","","","1","0","0","0.27050514","","0.4","0.8","0.2","0.6","","","","","0.4769669351","0.27050514","0.1951262555","0.1494559257","","","","","","","","","","74","J","1","","","157","main_expt",""
"","bandit","237","572119","0.0-199.0-0.0","88761984","wem/bandit_party_1","A35C12CR628WKD","either","6","292","","","","","","","0","1","0","","0.2912044809","0.4","0.8","0.2","0.6","0.4819637572","0.2912044809","0.1711173681","0.1398300683","","","","","","","","","","","","","","74","J","1","","","158","main_expt",""
"","bandit","238","573856","0.0-200.0-0.0","88761984","wem/bandit_party_1","A35C12CR628WKD","either","6","230","","","","","","","1","0","0","0.2863852675","","0.4","0.8","0.2","0.6","","","","","0.4802617926","0.2863852675","0.1262927185","0.1482700517","","","","","","","","","","74","J","1","","","159","main_expt",""
"","bandit","239","575568","0.0-201.0-0.0","88761984","wem/bandit_party_1","A35C12CR628WKD","either","6","206","","","","","","","0","0","1","","0.3188379944","0.4","0.8","0.2","0.6","0.4834703177","0.3188379944","0.1289005464","0.1327856751","","","","","","","","","","","","","","74","J","1","","","160","main_expt",""
"","bandit","240","577304","0.0-202.0-0.0","88761984","wem/bandit_party_1","A35C12CR628WKD","either","6","229","","","","","","","0","0","1","","0.07062595825","0.4","0.8","0.2","0.6","0.4783639554","0.3918259889","0.07062595825","0.1936248495","","","","","","","","","","","","","","75","K","2","","","161","main_expt",""
"","bandit","241","578879","0.0-203.0-0.0","88761984","wem/bandit_party_1","A35C12CR628WKD","either","6","69","","","","","","","0","0","1","0.08554885259","","0.4","0.8","0.2","0.6","","","","","0.4702379588","0.3825352776","0.08554885259","0.1917288119","","","","","","","","","","75","K","2","","","162","main_expt",""
"","bandit","242","580565","0.0-204.0-0.0","88761984","wem/bandit_party_1","A35C12CR628WKD","either","6","179","","","","","","","0","0","1","0.05790820845","","0.4","0.8","0.2","0.6","","","","","0.4761999765","0.3500114378","0.05790820845","0.2410074379","","","","","","","","","","75","K","2","","","163","main_expt",""
"","bandit","243","582141","0.0-205.0-0.0","88761984","wem/bandit_party_1","A35C12CR628WKD","either","6","70","","","","","","","0","0","1","0.2717164652","","0.4","0.8","0.2","0.6","","","","","0.4683988395","0.3138306729","0.04744410613","0.2717164652","","","","","","","","","","76","L","3","","","164","main_expt",""
"","bandit","244","583684","0.0-206.0-0.0","88761984","wem/bandit_party_1","A35C12CR628WKD","either","6","35","","","","","","","1","0","0","0.3360488911","","0.4","0.8","0.2","0.6","","","","","0.4594806004","0.3066591237","0.07721988326","0.3360488911","","","","","","","","","","76","L","3","","","165","main_expt",""
"","bandit","245","585386","0.0-207.0-0.0","88761984","wem/bandit_party_1","A35C12CR628WKD","either","6","195","","","","","","","1","0","0","0.3288768439","","0.4","0.8","0.2","0.6","","","","","0.4769271284","0.359337808","0.09276645858","0.3288768439","","","","","","","","","","76","L","3","","","166","main_expt",""
"","bandit","246","586968","0.0-208.0-0.0","88761984","wem/bandit_party_1","A35C12CR628WKD","either","6","76","","","","","","","0","0","1","","0.341079324","0.4","0.8","0.2","0.6","0.4824675089","0.3888119778","0.1092251717","0.341079324","","","","","","","","","","","","","","76","L","3","","","167","main_expt",""
"","bandit","247","588674","0.0-209.0-0.0","88761984","wem/bandit_party_1","A35C12CR628WKD","either","6","199","","","","","","","0","0","1","0.2972081376","","0.4","0.8","0.2","0.6","","","","","0.4731218304","0.3188253523","0.09704797424","0.2972081376","","","","","","","","","","76","L","3","","","168","main_expt",""
"","bandit","248","590423","0.0-210.0-0.0","88761984","wem/bandit_party_1","A35C12CR628WKD","either","6","241","","","","","","","1","0","0","0.2716537329","","0.4","0.8","0.2","0.6","","","","","0.4558692975","0.3035082617","0.1131958007","0.2716537329","","","","","","","","","","76","L","3","","","169","main_expt",""
"","bandit","249","592165","0.0-211.0-0.0","88761984","wem/bandit_party_1","A35C12CR628WKD","either","6","236","","","","","","","0","0","1","","0.3705489528","0.4","0.8","0.2","0.6","0.424927817","0.3540810543","0.1636150477","0.3705489528","","","","","","","","","","","","","","76","L","3","","","170","main_expt",""
"","bandit","250","593825","0.0-212.0-0.0","88761984","wem/bandit_party_1","A35C12CR628WKD","either","6","153","","","","","","","0","0","1","","0.3259531709","0.4","0.8","0.2","0.6","0.4254050478","0.2912941695","0.1889182236","0.3259531709","","","","","","","","","","","","","","76","L","3","","","171","main_expt",""
"","bandit","251","595567","0.0-213.0-0.0","88761984","wem/bandit_party_1","A35C12CR628WKD","either","6","235","","","","","","","0","0","1","0.3253578443","","0.4","0.8","0.2","0.6","","","","","0.4319935488","0.2964718019","0.1494540944","0.3253578443","","","","","","","","","","76","L","3","","","172","main_expt",""
"","bandit","252","597403","0.0-214.0-0.0","88761984","wem/bandit_party_1","A35C12CR628WKD","either","6","330","","","","","","","0","0","1","","0.4157756128","0.4","0.8","0.2","0.6","0.4157756128","0.2411205861","0.1700291406","0.3133285256","","","","","","","","","","","","","","72","H","0","img/none_selected.jpg","","173","main_expt",""
"","bandit","253","598950","0.0-215.0-0.0","88761984","wem/bandit_party_1","A35C12CR628WKD","either","6","41","","","","","","","0","0","1","0.3650518631","","0.4","0.8","0.2","0.6","","","","","0.3650518631","0.2132737127","0.2007600912","0.3470844982","","","","","","","","","","72","H","0","img/none_selected.jpg","","174","main_expt",""
"","bandit","254","600762","0.0-216.0-0.0","88761984","wem/bandit_party_1","A35C12CR628WKD","either","6","305","","","","","","","0","0","1","","0.1613291475","0.4","0.8","0.2","0.6","0.3583375904","0.2722172758","0.1613291475","0.3615725976","","","","","","","","","","","","","","75","K","2","","","175","main_expt",""
"","bandit","255","602470","0.0-217.0-0.0","88761984","wem/bandit_party_1","A35C12CR628WKD","either","6","202","","","","","","","0","0","1","","0.1618540135","0.4","0.8","0.2","0.6","0.3849487833","0.3158297255","0.1618540135","0.3592449917","","","","","","","","","","","","","","75","K","2","","","176","main_expt",""
"","bandit","256","604005","0.0-218.0-0.0","88761984","wem/bandit_party_1","A35C12CR628WKD","either","6","28","","","","","","","0","0","1","","0.3033070912","0.4","0.8","0.2","0.6","0.3741193846","0.3033070912","0.1337509382","0.3614776984","","","","","","","","","","","","","","74","J","1","","","177","main_expt",""
"","bandit","257","605596","0.0-219.0-0.0","88761984","wem/bandit_party_1","A35C12CR628WKD","either","6","85","","","","","","","1","0","0","0.3070990366","","0.4","0.8","0.2","0.6","","","","","0.3704436283","0.3070990366","0.172909152","0.4042649322","","","","","","","","","","74","J","1","","","178","main_expt",""
"","bandit","258","607342","0.0-220.0-0.0","88761984","wem/bandit_party_1","A35C12CR628WKD","either","6","239","","","","","","","1","0","0","0.349206168","","0.4","0.8","0.2","0.6","","","","","0.3718647044","0.349206168","0.2306318455","0.3626499081","","","","","","","","","","74","J","1","","","179","main_expt",""
"","bandit","259","609023","0.0-221.0-0.0","88761984","wem/bandit_party_1","A35C12CR628WKD","either","6","175","","","","","","","0","0","1","0.3533593609","","0.4","0.8","0.2","0.6","","","","","0.3144845341","0.3533593609","0.2531752843","0.365831292","","","","","","","","","","74","J","1","","","180","main_expt",""
"","bandit","260","610826","0.0-222.0-0.0","88761984","wem/bandit_party_1","A35C12CR628WKD","either","6","297","","","","","","","0","0","1","0.3792633926","","0.4","0.8","0.2","0.6","","","","","0.3328992573","0.3792633926","0.2995137733","0.3720079561","","","","","","","","","","74","J","1","","","181","main_expt",""
"","bandit","261","612529","0.0-223.0-0.0","88761984","wem/bandit_party_1","A35C12CR628WKD","either","6","195","","","","","","","0","0","1","","0.4170401524","0.4","0.8","0.2","0.6","0.3443004049","0.4170401524","0.2818604164","0.3747751333","","","","","","","","","","","","","","74","J","1","","","182","main_expt",""
"","bandit","262","614287","0.0-224.0-0.0","88761984","wem/bandit_party_1","A35C12CR628WKD","either","6","251","","","","","","","0","0","1","","0.2706787236","0.4","0.8","0.2","0.6","0.3572445505","0.4349898381","0.2706787236","0.3772869326","","","","","","","","","","","","","","75","K","2","","","183","main_expt",""
"","bandit","263","616146","0.0-225.0-0.0","88761984","wem/bandit_party_1","A35C12CR628WKD","either","6","352","","","","","","","1","0","0","0.3719200221","","0.4","0.8","0.2","0.6","","","","","0.358140682","0.4355724899","0.2788381055","0.3719200221","","","","","","","","","","76","L","3","","","184","main_expt",""
"","bandit","264","617871","0.0-226.0-0.0","88761984","wem/bandit_party_1","A35C12CR628WKD","either","6","217","","","","","","","0","1","0","","0.3759280431","0.4","0.8","0.2","0.6","0.2938856532","0.443517249","0.2591604306","0.3759280431","","","","","","","","","","","","","","76","L","3","","","185","main_expt",""
"","bandit","265","619477","0.0-227.0-0.0","88761984","wem/bandit_party_1","A35C12CR628WKD","either","6","99","","","","","","","0","1","0","","0.3686405037","0.4","0.8","0.2","0.6","0.2570442146","0.4185550765","0.1717283936","0.3686405037","","","","","","","","","","","","","","76","L","3","","","186","main_expt",""
"","bandit","266","621196","0.0-228.0-0.0","88761984","wem/bandit_party_1","A35C12CR628WKD","either","6","213","","","","","","","0","0","1","","0.3693778387","0.4","0.8","0.2","0.6","0.2781151114","0.4582246802","0.1399016055","0.3693778387","","","","","","","","","","","","","","76","L","3","","","187","main_expt",""
"","bandit","267","622910","0.0-229.0-0.0","88761984","wem/bandit_party_1","A35C12CR628WKD","either","6","207","","","","","","","0","0","1","0.3858781765","","0.4","0.8","0.2","0.6","","","","","0.2510368257","0.4499637214","0.116743447","0.3858781765","","","","","","","","","","76","L","3","","","188","main_expt",""
"","bandit","268","624642","0.0-230.0-0.0","88761984","wem/bandit_party_1","A35C12CR628WKD","either","6","225","","","","","","","1","0","0","0.353665234","","0.4","0.8","0.2","0.6","","","","","0.2299291889","0.4681283031","0.09810356538","0.353665234","","","","","","","","","","76","L","3","","","189","main_expt",""
"","bandit","269","626386","0.0-231.0-0.0","88761984","wem/bandit_party_1","A35C12CR628WKD","either","6","237","","","","","","","0","0","1","","0.3702546744","0.4","0.8","0.2","0.6","0.2957770397","0.4672384316","0.1333212727","0.3702546744","","","","","","","","","","","","","","76","L","3","","","190","main_expt",""
"","bandit","270","628203","0.0-232.0-0.0","88761984","wem/bandit_party_1","A35C12CR628WKD","either","6","309","","","","","","","0","0","1","","0.3373283559","0.4","0.8","0.2","0.6","0.2806998676","0.4633056668","0.07289491444","0.3373283559","","","","","","","","","","","","","","76","L","3","","","191","main_expt",""
"","bandit","271","629711","0.0-233.0-0.0","88761984","wem/bandit_party_1","A35C12CR628WKD","either","6","0","","","","","","","0","0","1","","0.2578649702","0.4","0.8","0.2","0.6","0.2578649702","0.4701423021","0.09060717316","0.3717228864","","","","","","","","","","","","","","72","H","0","img/none_selected.jpg","","192","main_expt",""
"","bandit","272","631442","0.0-234.0-0.0","88761984","wem/bandit_party_1","A35C12CR628WKD","either","6","224","","","","","","","0","0","1","","0.4625827917","0.4","0.8","0.2","0.6","0.3019093773","0.4625827917","0.1038106097","0.3861484819","","","","","","","","","","","","","","74","J","1","","","193","main_expt",""
"","bandit","273","633107","0.0-235.0-0.0","88761984","wem/bandit_party_1","A35C12CR628WKD","either","6","157","","","","","","","0","0","1","","0.1222204007","0.4","0.8","0.2","0.6","0.3028603149","0.4480064119","0.1222204007","0.3884838939","","","","","","","","","","","","","","75","K","2","","","194","main_expt",""
"","bandit","274","634967","0.0-236.0-0.0","88761984","wem/bandit_party_1","A35C12CR628WKD","either","6","355","","","","","","","0","0","1","","0.2933095063","0.4","0.8","0.2","0.6","0.2933095063","0.4263193963","0.1230179676","0.4058549971","","","","","","","","","","","","","","72","H","0","img/none_selected.jpg","","195","main_expt",""
"","bandit","275","636721","0.0-237.0-0.0","88761984","wem/bandit_party_1","A35C12CR628WKD","either","6","246","","","","","","","0","0","1","0.4399191733","","0.4","0.8","0.2","0.6","","","","","0.3333663608","0.4399191733","0.1972068901","0.3894648227","","","","","","","","","","74","J","1","","","196","main_expt",""
"","bandit","276","638817","0.0-238.0-0.0","88761984","wem/bandit_party_1","A35C12CR628WKD","either","6","587","","","","","","","0","0","1","0.3472763543","","0.4","0.8","0.2","0.6","","","","","0.3472763543","0.4303685687","0.2091218652","0.3452919481","","","","","","","","","","72","H","0","img/none_selected.jpg","","197","main_expt",""
"","bandit","277","640461","0.0-239.0-0.0","88761984","wem/bandit_party_1","A35C12CR628WKD","either","6","138","","","","","","","0","0","1","","0.3420385624","0.4","0.8","0.2","0.6","0.3420385624","0.4166638701","0.2316117542","0.3571156804","","","","","","","","","","","","","","72","H","0","img/none_selected.jpg","","198","main_expt",""
"","bandit","278","642256","0.0-240.0-0.0","88761984","wem/bandit_party_1","A35C12CR628WKD","either","6","286","","","","","","","1","0","0","0.3009927129","","0.4","0.8","0.2","0.6","","","","","0.3009927129","0.4166192342","0.1983173389","0.3761278261","","","","","","","","","","72","H","0","img/none_selected.jpg","","199","main_expt",""
"","bandit","279","643990","0.0-241.0-0.0","88761984","wem/bandit_party_1","A35C12CR628WKD","either","6","227","","","","","","","0","0","1","","0.2834367318","0.4","0.8","0.2","0.6","0.2834367318","0.4065109498","0.2275108597","0.3623939384","","","","","","","","","","","","","","72","H","0","img/none_selected.jpg","","200","main_expt",""
"","bandit","280","645710","0.0-242.0-0.0","88761984","wem/bandit_party_1","A35C12CR628WKD","either","6","213","","","","","","","0","0","1","0.2305195973","","0.4","0.8","0.2","0.6","","","","","0.2305195973","0.4210367682","0.2753755663","0.3470966653","","","","","","","","","","72","H","0","img/none_selected.jpg","","201","main_expt",""
"","bandit","281","647520","0.0-243.0-0.0","88761984","wem/bandit_party_1","A35C12CR628WKD","either","6","303","","","","","","","0","0","1","","0.236439039","0.4","0.8","0.2","0.6","0.236439039","0.4059774394","0.2867984519","0.3738670455","","","","","","","","","","","","","","72","H","0","img/none_selected.jpg","","202","main_expt",""
"","bandit","282","649430","0.0-244.0-0.0","88761984","wem/bandit_party_1","A35C12CR628WKD","either","6","403","","","","","","","0","0","1","","0.227681123","0.4","0.8","0.2","0.6","0.207292508","0.4217634448","0.227681123","0.4434414113","","","","","","","","","","","","","","75","K","2","","","203","main_expt",""
"","bandit","283","651142","0.0-245.0-0.0","88761984","wem/bandit_party_1","A35C12CR628WKD","either","6","206","","","","","","","1","0","0","0.4363530878","","0.4","0.8","0.2","0.6","","","","","0.2706274655","0.417590799","0.2421814767","0.4363530878","","","","","","","","","","76","L","3","","","204","main_expt",""
"","bandit","284","652920","0.0-246.0-0.0","88761984","wem/bandit_party_1","A35C12CR628WKD","either","6","271","","","","","","","0","1","0","","0.4390009565","0.4","0.8","0.2","0.6","0.2688171721","0.3892328218","0.2250127273","0.4390009565","","","","","","","","","","","","","","76","L","3","","","205","main_expt",""
"","bandit","285","654470","0.0-247.0-0.0","88761984","wem/bandit_party_1","A35C12CR628WKD","either","6","42","","","","","","","0","1","0","","0.4606838579","0.4","0.8","0.2","0.6","0.2774640617","0.3877758809","0.2148063869","0.4606838579","","","","","","","","","","","","","","76","L","3","","","206","main_expt",""
"","bandit","286","656157","0.0-248.0-0.0","88761984","wem/bandit_party_1","A35C12CR628WKD","either","6","181","","","","","","","0","1","0","","0.4679198071","0.4","0.8","0.2","0.6","0.31303597","0.3344078408","0.2370073307","0.4679198071","","","","","","","","","","","","","","76","L","3","","","207","main_expt",""
"","bandit","287","657810","0.0-249.0-0.0","88761984","wem/bandit_party_1","A35C12CR628WKD","either","6","145","","","","","","","0","1","0","","0.4731710197","0.4","0.8","0.2","0.6","0.3187850143","0.3285414067","0.1736764344","0.4731710197","","","","","","","","","","","","","","76","L","3","","","208","main_expt",""
"","bandit","288","659508","0.0-250.0-0.0","88761984","wem/bandit_party_1","A35C12CR628WKD","either","6","191","","","","","","","0","0","1","","0.472507437","0.4","0.8","0.2","0.6","0.3031297305","0.337659841","0.2033963155","0.472507437","","","","","","","","","","","","","","76","L","3","","","209","main_expt",""
"","bandit","289","661226","0.0-251.0-0.0","88761984","wem/bandit_party_1","A35C12CR628WKD","either","6","210","","","","","","","0","0","1","0.4759946166","","0.4","0.8","0.2","0.6","","","","","0.3593083662","0.322880172","0.1849029676","0.4759946166","","","","","","","","","","76","L","3","","","210","main_expt",""
"","bandit","290","662995","0.0-252.0-0.0","88761984","wem/bandit_party_1","A35C12CR628WKD","either","6","262","","","","","","","0","1","0","","0.3440981268","0.4","0.8","0.2","0.6","0.3758292662","0.3440981268","0.08033524441","0.4838002785","","","","","","","","","","","","","","74","J","1","","","211","main_expt",""
"","bandit","291","664820","0.0-253.0-0.0","88761984","wem/bandit_party_1","A35C12CR628WKD","either","6","318","","","","","","","0","1","0","","0.3135232579","0.4","0.8","0.2","0.6","0.3771764803","0.3135232579","0.1024936548","0.4871609062","","","","","","","","","","","","","","74","J","1","","","212","main_expt",""
"","bandit","292","666698","0.0-254.0-0.0","88761984","wem/bandit_party_1","A35C12CR628WKD","either","6","373","","","","","","","0","0","1","","0.328558382","0.4","0.8","0.2","0.6","0.3935517348","0.328558382","0.1380366818","0.4829725273","","","","","","","","","","","","","","74","J","1","","","213","main_expt",""
"","bandit","293","668485","0.0-255.0-0.0","88761984","wem/bandit_party_1","A35C12CR628WKD","either","6","278","","","","","","","0","0","1","","0.3024402918","0.4","0.8","0.2","0.6","0.3792377037","0.3024402918","0.1206441992","0.4742933803","","","","","","","","","","","","","","74","J","1","","","214","main_expt",""
"","bandit","294","670227","0.0-256.0-0.0","88761984","wem/bandit_party_1","A35C12CR628WKD","either","6","234","","","","","","","0","0","1","","0.1320715796","0.4","0.8","0.2","0.6","0.3364308411","0.3024001881","0.1320715796","0.4754417465","","","","","","","","","","","","","","75","K","2","","","215","main_expt",""
"","bandit","295","671735","0.0-257.0-0.0","88761984","wem/bandit_party_1","A35C12CR628WKD","either","6","1","","","","","","","0","0","1","","0.1152906885","0.4","0.8","0.2","0.6","0.3348871659","0.2975117226","0.1152906885","0.4764866221","","","","","","","","","","","","","","75","K","2","","","216","main_expt",""
"","bandit","296","673556","0.0-258.0-0.0","88761984","wem/bandit_party_1","A35C12CR628WKD","either","6","315","","","","","","","0","0","1","0.1191406027","","0.4","0.8","0.2","0.6","","","","","0.321293363","0.3331298207","0.1191406027","0.4727866334","","","","","","","","","","75","K","2","","","217","main_expt",""
"","bandit","297","675248","0.0-259.0-0.0","88761984","wem/bandit_party_1","A35C12CR628WKD","either","6","184","","","","","","","0","0","1","0.1177717736","","0.4","0.8","0.2","0.6","","","","","0.3530973922","0.2905667849","0.1177717736","0.4664653133","","","","","","","","","","75","K","2","","","218","main_expt",""
"","bandit","298","677007","0.0-260.0-0.0","88761984","wem/bandit_party_1","A35C12CR628WKD","either","6","252","","","","","","","0","1","0","","0.3837093308","0.4","0.8","0.2","0.6","0.3837093308","0.2701708387","0.1178729669","0.4636837267","","","","","","","","","","","","","","72","H","0","img/none_selected.jpg","","219","main_expt",""
"","bandit","299","678705","0.0-261.0-0.0","88761984","wem/bandit_party_1","A35C12CR628WKD","either","6","191","","","","","","","0","0","1","0.3651541458","","0.4","0.8","0.2","0.6","","","","","0.3651541458","0.2395453957","0.1284790336","0.4599900571","","","","","","","","","","72","H","0","img/none_selected.jpg","","220","main_expt",""
"","bandit","300","680424","0.0-262.0-0.0","88761984","wem/bandit_party_1","A35C12CR628WKD","either","6","211","","","","","","","0","0","1","0.254085412","","0.4","0.8","0.2","0.6","","","","","0.254085412","0.2770622605","0.147465279","0.4490722186","","","","","","","","","","72","H","0","img/none_selected.jpg","","221","main_expt",""
"","bandit","301","682231","0.0-263.0-0.0","88761984","wem/bandit_party_1","A35C12CR628WKD","either","6","300","","","","","","","0","0","1","0.3390746663","","0.4","0.8","0.2","0.6","","","","","0.2590796483","0.3390746663","0.1441925756","0.4253353094","","","","","","","","","","74","J","1","","","222","main_expt",""
"","bandit","302","683978","0.0-264.0-0.0","88761984","wem/bandit_party_1","A35C12CR628WKD","either","6","241","","","","","","","0","0","1","","0.4559825987","0.4","0.8","0.2","0.6","0.2640852941","0.384843876","0.1731110736","0.4559825987","","","","","","","","","","","","","","76","L","3","","","223","main_expt",""
"","bandit","303","685520","0.0-265.0-0.0","88761984","wem/bandit_party_1","A35C12CR628WKD","either","6","34","","","","","","","0","0","1","0.464560515","","0.4","0.8","0.2","0.6","","","","","0.2636590797","0.4367619307","0.1124600034","0.464560515","","","","","","","","","","76","L","3","","","224","main_expt",""
"","bandit","304","687083","0.0-266.0-0.0","88761984","wem/bandit_party_1","A35C12CR628WKD","either","6","55","","","","","","","0","0","1","","0.1174510337","0.4","0.8","0.2","0.6","0.3110444069","0.42055701","0.1174510337","0.4528378766","","","","","","","","","","","","","","75","K","2","","","225","main_expt",""
"","bandit","305","688712","0.0-267.0-0.0","88761984","wem/bandit_party_1","A35C12CR628WKD","either","6","122","","","","","","","0","0","1","","0.1494320736","0.4","0.8","0.2","0.6","0.3268768972","0.4282593698","0.1494320736","0.4585160156","","","","","","","","","","","","","","75","K","2","","","226","main_expt",""
"","bandit","306","690508","0.0-268.0-0.0","88761984","wem/bandit_party_1","A35C12CR628WKD","either","6","289","","","","","","","1","0","0","0.3112991039","","0.4","0.8","0.2","0.6","","","","","0.3112991039","0.4213985596","0.1655037845","0.4525914875","","","","","","","","","","72","H","0","img/none_selected.jpg","","227","main_expt",""
"","bandit","307","692092","0.0-269.0-0.0","88761984","wem/bandit_party_1","A35C12CR628WKD","either","6","76","","","","","","","0","1","0","","0.3481066565","0.4","0.8","0.2","0.6","0.3481066565","0.4115599459","0.1595877114","0.4618810074","","","","","","","","","","","","","","72","H","0","img/none_selected.jpg","","228","main_expt",""
"","bandit","308","693758","0.0-270.0-0.0","88761984","wem/bandit_party_1","A35C12CR628WKD","either","6","159","","","","","","","0","0","1","0.3267856819","","0.4","0.8","0.2","0.6","","","","","0.3267856819","0.375967734","0.1811982871","0.4661541784","","","","","","","","","","72","H","0","img/none_selected.jpg","","229","main_expt",""
"","bandit","309","695391","0.0-271.0-0.0","88761984","wem/bandit_party_1","A35C12CR628WKD","either","6","125","","","","","","","1","0","0","0.3043034776","","0.4","0.8","0.2","0.6","","","","","0.3043034776","0.4172813036","0.2088208598","0.4681373403","","","","","","","","","","72","H","0","img/none_selected.jpg","","230","main_expt",""
"","bandit","310","697124","0.0-272.0-0.0","88761984","wem/bandit_party_1","A35C12CR628WKD","either","6","226","","","","","","","0","0","1","0.3127123154","","0.4","0.8","0.2","0.6","","","","","0.3127123154","0.3871641603","0.2062946352","0.4733838814","","","","","","","","","","72","H","0","img/none_selected.jpg","","231","main_expt",""
"","bandit","311","699119","0.0-273.0-0.0","88761984","wem/bandit_party_1","A35C12CR628WKD","either","6","487","","","","","","","1","0","0","0.3039198066","","0.4","0.8","0.2","0.6","","","","","0.3039198066","0.3381606844","0.1448621505","0.455942125","","","","","","","","","","72","H","0","img/none_selected.jpg","","232","main_expt",""
"","bandit","312","700992","0.0-274.0-0.0","88761984","wem/bandit_party_1","A35C12CR628WKD","either","6","365","","","","","","","0","0","1","","0.2846072758","0.4","0.8","0.2","0.6","0.2846072758","0.2918198365","0.1096360744","0.4523014459","","","","","","","","","","","","","","72","H","0","img/none_selected.jpg","","233","main_expt",""
"","bandit","313","702722","0.0-275.0-0.0","88761984","wem/bandit_party_1","A35C12CR628WKD","either","6","222","","","","","","","0","0","1","0.2430061478","","0.4","0.8","0.2","0.6","","","","","0.2430061478","0.3016980071","0.1102272527","0.4715877437","","","","","","","","","","72","H","0","img/none_selected.jpg","","234","main_expt",""
"","bandit","314","704294","0.0-276.0-0.0","88761984","wem/bandit_party_1","A35C12CR628WKD","either","6","66","","","","","","","0","0","1","0.2940059945","","0.4","0.8","0.2","0.6","","","","","0.263037213","0.2940059945","0.1428859574","0.4667146267","","","","","","","","","","74","J","1","","","235","main_expt",""
"","bandit","315","706051","0.0-277.0-0.0","88761984","wem/bandit_party_1","A35C12CR628WKD","either","6","250","","","","","","","0","0","1","0.2926833733","","0.4","0.8","0.2","0.6","","","","","0.2976510001","0.2926833733","0.1659437887","0.4638430617","","","","","","","","","","74","J","1","","","236","main_expt",""
