"consent","trial_type","trial_index","time_elapsed","internal_node_id","subjID","study","MID","cond","drift","rt","responses","button_pressed","key_press","like","value","connected","gems","bombs","no_reward","GemPrChosen","BombPrChosen","GainOverPainPr_0","GainOverPainPr_1","GainOverPainPr_2","GainOverPainPr_3","LosePr_0","LosePr_1","LosePr_2","LosePr_3","WinPr_0","WinPr_1","WinPr_2","WinPr_3","Q0","Q1","Q2","gender","age","ethnicity","label","expt_phase","target","respCharCode","respKey","respChoiceNum","respChoice","practice","trial_counter","trial_label","Q0_index"
"GDM/GDM_behavioral_consent_30min_online.html","consent","0","82461","0.0-0.0","90762284","wem/bandit_party_1","A33FA1VLSTBM74","either","2","","","","","","","","","","","","","","","","","","","","","","","","","","","","","","","","","","","","","","","","",""
"","survey-text","1","91204","0.0-1.0","90762284","wem/bandit_party_1","A33FA1VLSTBM74","either","2","7714","{""Q0"":""A33FA1VLSTBM74""}","","","","","","","","","","","","","","","","","","","","","","","","","","","","","","","","","","","","","","",""
"","button-response","2","94223","0.0-2.0","90762284","wem/bandit_party_1","A33FA1VLSTBM74","either","2","2004","","1","","","","","","","","","","","","","","","","","","","","","","","","","","","","","","","","","","","","","",""
"","text-replacement","3","107257","0.0-3.0","90762284","wem/bandit_party_1","A33FA1VLSTBM74","either","2","12019","","","32","","","","","","","","","","","","","","","","","","","","","","","","","","","","","","","","","","","","",""
"","text-replacement","4","118572","0.0-4.0","90762284","wem/bandit_party_1","A33FA1VLSTBM74","either","2","11307","","","32","","","","","","","","","","","","","","","","","","","","","","","","","","","","","","","","","","","","",""
"","identification","5","133702","0.0-6.0-0.0","90762284","wem/bandit_party_1","A33FA1VLSTBM74","either","2","15082","","","","2","4","1","","","","","","","","","","","","","","","","","","","","","","","","pre","identification_pre","the Republican party","","","","","","","",""
"","identification","6","144179","0.0-6.0-1.0","90762284","wem/bandit_party_1","A33FA1VLSTBM74","either","2","9441","","","","3","4","3","","","","","","","","","","","","","","","","","","","","","","","","pre","identification_pre","the Democratic Party","","","","","","","",""
"","text-replacement","7","151419","0.0-7.0","90762284","wem/bandit_party_1","A33FA1VLSTBM74","either","2","6234","","","32","","","","","","","","","","","","","","","","","","","","","","","","","","","","","","","","","","","","",""
"","text-replacement","8","159181","0.0-8.0","90762284","wem/bandit_party_1","A33FA1VLSTBM74","either","2","7753","","","32","","","","","","","","","","","","","","","","","","","","","","","","","","","","","","","","","","","","",""
"","text-replacement","9","172623","0.0-9.0","90762284","wem/bandit_party_1","A33FA1VLSTBM74","either","2","13432","","","32","","","","","","","","","","","","","","","","","","","","","","","","","","","","","","","","","","","","",""
"","text-replacement","10","178477","0.0-10.0","90762284","wem/bandit_party_1","A33FA1VLSTBM74","either","2","5847","","","32","","","","","","","","","","","","","","","","","","","","","","","","","","","","","","","","","","","","",""
"","text-replacement","11","183467","0.0-11.0","90762284","wem/bandit_party_1","A33FA1VLSTBM74","either","2","4984","","","32","","","","","","","","","","","","","","","","","","","","","","","","","","","","","","","","","","","","",""
"","bandit","12","187130","0.0-12.0-0.0","90762284","wem/bandit_party_1","A33FA1VLSTBM74","either","2","2137","","","","","","","0","0","1","0","0","","","","","0","","","","0","","","","","","","","","","","","","74","J","0","img/none_selected_demo.jpg","true","0","",""
"","bandit","13","190260","0.0-13.0-0.0","90762284","wem/bandit_party_1","A33FA1VLSTBM74","either","2","1613","","","","","","","0","0","1","0","0","","","","","0","","","","0","","","","","","","","","","","","","75","K","0","img/none_selected_demo.jpg","true","0","",""
"","text-replacement","14","198258","0.0-14.0","90762284","wem/bandit_party_1","A33FA1VLSTBM74","either","2","7992","","","32","","","","","","","","","","","","","","","","","","","","","","","","","","","","","","","","","","","","",""
"","text-replacement","15","205789","0.0-15.0","90762284","wem/bandit_party_1","A33FA1VLSTBM74","either","2","7526","","","32","","","","","","","","","","","","","","","","","","","","","","","","","","","","","","","","","","","","",""
"","text-replacement","16","214529","0.0-16.0","90762284","wem/bandit_party_1","A33FA1VLSTBM74","either","2","8734","","","32","","","","","","","","","","","","","","","","","","","","","","","","","","","","","","","","","","","","",""
"","text-replacement","17","222483","0.0-17.0","90762284","wem/bandit_party_1","A33FA1VLSTBM74","either","2","7947","","","32","","","","","","","","","","","","","","","","","","","","","","","","","","","","","","","","","","","","",""
"","bandit","18","224859","0.0-18.0-0.0","90762284","wem/bandit_party_1","A33FA1VLSTBM74","either","2","860","","","","","","","0","0","1","","0.8","0.5","0.5","","","0.8","0.2","","","","","","","","","","","","","","","","74","J","0","img/none_selected_demo.jpg","true","0","80_20_practice",""
"","bandit","19","227442","0.0-18.0-1.0","90762284","wem/bandit_party_1","A33FA1VLSTBM74","either","2","1060","","","","","","","0","0","1","","0.2","0.5","0.5","","","0.8","0.2","","","","","","","","","","","","","","","","75","K","1","","true","0","80_20_practice",""
"","bandit","20","229597","0.0-18.0-2.0","90762284","wem/bandit_party_1","A33FA1VLSTBM74","either","2","631","","","","","","","1","0","0","0.2","","0.5","0.5","","","","","","","0.8","0.2","","","","","","","","","","","","75","K","1","","true","0","80_20_practice",""
"","bandit","21","231741","0.0-18.0-3.0","90762284","wem/bandit_party_1","A33FA1VLSTBM74","either","2","626","","","","","","","1","0","0","0.8","","0.5","0.5","","","","","","","0.8","0.2","","","","","","","","","","","","74","J","0","img/none_selected_demo.jpg","true","0","80_20_practice",""
"","bandit","22","234097","0.0-18.0-4.0","90762284","wem/bandit_party_1","A33FA1VLSTBM74","either","2","831","","","","","","","1","0","0","0.8","","0.5","0.5","","","","","","","0.8","0.2","","","","","","","","","","","","74","J","0","img/none_selected_demo.jpg","true","0","80_20_practice",""
"","bandit","23","236183","0.0-18.0-5.0","90762284","wem/bandit_party_1","A33FA1VLSTBM74","either","2","568","","","","","","","0","0","1","","0.2","0.5","0.5","","","0.8","0.2","","","","","","","","","","","","","","","","75","K","1","","true","0","80_20_practice",""
"","bandit","24","238663","0.0-18.0-6.0","90762284","wem/bandit_party_1","A33FA1VLSTBM74","either","2","963","","","","","","","0","0","1","","0.2","0.5","0.5","","","0.8","0.2","","","","","","","","","","","","","","","","75","K","1","","true","0","80_20_practice",""
"","bandit","25","240927","0.0-18.0-7.0","90762284","wem/bandit_party_1","A33FA1VLSTBM74","either","2","744","","","","","","","0","1","0","","0.8","0.5","0.5","","","0.8","0.2","","","","","","","","","","","","","","","","74","J","0","img/none_selected_demo.jpg","true","0","80_20_practice",""
"","bandit","26","243827","0.0-18.0-8.0","90762284","wem/bandit_party_1","A33FA1VLSTBM74","either","2","1379","","","","","","","0","0","1","","0.8","0.5","0.5","","","0.8","0.2","","","","","","","","","","","","","","","","74","J","0","img/none_selected_demo.jpg","true","0","80_20_practice",""
"","bandit","27","245735","0.0-18.0-9.0","90762284","wem/bandit_party_1","A33FA1VLSTBM74","either","2","381","","","","","","","0","0","1","","0.8","0.5","0.5","","","0.8","0.2","","","","","","","","","","","","","","","","74","J","0","img/none_selected_demo.jpg","true","0","80_20_practice",""
"","bandit","28","247631","0.0-18.0-10.0","90762284","wem/bandit_party_1","A33FA1VLSTBM74","either","2","375","","","","","","","0","0","1","0.2","","0.5","0.5","","","","","","","0.8","0.2","","","","","","","","","","","","75","K","1","","true","0","80_20_practice",""
"","bandit","29","249525","0.0-18.0-11.0","90762284","wem/bandit_party_1","A33FA1VLSTBM74","either","2","375","","","","","","","0","0","1","0.2","","0.5","0.5","","","","","","","0.8","0.2","","","","","","","","","","","","75","K","1","","true","0","80_20_practice",""
"","bandit","30","251557","0.0-18.0-12.0","90762284","wem/bandit_party_1","A33FA1VLSTBM74","either","2","511","","","","","","","0","0","1","0.2","","0.5","0.5","","","","","","","0.8","0.2","","","","","","","","","","","","75","K","1","","true","0","80_20_practice",""
"","bandit","31","253494","0.0-18.0-13.0","90762284","wem/bandit_party_1","A33FA1VLSTBM74","either","2","413","","","","","","","1","0","0","0.8","","0.5","0.5","","","","","","","0.8","0.2","","","","","","","","","","","","74","J","0","img/none_selected_demo.jpg","true","0","80_20_practice",""
"","bandit","32","255411","0.0-18.0-14.0","90762284","wem/bandit_party_1","A33FA1VLSTBM74","either","2","394","","","","","","","0","1","0","","0.8","0.5","0.5","","","0.8","0.2","","","","","","","","","","","","","","","","74","J","0","img/none_selected_demo.jpg","true","0","80_20_practice",""
"","bandit","33","257554","0.0-18.0-15.0","90762284","wem/bandit_party_1","A33FA1VLSTBM74","either","2","617","","","","","","","1","0","0","0.8","","0.5","0.5","","","","","","","0.8","0.2","","","","","","","","","","","","74","J","0","img/none_selected_demo.jpg","true","0","80_20_practice",""
"","bandit","34","259551","0.0-18.0-16.0","90762284","wem/bandit_party_1","A33FA1VLSTBM74","either","2","469","","","","","","","0","0","1","","0.8","0.5","0.5","","","0.8","0.2","","","","","","","","","","","","","","","","74","J","0","img/none_selected_demo.jpg","true","0","80_20_practice",""
"","bandit","35","261651","0.0-18.0-17.0","90762284","wem/bandit_party_1","A33FA1VLSTBM74","either","2","573","","","","","","","1","0","0","0.8","","0.5","0.5","","","","","","","0.8","0.2","","","","","","","","","","","","74","J","0","img/none_selected_demo.jpg","true","0","80_20_practice",""
"","bandit","36","263652","0.0-18.0-18.0","90762284","wem/bandit_party_1","A33FA1VLSTBM74","either","2","478","","","","","","","0","0","1","","0.8","0.5","0.5","","","0.8","0.2","","","","","","","","","","","","","","","","74","J","0","img/none_selected_demo.jpg","true","0","80_20_practice",""
"","bandit","37","265585","0.0-18.0-19.0","90762284","wem/bandit_party_1","A33FA1VLSTBM74","either","2","412","","","","","","","1","0","0","0.8","","0.5","0.5","","","","","","","0.8","0.2","","","","","","","","","","","","74","J","0","img/none_selected_demo.jpg","true","0","80_20_practice",""
"","text-replacement","38","272587","0.0-19.0","90762284","wem/bandit_party_1","A33FA1VLSTBM74","either","2","6993","","","32","","","","","","","","","","","","","","","","","","","","","","","","","","","","","","","","","","","","",""
"","bandit","39","275688","0.0-20.0-0.0","90762284","wem/bandit_party_1","A33FA1VLSTBM74","either","2","1577","","","","","","","1","0","0","1","0","","","","","0","1","","","1","0","","","","","","","","","","","","74","J","0","img/none_selected_demo.jpg","true","0","",""
"","text-replacement","40","283185","0.0-21.0","90762284","wem/bandit_party_1","A33FA1VLSTBM74","either","2","7485","","","32","","","","","","","","","","","","","","","","","","","","","","","","","","","","","","","","","","","","",""
"","text-replacement","41","287183","0.0-22.0","90762284","wem/bandit_party_1","A33FA1VLSTBM74","either","2","3990","","","32","","","","","","","","","","","","","","","","","","","","","","","","","","","","","","","","","","","","",""
"","text-replacement","42","291161","0.0-23.0","90762284","wem/bandit_party_1","A33FA1VLSTBM74","either","2","3970","","","32","","","","","","","","","","","","","","","","","","","","","","","","","","","","","","","","","","","","",""
"","text-replacement","43","297642","0.0-24.0","90762284","wem/bandit_party_1","A33FA1VLSTBM74","either","2","6474","","","32","","","","","","","","","","","","","","","","","","","","","","","","","","","","","","","","","","","","",""
"","text-replacement","44","309776","0.0-25.0","90762284","wem/bandit_party_1","A33FA1VLSTBM74","either","2","12130","","","32","","","","","","","","","","","","","","","","","","","","","","","","","","","","","","","","","","","","",""
"","text-replacement","45","324307","0.0-26.0","90762284","wem/bandit_party_1","A33FA1VLSTBM74","either","2","14521","","","32","","","","","","","","","","","","","","","","","","","","","","","","","","","","","","","","","","","","",""
"","text-replacement","46","338747","0.0-27.0","90762284","wem/bandit_party_1","A33FA1VLSTBM74","either","2","14430","","","32","","","","","","","","","","","","","","","","","","","","","","","","","","","","","","","","","","","","",""
"","text-replacement","47","351192","0.0-28.0","90762284","wem/bandit_party_1","A33FA1VLSTBM74","either","2","12438","","","32","","","","","","","","","","","","","","","","","","","","","","","","","","","","","","","","","","","","",""
"","text-replacement","48","356124","0.0-29.0","90762284","wem/bandit_party_1","A33FA1VLSTBM74","either","2","4925","","","32","","","","","","","","","","","","","","","","","","","","","","","","","","","","","","","","","","","","",""
"","text-replacement","49","359733","0.0-30.0","90762284","wem/bandit_party_1","A33FA1VLSTBM74","either","2","3601","","","32","","","","","","","","","","","","","","","","","","","","","","","","","","","","","","","","","","","","",""
"","text-replacement","50","367060","0.0-31.0","90762284","wem/bandit_party_1","A33FA1VLSTBM74","either","2","7317","","","32","","","","","","","","","","","","","","","","","","","","","","","","","","","","","","","","","","","","",""
"","bandit","51","370210","0.0-32.0-0.0","90762284","wem/bandit_party_1","A33FA1VLSTBM74","either","2","1631","","","","","","","0","1","0","","0.8","0.5","0.5","0.5","0.5","0.8","0.2","0.6","0.2","","","","","","","","","","","","","","72","H","0","img/none_selected.jpg","true","0","full_practice",""
"","bandit","52","372100","0.0-32.0-1.0","90762284","wem/bandit_party_1","A33FA1VLSTBM74","either","2","370","","","","","","","0","0","1","0.2","","0.5","0.5","0.5","0.5","","","","","0.8","0.2","0.6","0.2","","","","","","","","","","74","J","1","","true","0","full_practice",""
"","bandit","53","373725","0.0-32.0-2.0","90762284","wem/bandit_party_1","A33FA1VLSTBM74","either","2","101","","","","","","","0","0","1","","0.6","0.5","0.5","0.5","0.5","0.8","0.2","0.6","0.2","","","","","","","","","","","","","","75","K","2","","true","0","full_practice",""
"","bandit","54","378713","0.0-32.0-3.0","90762284","wem/bandit_party_1","A33FA1VLSTBM74","either","2","3456","","","","","","","0","0","1","0.2","","0.5","0.5","0.5","0.5","","","","","0.8","0.2","0.6","0.2","","","","","","","","","","76","L","3","","true","0","full_practice",""
"","bandit","55","380772","0.0-32.0-4.0","90762284","wem/bandit_party_1","A33FA1VLSTBM74","either","2","539","","","","","","","0","0","1","0.8","","0.5","0.5","0.5","0.5","","","","","0.8","0.2","0.6","0.2","","","","","","","","","","72","H","0","img/none_selected.jpg","true","0","full_practice",""
"","bandit","56","382608","0.0-32.0-5.0","90762284","wem/bandit_party_1","A33FA1VLSTBM74","either","2","310","","","","","","","1","0","0","0.2","","0.5","0.5","0.5","0.5","","","","","0.8","0.2","0.6","0.2","","","","","","","","","","74","J","1","","true","0","full_practice",""
"","bandit","57","384397","0.0-32.0-6.0","90762284","wem/bandit_party_1","A33FA1VLSTBM74","either","2","268","","","","","","","1","0","0","0.6","","0.5","0.5","0.5","0.5","","","","","0.8","0.2","0.6","0.2","","","","","","","","","","75","K","2","","true","0","full_practice",""
"","bandit","58","386480","0.0-32.0-7.0","90762284","wem/bandit_party_1","A33FA1VLSTBM74","either","2","557","","","","","","","0","0","1","","0.2","0.5","0.5","0.5","0.5","0.8","0.2","0.6","0.2","","","","","","","","","","","","","","76","L","3","","true","0","full_practice",""
"","bandit","59","388668","0.0-32.0-8.0","90762284","wem/bandit_party_1","A33FA1VLSTBM74","either","2","665","","","","","","","1","0","0","0.8","","0.5","0.5","0.5","0.5","","","","","0.8","0.2","0.6","0.2","","","","","","","","","","72","H","0","img/none_selected.jpg","true","0","full_practice",""
"","bandit","60","390788","0.0-32.0-9.0","90762284","wem/bandit_party_1","A33FA1VLSTBM74","either","2","591","","","","","","","0","0","1","0.2","","0.5","0.5","0.5","0.5","","","","","0.8","0.2","0.6","0.2","","","","","","","","","","74","J","1","","true","0","full_practice",""
"","bandit","61","392507","0.0-32.0-10.0","90762284","wem/bandit_party_1","A33FA1VLSTBM74","either","2","196","","","","","","","0","1","0","","0.6","0.5","0.5","0.5","0.5","0.8","0.2","0.6","0.2","","","","","","","","","","","","","","75","K","2","","true","0","full_practice",""
"","bandit","62","394457","0.0-32.0-11.0","90762284","wem/bandit_party_1","A33FA1VLSTBM74","either","2","426","","","","","","","0","0","1","","0.2","0.5","0.5","0.5","0.5","0.8","0.2","0.6","0.2","","","","","","","","","","","","","","76","L","3","","true","0","full_practice",""
"","bandit","63","396444","0.0-32.0-12.0","90762284","wem/bandit_party_1","A33FA1VLSTBM74","either","2","464","","","","","","","0","1","0","","0.8","0.5","0.5","0.5","0.5","0.8","0.2","0.6","0.2","","","","","","","","","","","","","","72","H","0","img/none_selected.jpg","true","0","full_practice",""
"","bandit","64","398350","0.0-32.0-13.0","90762284","wem/bandit_party_1","A33FA1VLSTBM74","either","2","382","","","","","","","1","0","0","0.8","","0.5","0.5","0.5","0.5","","","","","0.8","0.2","0.6","0.2","","","","","","","","","","72","H","0","img/none_selected.jpg","true","0","full_practice",""
"","bandit","65","400223","0.0-32.0-14.0","90762284","wem/bandit_party_1","A33FA1VLSTBM74","either","2","348","","","","","","","0","1","0","","0.8","0.5","0.5","0.5","0.5","0.8","0.2","0.6","0.2","","","","","","","","","","","","","","72","H","0","img/none_selected.jpg","true","0","full_practice",""
"","bandit","66","402182","0.0-32.0-15.0","90762284","wem/bandit_party_1","A33FA1VLSTBM74","either","2","437","","","","","","","1","0","0","0.8","","0.5","0.5","0.5","0.5","","","","","0.8","0.2","0.6","0.2","","","","","","","","","","72","H","0","img/none_selected.jpg","true","0","full_practice",""
"","bandit","67","404048","0.0-32.0-16.0","90762284","wem/bandit_party_1","A33FA1VLSTBM74","either","2","344","","","","","","","0","1","0","","0.8","0.5","0.5","0.5","0.5","0.8","0.2","0.6","0.2","","","","","","","","","","","","","","72","H","0","img/none_selected.jpg","true","0","full_practice",""
"","bandit","68","405940","0.0-32.0-17.0","90762284","wem/bandit_party_1","A33FA1VLSTBM74","either","2","367","","","","","","","0","1","0","","0.8","0.5","0.5","0.5","0.5","0.8","0.2","0.6","0.2","","","","","","","","","","","","","","72","H","0","img/none_selected.jpg","true","0","full_practice",""
"","bandit","69","407656","0.0-32.0-18.0","90762284","wem/bandit_party_1","A33FA1VLSTBM74","either","2","190","","","","","","","1","0","0","0.8","","0.5","0.5","0.5","0.5","","","","","0.8","0.2","0.6","0.2","","","","","","","","","","72","H","0","img/none_selected.jpg","true","0","full_practice",""
"","bandit","70","409513","0.0-32.0-19.0","90762284","wem/bandit_party_1","A33FA1VLSTBM74","either","2","334","","","","","","","1","0","0","0.8","","0.5","0.5","0.5","0.5","","","","","0.8","0.2","0.6","0.2","","","","","","","","","","72","H","0","img/none_selected.jpg","true","0","full_practice",""
"","text","71","414826","0.0-33.0","90762284","wem/bandit_party_1","A33FA1VLSTBM74","either","2","5278","","","32","","","","","","","","","","","","","","","","","","","","","","","","","","","","","","","","","","","","",""
"","text-replacement","72","432589","0.0-34.0","90762284","wem/bandit_party_1","A33FA1VLSTBM74","either","2","16750","","","32","","","","","","","","","","","","","","","","","","","","","","","","","","","","","","","","","","","","",""
"","text-replacement","73","448082","0.0-35.0","90762284","wem/bandit_party_1","A33FA1VLSTBM74","either","2","15486","","","32","","","","","","","","","","","","","","","","","","","","","","","","","","","","","","","","","","","","",""
"","text-replacement","74","454461","0.0-36.0","90762284","wem/bandit_party_1","A33FA1VLSTBM74","either","2","6370","","","32","","","","","","","","","","","","","","","","","","","","","","","","","","","","","","","","","","","","",""
"","text-replacement","75","461503","0.0-37.0","90762284","wem/bandit_party_1","A33FA1VLSTBM74","either","2","7034","","","32","","","","","","","","","","","","","","","","","","","","","","","","","","","","","","","","","","","","",""
"","text-replacement","76","471197","0.0-38.0","90762284","wem/bandit_party_1","A33FA1VLSTBM74","either","2","9687","","","32","","","","","","","","","","","","","","","","","","","","","","","","","","","","","","","","","","","","",""
"","survey-multi-choice-replacement","77","481101","0.0-39.0-0.0","90762284","wem/bandit_party_1","A33FA1VLSTBM74","either","2","9878","","","","","","","","","","","","","","","","","","","","","","","","Money will be added to the pool for <span style='color:blue;'>DEMOCRATS</span>","","","","","","","attn_check","","","","","","","","","0"
"","survey-multi-choice-replacement","78","488554","0.0-40.0-0.0","90762284","wem/bandit_party_1","A33FA1VLSTBM74","either","2","6419","","","","","","","","","","","","","","","","","","","","","","","","Equal amounts of money will be added to the pool for <span style='color:blue;'>DEMOCRATS</span> and subtracted from the pool for <span style='color:red;'>REPUBLICANS</span>","","","","","","","attn_check","","","","","","","","","2"
"","survey-multi-choice-replacement","79","493696","0.0-41.0-0.0","90762284","wem/bandit_party_1","A33FA1VLSTBM74","either","2","4114","","","","","","","","","","","","","","","","","","","","","","","","No money will be added to either pool","","","","","","","attn_check","","","","","","","","","3"
"","bandit","80","499204","0.0-42.0-0.0","90762284","wem/bandit_party_1","A33FA1VLSTBM74","either","2","2973","","","","","","","0","0","1","","0.362799796","0.2","0.8","0.4","0.6","0.362799796","0.326135308","0.4781977867","0.3653736811","","","","","","","","","","","","","","72","H","0","img/none_selected.jpg","","1","main_expt",""
"","bandit","81","501862","0.0-43.0-0.0","90762284","wem/bandit_party_1","A33FA1VLSTBM74","either","2","1136","","","","","","","0","1","0","","0.3564958201","0.2","0.8","0.4","0.6","0.3891507205","0.3564958201","0.4765481994","0.3999069229","","","","","","","","","","","","","","74","J","1","","","2","main_expt",""
"","bandit","82","505627","0.0-44.0-0.0","90762284","wem/bandit_party_1","A33FA1VLSTBM74","either","2","2238","","","","","","","1","0","0","0.4722158263","","0.2","0.8","0.4","0.6","","","","","0.3151339382","0.3309056029","0.4722158263","0.4363582421","","","","","","","","","","75","K","2","","","3","main_expt",""
"","bandit","83","508529","0.0-45.0-0.0","90762284","wem/bandit_party_1","A33FA1VLSTBM74","either","2","1374","","","","","","","1","0","0","0.4300921111","","0.2","0.8","0.4","0.6","","","","","0.250648122","0.308467875","0.4609570051","0.4300921111","","","","","","","","","","76","L","3","","","4","main_expt",""
"","bandit","84","511946","0.0-46.0-0.0","90762284","wem/bandit_party_1","A33FA1VLSTBM74","either","2","1894","","","","","","","0","1","0","","0.2382585344","0.2","0.8","0.4","0.6","0.2382585344","0.3349995635","0.4707799186","0.3863220662","","","","","","","","","","","","","","72","H","0","img/none_selected.jpg","","5","main_expt",""
"","bandit","85","515330","0.0-47.0-0.0","90762284","wem/bandit_party_1","A33FA1VLSTBM74","either","2","1863","","","","","","","0","1","0","","0.3743101545","0.2","0.8","0.4","0.6","0.2088101903","0.3743101545","0.4676743975","0.4192648028","","","","","","","","","","","","","","74","J","1","","","6","main_expt",""
"","bandit","86","518038","0.0-48.0-0.0","90762284","wem/bandit_party_1","A33FA1VLSTBM74","either","2","1186","","","","","","","0","0","1","0.4767364015","","0.2","0.8","0.4","0.6","","","","","0.1884279889","0.377506125","0.4767364015","0.4218548145","","","","","","","","","","75","K","2","","","7","main_expt",""
"","bandit","87","520412","0.0-49.0-0.0","90762284","wem/bandit_party_1","A33FA1VLSTBM74","either","2","852","","","","","","","0","1","0","","0.4298914749","0.2","0.8","0.4","0.6","0.2297930851","0.3452849142","0.4837409877","0.4298914749","","","","","","","","","","","","","","76","L","3","","","8","main_expt",""
"","bandit","88","523665","0.0-50.0-0.0","90762284","wem/bandit_party_1","A33FA1VLSTBM74","either","2","1717","","","","","","","0","0","1","","0.2219539873","0.2","0.8","0.4","0.6","0.2219539873","0.2713567333","0.4825212187","0.4215440671","","","","","","","","","","","","","","72","H","0","img/none_selected.jpg","","9","main_expt",""
"","bandit","89","525919","0.0-51.0-0.0","90762284","wem/bandit_party_1","A33FA1VLSTBM74","either","2","731","","","","","","","0","0","1","0.2712708503","","0.2","0.8","0.4","0.6","","","","","0.2398128751","0.2712708503","0.4791264729","0.3991616263","","","","","","","","","","74","J","1","","","10","main_expt",""
"","bandit","90","528086","0.0-52.0-0.0","90762284","wem/bandit_party_1","A33FA1VLSTBM74","either","2","630","","","","","","","1","0","0","0.4762013833","","0.2","0.8","0.4","0.6","","","","","0.2551733424","0.2635531688","0.4762013833","0.4002673883","","","","","","","","","","75","K","2","","","11","main_expt",""
"","bandit","91","530897","0.0-53.0-0.0","90762284","wem/bandit_party_1","A33FA1VLSTBM74","either","2","1286","","","","","","","0","0","1","0.368629831","","0.2","0.8","0.4","0.6","","","","","0.2593424883","0.2669056975","0.4729837645","0.368629831","","","","","","","","","","76","L","3","","","12","main_expt",""
"","bandit","92","535241","0.0-54.0-0.0","90762284","wem/bandit_party_1","A33FA1VLSTBM74","either","2","2818","","","","","","","0","0","1","0.2493591627","","0.2","0.8","0.4","0.6","","","","","0.2493591627","0.3204456557","0.4749786695","0.4189726289","","","","","","","","","","72","H","0","img/none_selected.jpg","","13","main_expt",""
"","bandit","93","537260","0.0-55.0-0.0","90762284","wem/bandit_party_1","A33FA1VLSTBM74","either","2","492","","","","","","","1","0","0","0.3466526728","","0.2","0.8","0.4","0.6","","","","","0.2686446846","0.3466526728","0.4810115094","0.4352425359","","","","","","","","","","74","J","1","","","14","main_expt",""
"","bandit","94","541129","0.0-56.0-0.0","90762284","wem/bandit_party_1","A33FA1VLSTBM74","either","2","2349","","","","","","","1","0","0","0.4705329286","","0.2","0.8","0.4","0.6","","","","","0.2690169042","0.3736671224","0.4705329286","0.3819090161","","","","","","","","","","75","K","2","","","15","main_expt",""
"","bandit","95","544074","0.0-57.0-0.0","90762284","wem/bandit_party_1","A33FA1VLSTBM74","either","2","1421","","","","","","","0","0","1","0.3737760256","","0.2","0.8","0.4","0.6","","","","","0.2518303543","0.3778143907","0.4687419894","0.3737760256","","","","","","","","","","76","L","3","","","16","main_expt",""
"","bandit","96","546987","0.0-58.0-0.0","90762284","wem/bandit_party_1","A33FA1VLSTBM74","either","2","1383","","","","","","","0","0","1","0.3845750066","","0.2","0.8","0.4","0.6","","","","","0.2406549936","0.3845750066","0.4594180265","0.4151791473","","","","","","","","","","74","J","1","","","17","main_expt",""
"","bandit","97","548991","0.0-59.0-0.0","90762284","wem/bandit_party_1","A33FA1VLSTBM74","either","2","474","","","","","","","0","1","0","","0.425397146","0.2","0.8","0.4","0.6","0.2670149403","0.4041286345","0.425397146","0.4137363134","","","","","","","","","","","","","","75","K","2","","","18","main_expt",""
"","bandit","98","551200","0.0-60.0-0.0","90762284","wem/bandit_party_1","A33FA1VLSTBM74","either","2","681","","","","","","","0","0","1","0.4201246927","","0.2","0.8","0.4","0.6","","","","","0.2658482338","0.4127350431","0.4201246927","0.4084056464","","","","","","","","","","75","K","2","","","19","main_expt",""
"","bandit","99","553230","0.0-61.0-0.0","90762284","wem/bandit_party_1","A33FA1VLSTBM74","either","2","503","","","","","","","1","0","0","0.3954271328","","0.2","0.8","0.4","0.6","","","","","0.2452433766","0.4107359536","0.3954271328","0.4129175496","","","","","","","","","","75","K","2","","","20","main_expt",""
"","bandit","100","555109","0.0-62.0-0.0","90762284","wem/bandit_party_1","A33FA1VLSTBM74","either","2","351","","","","","","","0","1","0","","0.4196431029","0.2","0.8","0.4","0.6","0.2298761452","0.3954861765","0.4196431029","0.3888488162","","","","","","","","","","","","","","75","K","2","","","21","main_expt",""
"","bandit","101","556917","0.0-63.0-0.0","90762284","wem/bandit_party_1","A33FA1VLSTBM74","either","2","286","","","","","","","0","1","0","","0.3843335182","0.2","0.8","0.4","0.6","0.266827693","0.3805979297","0.3843335182","0.3873149631","","","","","","","","","","","","","","75","K","2","","","22","main_expt",""
"","bandit","102","558808","0.0-64.0-0.0","90762284","wem/bandit_party_1","A33FA1VLSTBM74","either","2","364","","","","","","","0","0","1","","0.3839977458","0.2","0.8","0.4","0.6","0.2519769849","0.425451992","0.3839977458","0.3659772031","","","","","","","","","","","","","","75","K","2","","","23","main_expt",""
"","bandit","103","560698","0.0-65.0-0.0","90762284","wem/bandit_party_1","A33FA1VLSTBM74","either","2","367","","","","","","","0","0","1","","0.3338939571","0.2","0.8","0.4","0.6","0.2447613107","0.4699447661","0.3338939571","0.3594327093","","","","","","","","","","","","","","75","K","2","","","24","main_expt",""
"","bandit","104","562582","0.0-66.0-0.0","90762284","wem/bandit_party_1","A33FA1VLSTBM74","either","2","320","","","","","","","0","1","0","","0.324486952","0.2","0.8","0.4","0.6","0.2350413847","0.4484050393","0.324486952","0.3719143394","","","","","","","","","","","","","","75","K","2","","","25","main_expt",""
"","bandit","105","564443","0.0-67.0-0.0","90762284","wem/bandit_party_1","A33FA1VLSTBM74","either","2","330","","","","","","","0","0","1","","0.3095710384","0.2","0.8","0.4","0.6","0.207774486","0.4190234423","0.3095710384","0.3690014044","","","","","","","","","","","","","","75","K","2","","","26","main_expt",""
"","bandit","106","566333","0.0-68.0-0.0","90762284","wem/bandit_party_1","A33FA1VLSTBM74","either","2","361","","","","","","","0","0","1","","0.3355629191","0.2","0.8","0.4","0.6","0.2164182795","0.4251478254","0.3355629191","0.3940030818","","","","","","","","","","","","","","75","K","2","","","27","main_expt",""
"","bandit","107","568250","0.0-69.0-0.0","90762284","wem/bandit_party_1","A33FA1VLSTBM74","either","2","386","","","","","","","0","0","1","","0.3668681485","0.2","0.8","0.4","0.6","0.2164031865","0.4287328697","0.3668681485","0.4111080327","","","","","","","","","","","","","","75","K","2","","","28","main_expt",""
"","bandit","108","570073","0.0-70.0-0.0","90762284","wem/bandit_party_1","A33FA1VLSTBM74","either","2","300","","","","","","","0","0","1","0.4106025245","","0.2","0.8","0.4","0.6","","","","","0.2770000278","0.4106025245","0.343198694","0.41290056","","","","","","","","","","74","J","1","","","29","main_expt",""
"","bandit","109","571945","0.0-71.0-0.0","90762284","wem/bandit_party_1","A33FA1VLSTBM74","either","2","349","","","","","","","0","0","1","0.3942494676","","0.2","0.8","0.4","0.6","","","","","0.2354797847","0.3942494676","0.326069126","0.3937480262","","","","","","","","","","74","J","1","","","30","main_expt",""
"","bandit","110","573809","0.0-72.0-0.0","90762284","wem/bandit_party_1","A33FA1VLSTBM74","either","2","334","","","","","","","1","0","0","0.4285056211","","0.2","0.8","0.4","0.6","","","","","0.2692030882","0.4285056211","0.3390127419","0.3997016236","","","","","","","","","","74","J","1","","","31","main_expt",""
"","bandit","111","575691","0.0-73.0-0.0","90762284","wem/bandit_party_1","A33FA1VLSTBM74","either","2","364","","","","","","","0","0","1","0.4249454459","","0.2","0.8","0.4","0.6","","","","","0.2471118655","0.4249454459","0.3360649894","0.3574295763","","","","","","","","","","74","J","1","","","32","main_expt",""
"","bandit","112","577617","0.0-74.0-0.0","90762284","wem/bandit_party_1","A33FA1VLSTBM74","either","2","397","","","","","","","0","0","1","","0.2879199001","0.2","0.8","0.4","0.6","0.2879199001","0.416417765","0.3052602024","0.3877818659","","","","","","","","","","","","","","72","H","0","img/none_selected.jpg","","33","main_expt",""
"","bandit","113","579478","0.0-75.0-0.0","90762284","wem/bandit_party_1","A33FA1VLSTBM74","either","2","336","","","","","","","0","0","1","","0.3180115212","0.2","0.8","0.4","0.6","0.3180115212","0.4623714429","0.3594788954","0.3799496232","","","","","","","","","","","","","","72","H","0","img/none_selected.jpg","","34","main_expt",""
"","bandit","114","581407","0.0-76.0-0.0","90762284","wem/bandit_party_1","A33FA1VLSTBM74","either","2","400","","","","","","","0","0","1","","0.2524306687","0.2","0.8","0.4","0.6","0.2524306687","0.4591977302","0.380235832","0.3577573403","","","","","","","","","","","","","","72","H","0","img/none_selected.jpg","","35","main_expt",""
"","bandit","115","583305","0.0-77.0-0.0","90762284","wem/bandit_party_1","A33FA1VLSTBM74","either","2","369","","","","","","","0","1","0","","0.2351869563","0.2","0.8","0.4","0.6","0.2351869563","0.4686235256","0.3459989602","0.3895375856","","","","","","","","","","","","","","72","H","0","img/none_selected.jpg","","36","main_expt",""
"","bandit","116","585189","0.0-78.0-0.0","90762284","wem/bandit_party_1","A33FA1VLSTBM74","either","2","361","","","","","","","0","0","1","0.3783527007","","0.2","0.8","0.4","0.6","","","","","0.2629170466","0.4571547709","0.3320905149","0.3783527007","","","","","","","","","","76","L","3","","","37","main_expt",""
"","bandit","117","587083","0.0-79.0-0.0","90762284","wem/bandit_party_1","A33FA1VLSTBM74","either","2","372","","","","","","","1","0","0","0.284076782","","0.2","0.8","0.4","0.6","","","","","0.3090194305","0.4688430709","0.3471020919","0.284076782","","","","","","","","","","76","L","3","","","38","main_expt",""
"","bandit","118","588965","0.0-80.0-0.0","90762284","wem/bandit_party_1","A33FA1VLSTBM74","either","2","352","","","","","","","0","0","1","0.3388972186","","0.2","0.8","0.4","0.6","","","","","0.2845371228","0.4612923778","0.3401763967","0.3388972186","","","","","","","","","","76","L","3","","","39","main_expt",""
"","bandit","119","590873","0.0-81.0-0.0","90762284","wem/bandit_party_1","A33FA1VLSTBM74","either","2","379","","","","","","","0","0","1","0.2663655232","","0.2","0.8","0.4","0.6","","","","","0.3076259244","0.4576194683","0.3260487483","0.2663655232","","","","","","","","","","76","L","3","","","40","main_expt",""
"","bandit","120","592893","0.0-82.0-0.0","90762284","wem/bandit_party_1","A33FA1VLSTBM74","either","2","493","","","","","","","0","1","0","","0.3390218734","0.2","0.8","0.4","0.6","0.2888769276","0.4473921051","0.3390218734","0.2608266697","","","","","","","","","","","","","","75","K","2","","","41","main_expt",""
"","bandit","121","594851","0.0-83.0-0.0","90762284","wem/bandit_party_1","A33FA1VLSTBM74","either","2","426","","","","","","","1","0","0","0.2889680017","","0.2","0.8","0.4","0.6","","","","","0.2639198141","0.425470286","0.2889680017","0.2287676803","","","","","","","","","","75","K","2","","","42","main_expt",""
"","bandit","122","596710","0.0-84.0-0.0","90762284","wem/bandit_party_1","A33FA1VLSTBM74","either","2","329","","","","","","","0","1","0","","0.2784828801","0.2","0.8","0.4","0.6","0.2255441472","0.4030522017","0.2784828801","0.2043112358","","","","","","","","","","","","","","75","K","2","","","43","main_expt",""
"","bandit","123","598737","0.0-85.0-0.0","90762284","wem/bandit_party_1","A33FA1VLSTBM74","either","2","495","","","","","","","0","0","1","","0.2805729819","0.2","0.8","0.4","0.6","0.2050272072","0.4106315797","0.2805729819","0.1957049551","","","","","","","","","","","","","","75","K","2","","","44","main_expt",""
"","bandit","124","600613","0.0-86.0-0.0","90762284","wem/bandit_party_1","A33FA1VLSTBM74","either","2","346","","","","","","","0","1","0","","0.2195119073","0.2","0.8","0.4","0.6","0.239455925","0.4258527362","0.2195119073","0.2207366272","","","","","","","","","","","","","","75","K","2","","","45","main_expt",""
"","bandit","125","602516","0.0-87.0-0.0","90762284","wem/bandit_party_1","A33FA1VLSTBM74","either","2","374","","","","","","","0","0","1","","0.2657932304","0.2","0.8","0.4","0.6","0.2414778298","0.4425966235","0.2657932304","0.1727988076","","","","","","","","","","","","","","75","K","2","","","46","main_expt",""
"","bandit","126","604385","0.0-88.0-0.0","90762284","wem/bandit_party_1","A33FA1VLSTBM74","either","2","339","","","","","","","0","0","1","","0.2678398397","0.2","0.8","0.4","0.6","0.1884211613","0.4428977597","0.2678398397","0.1446735631","","","","","","","","","","","","","","75","K","2","","","47","main_expt",""
"","bandit","127","606255","0.0-89.0-0.0","90762284","wem/bandit_party_1","A33FA1VLSTBM74","either","2","343","","","","","","","0","0","1","","0.2866904938","0.2","0.8","0.4","0.6","0.1755274282","0.4479964269","0.2866904938","0.1681765936","","","","","","","","","","","","","","75","K","2","","","48","main_expt",""
"","bandit","128","607947","0.0-90.0-0.0","90762284","wem/bandit_party_1","A33FA1VLSTBM74","either","2","166","","","","","","","0","0","1","","0.1646396384","0.2","0.8","0.4","0.6","0.1646396384","0.4660387519","0.2803848884","0.1473883531","","","","","","","","","","","","","","72","H","0","img/none_selected.jpg","","49","main_expt",""
"","bandit","129","609816","0.0-91.0-0.0","90762284","wem/bandit_party_1","A33FA1VLSTBM74","either","2","337","","","","","","","0","0","1","","0.2024226619","0.2","0.8","0.4","0.6","0.2024226619","0.4345757832","0.2587411269","0.1378170987","","","","","","","","","","","","","","72","H","0","img/none_selected.jpg","","50","main_expt",""
"","bandit","130","611655","0.0-92.0-0.0","90762284","wem/bandit_party_1","A33FA1VLSTBM74","either","2","298","","","","","","","0","1","0","","0.1976760068","0.2","0.8","0.4","0.6","0.1976760068","0.4450950844","0.2212901065","0.1430360168","","","","","","","","","","","","","","72","H","0","img/none_selected.jpg","","51","main_expt",""
"","bandit","131","613567","0.0-93.0-0.0","90762284","wem/bandit_party_1","A33FA1VLSTBM74","either","2","390","","","","","","","0","0","1","","0.1796352224","0.2","0.8","0.4","0.6","0.1796352224","0.4475354499","0.236006857","0.1731798725","","","","","","","","","","","","","","72","H","0","img/none_selected.jpg","","52","main_expt",""
"","bandit","132","615312","0.0-94.0-0.0","90762284","wem/bandit_party_1","A33FA1VLSTBM74","either","2","220","","","","","","","0","0","1","0.4627294295","","0.2","0.8","0.4","0.6","","","","","0.2451732725","0.4627294295","0.2660825342","0.1312409056","","","","","","","","","","74","J","1","","","53","main_expt",""
"","bandit","133","617207","0.0-95.0-0.0","90762284","wem/bandit_party_1","A33FA1VLSTBM74","either","2","366","","","","","","","1","0","0","0.44829207","","0.2","0.8","0.4","0.6","","","","","0.2621482643","0.44829207","0.2458345041","0.1862053218","","","","","","","","","","74","J","1","","","54","main_expt",""
"","bandit","134","619203","0.0-96.0-0.0","90762284","wem/bandit_party_1","A33FA1VLSTBM74","either","2","469","","","","","","","1","0","0","0.4505537928","","0.2","0.8","0.4","0.6","","","","","0.2441780383","0.4505537928","0.2265690781","0.1733563037","","","","","","","","","","74","J","1","","","55","main_expt",""
"","bandit","135","621150","0.0-97.0-0.0","90762284","wem/bandit_party_1","A33FA1VLSTBM74","either","2","421","","","","","","","0","0","1","0.4686400132","","0.2","0.8","0.4","0.6","","","","","0.199729785","0.4686400132","0.2741820357","0.1728369204","","","","","","","","","","74","J","1","","","56","main_expt",""
"","bandit","136","623099","0.0-98.0-0.0","90762284","wem/bandit_party_1","A33FA1VLSTBM74","either","2","411","","","","","","","0","0","1","","0.2937641054","0.2","0.8","0.4","0.6","0.1945085845","0.4572679106","0.2937641054","0.09176359954","","","","","","","","","","","","","","75","K","2","","","57","main_expt",""
"","bandit","137","625019","0.0-99.0-0.0","90762284","wem/bandit_party_1","A33FA1VLSTBM74","either","2","391","","","","","","","0","0","1","0.2949827607","","0.2","0.8","0.4","0.6","","","","","0.2614759052","0.4300169527","0.2949827607","0.04991422033","","","","","","","","","","75","K","2","","","58","main_expt",""
"","bandit","138","626854","0.0-100.0-0.0","90762284","wem/bandit_party_1","A33FA1VLSTBM74","either","2","310","","","","","","","0","0","1","0.2710075273","","0.2","0.8","0.4","0.6","","","","","0.2426118991","0.4050829606","0.2710075273","0.053239915","","","","","","","","","","75","K","2","","","59","main_expt",""
"","bandit","139","628679","0.0-101.0-0.0","90762284","wem/bandit_party_1","A33FA1VLSTBM74","either","2","307","","","","","","","0","0","1","","0.2766623035","0.2","0.8","0.4","0.6","0.2623750897","0.4070720156","0.2766623035","0.06994226662","","","","","","","","","","","","","","75","K","2","","","60","main_expt",""
"","bandit","140","630587","0.0-102.0-0.0","90762284","wem/bandit_party_1","A33FA1VLSTBM74","either","2","377","","","","","","","0","0","1","","0.07064832373","0.2","0.8","0.4","0.6","0.2139103784","0.3895400789","0.2574592035","0.07064832373","","","","","","","","","","","","","","76","L","3","","","61","main_expt",""
"","bandit","141","632569","0.0-103.0-0.0","90762284","wem/bandit_party_1","A33FA1VLSTBM74","either","2","457","","","","","","","0","0","1","0.08925217872","","0.2","0.8","0.4","0.6","","","","","0.2566580444","0.4050708951","0.2425209234","0.08925217872","","","","","","","","","","76","L","3","","","62","main_expt",""
"","bandit","142","634503","0.0-104.0-0.0","90762284","wem/bandit_party_1","A33FA1VLSTBM74","either","2","403","","","","","","","0","0","1","0.08505035955","","0.2","0.8","0.4","0.6","","","","","0.2393402704","0.3765761212","0.2294211584","0.08505035955","","","","","","","","","","76","L","3","","","63","main_expt",""
"","bandit","143","636398","0.0-105.0-0.0","90762284","wem/bandit_party_1","A33FA1VLSTBM74","either","2","366","","","","","","","0","0","1","","0.09892528285","0.2","0.8","0.4","0.6","0.300105392","0.3859881554","0.2350173232","0.09892528285","","","","","","","","","","","","","","76","L","3","","","64","main_expt",""
"","bandit","144","638374","0.0-106.0-0.0","90762284","wem/bandit_party_1","A33FA1VLSTBM74","either","2","442","","","","","","","0","0","1","0.3817039273","","0.2","0.8","0.4","0.6","","","","","0.2584268813","0.3817039273","0.2775473173","0.1428545766","","","","","","","","","","74","J","1","","","65","main_expt",""
"","bandit","145","640344","0.0-107.0-0.0","90762284","wem/bandit_party_1","A33FA1VLSTBM74","either","2","444","","","","","","","1","0","0","0.3622232449","","0.2","0.8","0.4","0.6","","","","","0.2536378703","0.3622232449","0.298861572","0.120440259","","","","","","","","","","74","J","1","","","66","main_expt",""
"","bandit","146","642513","0.0-108.0-0.0","90762284","wem/bandit_party_1","A33FA1VLSTBM74","either","2","640","","","","","","","0","0","1","","0.3768721334","0.2","0.8","0.4","0.6","0.2548884231","0.3768721334","0.3043747659","0.2019700983","","","","","","","","","","","","","","74","J","1","","","67","main_expt",""
"","bandit","147","644628","0.0-109.0-0.0","90762284","wem/bandit_party_1","A33FA1VLSTBM74","either","2","587","","","","","","","0","0","1","0.3826604183","","0.2","0.8","0.4","0.6","","","","","0.2105458193","0.3826604183","0.2533072519","0.1467862533","","","","","","","","","","74","J","1","","","68","main_expt",""
"","bandit","148","646534","0.0-110.0-0.0","90762284","wem/bandit_party_1","A33FA1VLSTBM74","either","2","372","","","","","","","0","0","1","","0.3981811202","0.2","0.8","0.4","0.6","0.2901666962","0.3981811202","0.2451677402","0.09022805221","","","","","","","","","","","","","","74","J","1","","","69","main_expt",""
"","bandit","149","648551","0.0-111.0-0.0","90762284","wem/bandit_party_1","A33FA1VLSTBM74","either","2","486","","","","","","","0","0","1","0.3936557204","","0.2","0.8","0.4","0.6","","","","","0.2973761433","0.3936557204","0.2403061491","0.1128827508","","","","","","","","","","74","J","1","","","70","main_expt",""
"","bandit","150","650495","0.0-112.0-0.0","90762284","wem/bandit_party_1","A33FA1VLSTBM74","either","2","417","","","","","","","0","0","1","0.3949471057","","0.2","0.8","0.4","0.6","","","","","0.2737706179","0.3949471057","0.1917576795","0.1184182172","","","","","","","","","","74","J","1","","","71","main_expt",""
"","bandit","151","652475","0.0-113.0-0.0","90762284","wem/bandit_party_1","A33FA1VLSTBM74","either","2","450","","","","","","","0","0","1","0.3888869603","","0.2","0.8","0.4","0.6","","","","","0.3005227265","0.3888869603","0.1894079546","0.1038133506","","","","","","","","","","74","J","1","","","72","main_expt",""
"","bandit","152","654304","0.0-114.0-0.0","90762284","wem/bandit_party_1","A33FA1VLSTBM74","either","2","302","","","","","","","0","0","1","0.3205676235","","0.2","0.8","0.4","0.6","","","","","0.3205676235","0.4015056825","0.235909594","0.07830871569","","","","","","","","","","72","H","0","img/none_selected.jpg","","73","main_expt",""
"","bandit","153","656304","0.0-115.0-0.0","90762284","wem/bandit_party_1","A33FA1VLSTBM74","either","2","468","","","","","","","0","0","1","0.4200542591","","0.2","0.8","0.4","0.6","","","","","0.3040473008","0.4200542591","0.2772030277","0.09226686474","","","","","","","","","","74","J","1","","","74","main_expt",""
"","bandit","154","658238","0.0-116.0-0.0","90762284","wem/bandit_party_1","A33FA1VLSTBM74","either","2","404","","","","","","","1","0","0","0.2237268092","","0.2","0.8","0.4","0.6","","","","","0.2686744794","0.4353174817","0.2237268092","0.07948082514","","","","","","","","","","75","K","2","","","75","main_expt",""
"","bandit","155","660214","0.0-117.0-0.0","90762284","wem/bandit_party_1","A33FA1VLSTBM74","either","2","445","","","","","","","0","0","1","","0.1279570505","0.2","0.8","0.4","0.6","0.258707356","0.4196821318","0.1739375455","0.1279570505","","","","","","","","","","","","","","76","L","3","","","76","main_expt",""
"","bandit","156","662186","0.0-118.0-0.0","90762284","wem/bandit_party_1","A33FA1VLSTBM74","either","2","445","","","","","","","0","0","1","0.1202820049","","0.2","0.8","0.4","0.6","","","","","0.3010070056","0.3787369199","0.1648796623","0.1202820049","","","","","","","","","","76","L","3","","","77","main_expt",""
"","bandit","157","664066","0.0-119.0-0.0","90762284","wem/bandit_party_1","A33FA1VLSTBM74","either","2","339","","","","","","","0","0","1","0.1637798684","","0.2","0.8","0.4","0.6","","","","","0.2648586626","0.4314930014","0.1637798684","0.1054071572","","","","","","","","","","75","K","2","","","78","main_expt",""
"","bandit","158","666033","0.0-120.0-0.0","90762284","wem/bandit_party_1","A33FA1VLSTBM74","either","2","435","","","","","","","0","0","1","0.4155078174","","0.2","0.8","0.4","0.6","","","","","0.1984114041","0.4155078174","0.1490076182","0.1403095361","","","","","","","","","","74","J","1","","","79","main_expt",""
"","bandit","159","667992","0.0-121.0-0.0","90762284","wem/bandit_party_1","A33FA1VLSTBM74","either","2","428","","","","","","","0","0","1","","0.180325551","0.2","0.8","0.4","0.6","0.180325551","0.4226243671","0.1093198388","0.1891235553","","","","","","","","","","","","","","72","H","0","img/none_selected.jpg","","80","main_expt",""
"","bandit","160","669934","0.0-122.0-0.0","90762284","wem/bandit_party_1","A33FA1VLSTBM74","either","2","412","","","","","","","0","0","1","","0.08868186825","0.2","0.8","0.4","0.6","0.224531153","0.4474166549","0.08868186825","0.1858030354","","","","","","","","","","","","","","75","K","2","","","81","main_expt",""
"","bandit","161","671850","0.0-123.0-0.0","90762284","wem/bandit_party_1","A33FA1VLSTBM74","either","2","386","","","","","","","0","1","0","","0.1073880826","0.2","0.8","0.4","0.6","0.221125015","0.4636297045","0.1073880826","0.2476542501","","","","","","","","","","","","","","75","K","2","","","82","main_expt",""
"","bandit","162","673942","0.0-124.0-0.0","90762284","wem/bandit_party_1","A33FA1VLSTBM74","either","2","557","","","","","","","0","0","1","","0.1022587498","0.2","0.8","0.4","0.6","0.2143237207","0.467509749","0.1022587498","0.2188241074","","","","","","","","","","","","","","75","K","2","","","83","main_expt",""
"","bandit","163","675868","0.0-125.0-0.0","90762284","wem/bandit_party_1","A33FA1VLSTBM74","either","2","392","","","","","","","0","0","1","0.1085807699","","0.2","0.8","0.4","0.6","","","","","0.2097367537","0.4551111531","0.1085807699","0.2754771977","","","","","","","","","","75","K","2","","","84","main_expt",""
"","bandit","164","677826","0.0-126.0-0.0","90762284","wem/bandit_party_1","A33FA1VLSTBM74","either","2","426","","","","","","","0","0","1","","0.4621419017","0.2","0.8","0.4","0.6","0.1661536269","0.4621419017","0.1263918358","0.2965575968","","","","","","","","","","","","","","74","J","1","","","85","main_expt",""
"","bandit","165","679754","0.0-127.0-0.0","90762284","wem/bandit_party_1","A33FA1VLSTBM74","either","2","392","","","","","","","1","0","0","0.4612050897","","0.2","0.8","0.4","0.6","","","","","0.1364458955","0.4612050897","0.1481941301","0.257129161","","","","","","","","","","74","J","1","","","86","main_expt",""
"","bandit","166","681800","0.0-128.0-0.0","90762284","wem/bandit_party_1","A33FA1VLSTBM74","either","2","504","","","","","","","1","0","0","0.4334675206","","0.2","0.8","0.4","0.6","","","","","0.08235553135","0.4334675206","0.1447872846","0.2338967043","","","","","","","","","","74","J","1","","","87","main_expt",""
"","bandit","167","683756","0.0-129.0-0.0","90762284","wem/bandit_party_1","A33FA1VLSTBM74","either","2","431","","","","","","","0","0","1","0.4397617206","","0.2","0.8","0.4","0.6","","","","","0.0754832669","0.4397617206","0.1391637727","0.2161535794","","","","","","","","","","74","J","1","","","88","main_expt",""
"","bandit","168","685698","0.0-130.0-0.0","90762284","wem/bandit_party_1","A33FA1VLSTBM74","either","2","405","","","","","","","0","1","0","","0.109361408","0.2","0.8","0.4","0.6","0.109361408","0.4635478967","0.1476089376","0.2043146745","","","","","","","","","","","","","","72","H","0","img/none_selected.jpg","","89","main_expt",""
"","bandit","169","687677","0.0-131.0-0.0","90762284","wem/bandit_party_1","A33FA1VLSTBM74","either","2","446","","","","","","","0","0","1","","0.07391079866","0.2","0.8","0.4","0.6","0.07391079866","0.4234969579","0.2081489191","0.2346009907","","","","","","","","","","","","","","72","H","0","img/none_selected.jpg","","90","main_expt",""
"","bandit","170","689610","0.0-132.0-0.0","90762284","wem/bandit_party_1","A33FA1VLSTBM74","either","2","401","","","","","","","0","0","1","","0.1164594673","0.2","0.8","0.4","0.6","0.1164594673","0.4267507071","0.1834039029","0.2333967219","","","","","","","","","","","","","","72","H","0","img/none_selected.jpg","","91","main_expt",""
"","bandit","171","691617","0.0-133.0-0.0","90762284","wem/bandit_party_1","A33FA1VLSTBM74","either","2","473","","","","","","","0","0","1","","0.113043345","0.2","0.8","0.4","0.6","0.113043345","0.4089505196","0.2027314649","0.2150480475","","","","","","","","","","","","","","72","H","0","img/none_selected.jpg","","92","main_expt",""
"","bandit","172","693575","0.0-134.0-0.0","90762284","wem/bandit_party_1","A33FA1VLSTBM74","either","2","425","","","","","","","0","0","1","","0.2588080464","0.2","0.8","0.4","0.6","0.1714352716","0.4112501448","0.1738894496","0.2588080464","","","","","","","","","","","","","","76","L","3","","","93","main_expt",""
"","bandit","173","695598","0.0-135.0-0.0","90762284","wem/bandit_party_1","A33FA1VLSTBM74","either","2","488","","","","","","","0","0","1","","0.2748849181","0.2","0.8","0.4","0.6","0.1253024032","0.452415855","0.2484708832","0.2748849181","","","","","","","","","","","","","","76","L","3","","","94","main_expt",""
"","bandit","174","697503","0.0-136.0-0.0","90762284","wem/bandit_party_1","A33FA1VLSTBM74","either","2","371","","","","","","","1","0","0","0.2791739054","","0.2","0.8","0.4","0.6","","","","","0.1401284447","0.4589197587","0.2914685715","0.2791739054","","","","","","","","","","76","L","3","","","95","main_expt",""
"","bandit","175","699455","0.0-137.0-0.0","90762284","wem/bandit_party_1","A33FA1VLSTBM74","either","2","422","","","","","","","0","0","1","","0.3149564315","0.2","0.8","0.4","0.6","0.1320491369","0.4481870348","0.2417524935","0.3149564315","","","","","","","","","","","","","","76","L","3","","","96","main_expt",""
"","bandit","176","701432","0.0-138.0-0.0","90762284","wem/bandit_party_1","A33FA1VLSTBM74","either","2","448","","","","","","","0","0","1","0.4597072186","","0.2","0.8","0.4","0.6","","","","","0.1518453759","0.4597072186","0.2492821404","0.372564007","","","","","","","","","","74","J","1","","","97","main_expt",""
"","bandit","177","703438","0.0-139.0-0.0","90762284","wem/bandit_party_1","A33FA1VLSTBM74","either","2","480","","","","","","","0","0","1","","0.3002958449","0.2","0.8","0.4","0.6","0.2173959583","0.4705619112","0.3002958449","0.393328365","","","","","","","","","","","","","","75","K","2","","","98","main_expt",""
"","bandit","178","705418","0.0-140.0-0.0","90762284","wem/bandit_party_1","A33FA1VLSTBM74","either","2","449","","","","","","","0","0","1","0.3544832656","","0.2","0.8","0.4","0.6","","","","","0.2618725657","0.4800968761","0.3544832656","0.421239771","","","","","","","","","","75","K","2","","","99","main_expt",""
"","bandit","179","707391","0.0-141.0-0.0","90762284","wem/bandit_party_1","A33FA1VLSTBM74","either","2","438","","","","","","","1","0","0","0.4780143146","","0.2","0.8","0.4","0.6","","","","","0.2487788848","0.4780143146","0.3810954338","0.4130759476","","","","","","","","","","74","J","1","","","100","main_expt",""
"","bandit","180","709369","0.0-142.0-0.0","90762284","wem/bandit_party_1","A33FA1VLSTBM74","either","2","439","","","","","","","1","0","0","0.4849002763","","0.2","0.8","0.4","0.6","","","","","0.2890792313","0.4849002763","0.4042362267","0.4089462913","","","","","","","","","","74","J","1","","","101","main_expt",""
"","bandit","181","711337","0.0-143.0-0.0","90762284","wem/bandit_party_1","A33FA1VLSTBM74","either","2","422","","","","","","","0","0","1","0.4886078379","","0.2","0.8","0.4","0.6","","","","","0.3136369757","0.4886078379","0.4594696392","0.370330464","","","","","","","","","","74","J","1","","","102","main_expt",""
"","bandit","182","713313","0.0-144.0-0.0","90762284","wem/bandit_party_1","A33FA1VLSTBM74","either","2","446","","","","","","","0","0","1","0.47121906","","0.2","0.8","0.4","0.6","","","","","0.2364671533","0.47121906","0.4588766667","0.3306315663","","","","","","","","","","74","J","1","","","103","main_expt",""
"","bandit","183","715308","0.0-145.0-0.0","90762284","wem/bandit_party_1","A33FA1VLSTBM74","either","2","463","","","","","","","0","0","1","0.4760763377","","0.2","0.8","0.4","0.6","","","","","0.2202486688","0.4760763377","0.4372785745","0.354634178","","","","","","","","","","74","J","1","","","104","main_expt",""
"","bandit","184","717277","0.0-146.0-0.0","90762284","wem/bandit_party_1","A33FA1VLSTBM74","either","2","430","","","","","","","0","0","1","0.4701389446","","0.2","0.8","0.4","0.6","","","","","0.1854418088","0.4701389446","0.4063887309","0.3896605338","","","","","","","","","","74","J","1","","","105","main_expt",""
"","bandit","185","719340","0.0-147.0-0.0","90762284","wem/bandit_party_1","A33FA1VLSTBM74","either","2","534","","","","","","","0","0","1","0.471324938","","0.2","0.8","0.4","0.6","","","","","0.1596754559","0.471324938","0.3778019321","0.414339711","","","","","","","","","","74","J","1","","","106","main_expt",""
"","bandit","186","721383","0.0-148.0-0.0","90762284","wem/bandit_party_1","A33FA1VLSTBM74","either","2","511","","","","","","","1","0","0","0.4786694594","","0.2","0.8","0.4","0.6","","","","","0.137099288","0.4786694594","0.3614143111","0.4164239898","","","","","","","","","","74","J","1","","","107","main_expt",""
"","bandit","187","723376","0.0-149.0-0.0","90762284","wem/bandit_party_1","A33FA1VLSTBM74","either","2","461","","","","","","","1","0","0","0.4810065258","","0.2","0.8","0.4","0.6","","","","","0.1443984823","0.4810065258","0.3681250399","0.3836571442","","","","","","","","","","74","J","1","","","108","main_expt",""
"","bandit","188","725387","0.0-150.0-0.0","90762284","wem/bandit_party_1","A33FA1VLSTBM74","either","2","481","","","","","","","1","0","0","0.4816764674","","0.2","0.8","0.4","0.6","","","","","0.1409511773","0.4816764674","0.3446081275","0.3881214568","","","","","","","","","","74","J","1","","","109","main_expt",""
"","bandit","189","727366","0.0-151.0-0.0","90762284","wem/bandit_party_1","A33FA1VLSTBM74","either","2","437","","","","","","","1","0","0","0.4882082215","","0.2","0.8","0.4","0.6","","","","","0.1787750665","0.4882082215","0.3681270965","0.4266873791","","","","","","","","","","74","J","1","","","110","main_expt",""
"","bandit","190","729312","0.0-152.0-0.0","90762284","wem/bandit_party_1","A33FA1VLSTBM74","either","2","423","","","","","","","1","0","0","0.478642168","","0.2","0.8","0.4","0.6","","","","","0.1862786225","0.478642168","0.391379093","0.4475699482","","","","","","","","","","74","J","1","","","111","main_expt",""
"","bandit","191","731337","0.0-153.0-0.0","90762284","wem/bandit_party_1","A33FA1VLSTBM74","either","2","494","","","","","","","1","0","0","0.4841415165","","0.2","0.8","0.4","0.6","","","","","0.1654620982","0.4841415165","0.4131544452","0.4190314983","","","","","","","","","","74","J","1","","","112","main_expt",""
"","bandit","192","733408","0.0-154.0-0.0","90762284","wem/bandit_party_1","A33FA1VLSTBM74","either","2","535","","","","","","","0","0","1","0.4883212127","","0.2","0.8","0.4","0.6","","","","","0.1582981878","0.4883212127","0.3963985948","0.3666128881","","","","","","","","","","74","J","1","","","113","main_expt",""
"","bandit","193","735400","0.0-155.0-0.0","90762284","wem/bandit_party_1","A33FA1VLSTBM74","either","2","463","","","","","","","0","0","1","0.4883790739","","0.2","0.8","0.4","0.6","","","","","0.1922757069","0.4883790739","0.4117985871","0.3866259854","","","","","","","","","","74","J","1","","","114","main_expt",""
"","bandit","194","737375","0.0-156.0-0.0","90762284","wem/bandit_party_1","A33FA1VLSTBM74","either","2","444","","","","","","","1","0","0","0.4902011966","","0.2","0.8","0.4","0.6","","","","","0.185618385","0.4902011966","0.394381103","0.354161152","","","","","","","","","","74","J","1","","","115","main_expt",""
"","bandit","195","739318","0.0-157.0-0.0","90762284","wem/bandit_party_1","A33FA1VLSTBM74","either","2","411","","","","","","","0","0","1","0.4844723045","","0.2","0.8","0.4","0.6","","","","","0.2057277395","0.4844723045","0.3762408663","0.3170745426","","","","","","","","","","74","J","1","","","116","main_expt",""
"","bandit","196","741251","0.0-158.0-0.0","90762284","wem/bandit_party_1","A33FA1VLSTBM74","either","2","400","","","","","","","0","0","1","0.4895589844","","0.2","0.8","0.4","0.6","","","","","0.2288411079","0.4895589844","0.3823674378","0.304536318","","","","","","","","","","74","J","1","","","117","main_expt",""
"","bandit","197","743205","0.0-159.0-0.0","90762284","wem/bandit_party_1","A33FA1VLSTBM74","either","2","418","","","","","","","0","1","0","","0.4899729034","0.2","0.8","0.4","0.6","0.2207517482","0.4899729034","0.4050195855","0.3411026949","","","","","","","","","","","","","","74","J","1","","","118","main_expt",""
"","bandit","198","745246","0.0-160.0-0.0","90762284","wem/bandit_party_1","A33FA1VLSTBM74","either","2","506","","","","","","","1","0","0","0.4947041593","","0.2","0.8","0.4","0.6","","","","","0.1955286499","0.4947041593","0.4227562767","0.3447942488","","","","","","","","","","74","J","1","","","119","main_expt",""
"","bandit","199","747196","0.0-161.0-0.0","90762284","wem/bandit_party_1","A33FA1VLSTBM74","either","2","413","","","","","","","0","0","1","0.4916865355","","0.2","0.8","0.4","0.6","","","","","0.2427950695","0.4916865355","0.4163810796","0.3686185352","","","","","","","","","","74","J","1","","","120","main_expt",""
"","bandit","200","749229","0.0-162.0-0.0","90762284","wem/bandit_party_1","A33FA1VLSTBM74","either","2","499","","","","","","","0","0","1","0.4860386064","","0.2","0.8","0.4","0.6","","","","","0.2479682904","0.4860386064","0.406821829","0.3547669752","","","","","","","","","","74","J","1","","","121","main_expt",""
"","bandit","201","751214","0.0-163.0-0.0","90762284","wem/bandit_party_1","A33FA1VLSTBM74","either","2","450","","","","","","","1","0","0","0.483083859","","0.2","0.8","0.4","0.6","","","","","0.3081985406","0.483083859","0.3999449125","0.365994073","","","","","","","","","","74","J","1","","","122","main_expt",""
"","bandit","202","753236","0.0-164.0-0.0","90762284","wem/bandit_party_1","A33FA1VLSTBM74","either","2","490","","","","","","","0","0","1","0.4791491275","","0.2","0.8","0.4","0.6","","","","","0.3089359708","0.4791491275","0.366626489","0.3120596142","","","","","","","","","","74","J","1","","","123","main_expt",""
"","bandit","203","755215","0.0-165.0-0.0","90762284","wem/bandit_party_1","A33FA1VLSTBM74","either","2","441","","","","","","","1","0","0","0.4776777384","","0.2","0.8","0.4","0.6","","","","","0.3298338218","0.4776777384","0.3706278578","0.302161917","","","","","","","","","","74","J","1","","","124","main_expt",""
"","bandit","204","757230","0.0-166.0-0.0","90762284","wem/bandit_party_1","A33FA1VLSTBM74","either","2","485","","","","","","","0","1","0","","0.2795250441","0.2","0.8","0.4","0.6","0.2795250441","0.478983255","0.3545504723","0.2794370347","","","","","","","","","","","","","","72","H","0","img/none_selected.jpg","","125","main_expt",""
"","bandit","205","759259","0.0-167.0-0.0","90762284","wem/bandit_party_1","A33FA1VLSTBM74","either","2","493","","","","","","","0","0","1","","0.2184127205","0.2","0.8","0.4","0.6","0.2184127205","0.4724726719","0.3106298006","0.2466154908","","","","","","","","","","","","","","72","H","0","img/none_selected.jpg","","126","main_expt",""
"","bandit","206","761230","0.0-168.0-0.0","90762284","wem/bandit_party_1","A33FA1VLSTBM74","either","2","437","","","","","","","0","1","0","","0.2488858907","0.2","0.8","0.4","0.6","0.2488858907","0.4796244369","0.3351405197","0.2712823261","","","","","","","","","","","","","","72","H","0","img/none_selected.jpg","","127","main_expt",""
"","bandit","207","763213","0.0-169.0-0.0","90762284","wem/bandit_party_1","A33FA1VLSTBM74","either","2","450","","","","","","","0","1","0","","0.2850827173","0.2","0.8","0.4","0.6","0.2850827173","0.4825212971","0.2984422464","0.2095517986","","","","","","","","","","","","","","72","H","0","img/none_selected.jpg","","128","main_expt",""
"","bandit","208","765221","0.0-170.0-0.0","90762284","wem/bandit_party_1","A33FA1VLSTBM74","either","2","475","","","","","","","0","0","1","","0.2867242009","0.2","0.8","0.4","0.6","0.2867242009","0.4877535013","0.2027892291","0.1986866195","","","","","","","","","","","","","","72","H","0","img/none_selected.jpg","","129","main_expt",""
"","bandit","209","767202","0.0-171.0-0.0","90762284","wem/bandit_party_1","A33FA1VLSTBM74","either","2","445","","","","","","","0","0","1","","0.2509552002","0.2","0.8","0.4","0.6","0.2509552002","0.4833646461","0.13768179","0.172959111","","","","","","","","","","","","","","72","H","0","img/none_selected.jpg","","130","main_expt",""
"","bandit","210","769177","0.0-172.0-0.0","90762284","wem/bandit_party_1","A33FA1VLSTBM74","either","2","432","","","","","","","0","1","0","","0.2172434631","0.2","0.8","0.4","0.6","0.2172434631","0.4790990265","0.1352832961","0.163172462","","","","","","","","","","","","","","72","H","0","img/none_selected.jpg","","131","main_expt",""
"","bandit","211","771253","0.0-173.0-0.0","90762284","wem/bandit_party_1","A33FA1VLSTBM74","either","2","546","","","","","","","0","0","1","","0.158295755","0.2","0.8","0.4","0.6","0.158295755","0.4882311922","0.08660982753","0.161148659","","","","","","","","","","","","","","72","H","0","img/none_selected.jpg","","132","main_expt",""
"","bandit","212","773354","0.0-174.0-0.0","90762284","wem/bandit_party_1","A33FA1VLSTBM74","either","2","565","","","","","","","0","1","0","","0.1020907376","0.2","0.8","0.4","0.6","0.185310911","0.4889625365","0.1020907376","0.1735641072","","","","","","","","","","","","","","75","K","2","","","133","main_expt",""
"","bandit","213","775392","0.0-175.0-0.0","90762284","wem/bandit_party_1","A33FA1VLSTBM74","either","2","489","","","","","","","0","0","1","","0.1231499397","0.2","0.8","0.4","0.6","0.1966535246","0.4916783795","0.1231499397","0.1597390633","","","","","","","","","","","","","","75","K","2","","","134","main_expt",""
"","bandit","214","777411","0.0-176.0-0.0","90762284","wem/bandit_party_1","A33FA1VLSTBM74","either","2","485","","","","","","","0","0","1","","0.1524236556","0.2","0.8","0.4","0.6","0.2290191974","0.4904315354","0.1524236556","0.1460070414","","","","","","","","","","","","","","75","K","2","","","135","main_expt",""
"","bandit","215","779428","0.0-177.0-0.0","90762284","wem/bandit_party_1","A33FA1VLSTBM74","either","2","480","","","","","","","0","0","1","0.1954247664","","0.2","0.8","0.4","0.6","","","","","0.2929229053","0.491666595","0.1954247664","0.105474526","","","","","","","","","","75","K","2","","","136","main_expt",""
"","bandit","216","781472","0.0-178.0-0.0","90762284","wem/bandit_party_1","A33FA1VLSTBM74","either","2","512","","","","","","","0","0","1","","0.1833989084","0.2","0.8","0.4","0.6","0.2780805385","0.4917142499","0.1833989084","0.08835118593","","","","","","","","","","","","","","75","K","2","","","137","main_expt",""
"","bandit","217","783558","0.0-179.0-0.0","90762284","wem/bandit_party_1","A33FA1VLSTBM74","either","2","551","","","","","","","0","0","1","","0.1490533902","0.2","0.8","0.4","0.6","0.217224157","0.4870170403","0.1490533902","0.06418360449","","","","","","","","","","","","","","75","K","2","","","138","main_expt",""
"","bandit","218","785550","0.0-180.0-0.0","90762284","wem/bandit_party_1","A33FA1VLSTBM74","either","2","458","","","","","","","0","0","1","0.1318817547","","0.2","0.8","0.4","0.6","","","","","0.2323391466","0.4834992155","0.1318817547","0.03554325754","","","","","","","","","","75","K","2","","","139","main_expt",""
"","bandit","219","787528","0.0-181.0-0.0","90762284","wem/bandit_party_1","A33FA1VLSTBM74","either","2","444","","","","","","","1","0","0","0.1877412345","","0.2","0.8","0.4","0.6","","","","","0.244475209","0.4927392517","0.1877412345","0.04477370895","","","","","","","","","","75","K","2","","","140","main_expt",""
"","bandit","220","789525","0.0-182.0-0.0","90762284","wem/bandit_party_1","A33FA1VLSTBM74","either","2","462","","","","","","","0","0","1","0.03780119019","","0.2","0.8","0.4","0.6","","","","","0.232604034","0.4872377518","0.2363671377","0.03780119019","","","","","","","","","","76","L","3","","","141","main_expt",""
"","bandit","221","791481","0.0-183.0-0.0","90762284","wem/bandit_party_1","A33FA1VLSTBM74","either","2","417","","","","","","","0","0","1","","0.03149913875","0.2","0.8","0.4","0.6","0.2447345556","0.4846254936","0.2546402356","0.03149913875","","","","","","","","","","","","","","76","L","3","","","142","main_expt",""
"","bandit","222","793645","0.0-184.0-0.0","90762284","wem/bandit_party_1","A33FA1VLSTBM74","either","2","627","","","","","","","0","0","1","0.04191513266","","0.2","0.8","0.4","0.6","","","","","0.26413271","0.4815328815","0.2825544685","0.04191513266","","","","","","","","","","76","L","3","","","143","main_expt",""
"","bandit","223","795667","0.0-185.0-0.0","90762284","wem/bandit_party_1","A33FA1VLSTBM74","either","2","484","","","","","","","0","0","1","","0.05613120157","0.2","0.8","0.4","0.6","0.1988203511","0.4854048375","0.2731230023","0.05613120157","","","","","","","","","","","","","","76","L","3","","","144","main_expt",""
"","bandit","224","797713","0.0-186.0-0.0","90762284","wem/bandit_party_1","A33FA1VLSTBM74","either","2","512","","","","","","","0","0","1","","0.217822638","0.2","0.8","0.4","0.6","0.217822638","0.4813029389","0.2943814715","0.03827589539","","","","","","","","","","","","","","72","H","0","img/none_selected.jpg","","145","main_expt",""
"","bandit","225","799730","0.0-187.0-0.0","90762284","wem/bandit_party_1","A33FA1VLSTBM74","either","2","480","","","","","","","0","0","1","","0.2009042904","0.2","0.8","0.4","0.6","0.2009042904","0.4884824202","0.328634005","0.02861175853","","","","","","","","","","","","","","72","H","0","img/none_selected.jpg","","146","main_expt",""
"","bandit","226","801681","0.0-188.0-0.0","90762284","wem/bandit_party_1","A33FA1VLSTBM74","either","2","406","","","","","","","0","0","1","","0.2080446297","0.2","0.8","0.4","0.6","0.2080446297","0.4835291327","0.3511209141","0.02140640811","","","","","","","","","","","","","","72","H","0","img/none_selected.jpg","","147","main_expt",""
"","bandit","227","803656","0.0-189.0-0.0","90762284","wem/bandit_party_1","A33FA1VLSTBM74","either","2","434","","","","","","","0","1","0","","0.1536700415","0.2","0.8","0.4","0.6","0.1536700415","0.4716003481","0.3874996206","0.0202041473","","","","","","","","","","","","","","72","H","0","img/none_selected.jpg","","148","main_expt",""
"","bandit","228","805619","0.0-190.0-0.0","90762284","wem/bandit_party_1","A33FA1VLSTBM74","either","2","426","","","","","","","0","0","1","","0.1593661633","0.2","0.8","0.4","0.6","0.1593661633","0.4341886607","0.3476646045","0.01154190459","","","","","","","","","","","","","","72","H","0","img/none_selected.jpg","","149","main_expt",""
"","bandit","229","807577","0.0-191.0-0.0","90762284","wem/bandit_party_1","A33FA1VLSTBM74","either","2","423","","","","","","","0","0","1","","0.144955896","0.2","0.8","0.4","0.6","0.144955896","0.4014438172","0.3323010919","0.01291237021","","","","","","","","","","","","","","72","H","0","img/none_selected.jpg","","150","main_expt",""
"","bandit","230","809534","0.0-192.0-0.0","90762284","wem/bandit_party_1","A33FA1VLSTBM74","either","2","421","","","","","","","0","0","1","","0.2123564028","0.2","0.8","0.4","0.6","0.2123564028","0.3980713407","0.3954477196","0.0137789916","","","","","","","","","","","","","","72","H","0","img/none_selected.jpg","","151","main_expt",""
"","bandit","231","811426","0.0-193.0-0.0","90762284","wem/bandit_party_1","A33FA1VLSTBM74","either","2","357","","","","","","","0","1","0","","0.2301890466","0.2","0.8","0.4","0.6","0.2301890466","0.4002357887","0.4186327087","0.01985271471","","","","","","","","","","","","","","72","H","0","img/none_selected.jpg","","152","main_expt",""
"","bandit","232","813476","0.0-194.0-0.0","90762284","wem/bandit_party_1","A33FA1VLSTBM74","either","2","525","","","","","","","0","1","0","","0.388677987","0.2","0.8","0.4","0.6","0.2295153641","0.388677987","0.4029566754","0.02951100453","","","","","","","","","","","","","","74","J","1","","","153","main_expt",""
"","bandit","233","815448","0.0-195.0-0.0","90762284","wem/bandit_party_1","A33FA1VLSTBM74","either","2","449","","","","","","","0","0","1","0.3817747688","","0.2","0.8","0.4","0.6","","","","","0.2163321136","0.3817747688","0.4037751878","0.02325572033","","","","","","","","","","74","J","1","","","154","main_expt",""
"","bandit","234","817379","0.0-196.0-0.0","90762284","wem/bandit_party_1","A33FA1VLSTBM74","either","2","397","","","","","","","0","0","1","0.327727533","","0.2","0.8","0.4","0.6","","","","","0.2257858177","0.327727533","0.4078727314","0.03925092562","","","","","","","","","","74","J","1","","","155","main_expt",""
"","bandit","235","819285","0.0-197.0-0.0","90762284","wem/bandit_party_1","A33FA1VLSTBM74","either","2","372","","","","","","","0","0","1","0.2821504166","","0.2","0.8","0.4","0.6","","","","","0.2077891775","0.2821504166","0.3941681487","0.05532081832","","","","","","","","","","74","J","1","","","156","main_expt",""
"","bandit","236","821343","0.0-198.0-0.0","90762284","wem/bandit_party_1","A33FA1VLSTBM74","either","2","531","","","","","","","0","0","1","0.3417147062","","0.2","0.8","0.4","0.6","","","","","0.1742908387","0.2784527126","0.3417147062","0.05983660039","","","","","","","","","","75","K","2","","","157","main_expt",""
"","bandit","237","823227","0.0-199.0-0.0","90762284","wem/bandit_party_1","A33FA1VLSTBM74","either","2","339","","","","","","","0","0","1","0.2963220618","","0.2","0.8","0.4","0.6","","","","","0.162057643","0.2857058734","0.2963220618","0.09347744845","","","","","","","","","","75","K","2","","","158","main_expt",""
"","bandit","238","825207","0.0-200.0-0.0","90762284","wem/bandit_party_1","A33FA1VLSTBM74","either","2","441","","","","","","","0","0","1","0.2349295223","","0.2","0.8","0.4","0.6","","","","","0.1805514511","0.2349295223","0.2961528309","0.09649648717","","","","","","","","","","74","J","1","","","159","main_expt",""
"","bandit","239","827167","0.0-201.0-0.0","90762284","wem/bandit_party_1","A33FA1VLSTBM74","either","2","420","","","","","","","0","0","1","0.2275717407","","0.2","0.8","0.4","0.6","","","","","0.1724629995","0.2275717407","0.2842772575","0.08382429791","","","","","","","","","","74","J","1","","","160","main_expt",""
"","bandit","240","829159","0.0-202.0-0.0","90762284","wem/bandit_party_1","A33FA1VLSTBM74","either","2","468","","","","","","","0","0","1","0.2747674873","","0.2","0.8","0.4","0.6","","","","","0.1660992999","0.2559884592","0.2747674873","0.1466352983","","","","","","","","","","75","K","2","","","161","main_expt",""
"","bandit","241","831107","0.0-203.0-0.0","90762284","wem/bandit_party_1","A33FA1VLSTBM74","either","2","413","","","","","","","0","0","1","","0.2993190406","0.2","0.8","0.4","0.6","0.2281832109","0.2670526618","0.2993190406","0.1569467617","","","","","","","","","","","","","","75","K","2","","","162","main_expt",""
"","bandit","242","845684","0.0-204.0-0.0","90762284","wem/bandit_party_1","A33FA1VLSTBM74","either","2","13036","","","","","","","0","0","1","0.2144285545","","0.2","0.8","0.4","0.6","","","","","0.2144285545","0.2618894379","0.3102408377","0.1437935099","","","","","","","","","","72","H","0","img/none_selected.jpg","","163","main_expt",""
"","bandit","243","847899","0.0-205.0-0.0","90762284","wem/bandit_party_1","A33FA1VLSTBM74","either","2","677","","","","","","","0","0","1","","0.2131293933","0.2","0.8","0.4","0.6","0.2131293933","0.2977476978","0.2607878409","0.1503677763","","","","","","","","","","","","","","72","H","0","img/none_selected.jpg","","164","main_expt",""
"","bandit","244","849657","0.0-206.0-0.0","90762284","wem/bandit_party_1","A33FA1VLSTBM74","either","2","220","","","","","","","1","0","0","0.251698227","","0.2","0.8","0.4","0.6","","","","","0.251698227","0.3138636066","0.2470054868","0.1574825995","","","","","","","","","","72","H","0","img/none_selected.jpg","","165","main_expt",""
"","bandit","245","851638","0.0-207.0-0.0","90762284","wem/bandit_party_1","A33FA1VLSTBM74","either","2","431","","","","","","","0","1","0","","0.2831539445","0.2","0.8","0.4","0.6","0.2831539445","0.3204338644","0.2629624785","0.1500633275","","","","","","","","","","","","","","72","H","0","img/none_selected.jpg","","166","main_expt",""
"","bandit","246","853582","0.0-208.0-0.0","90762284","wem/bandit_party_1","A33FA1VLSTBM74","either","2","409","","","","","","","0","0","1","","0.2496169508","0.2","0.8","0.4","0.6","0.2496169508","0.3600517585","0.2745713682","0.1137242654","","","","","","","","","","","","","","72","H","0","img/none_selected.jpg","","167","main_expt",""
"","bandit","247","855377","0.0-209.0-0.0","90762284","wem/bandit_party_1","A33FA1VLSTBM74","either","2","243","","","","","","","0","0","1","","0.2315540067","0.2","0.8","0.4","0.6","0.2315540067","0.3678373827","0.2557249153","0.145192941","","","","","","","","","","","","","","72","H","0","img/none_selected.jpg","","168","main_expt",""
"","bandit","248","857391","0.0-210.0-0.0","90762284","wem/bandit_party_1","A33FA1VLSTBM74","either","2","487","","","","","","","1","0","0","0.1825517174","","0.2","0.8","0.4","0.6","","","","","0.1825517174","0.3421512568","0.2016321063","0.1863479632","","","","","","","","","","72","H","0","img/none_selected.jpg","","169","main_expt",""
"","bandit","249","859388","0.0-211.0-0.0","90762284","wem/bandit_party_1","A33FA1VLSTBM74","either","2","459","","","","","","","0","0","1","","0.2535959064","0.2","0.8","0.4","0.6","0.2535959064","0.3917895485","0.2210696627","0.142304713","","","","","","","","","","","","","","72","H","0","img/none_selected.jpg","","170","main_expt",""
"","bandit","250","861320","0.0-212.0-0.0","90762284","wem/bandit_party_1","A33FA1VLSTBM74","either","2","394","","","","","","","0","0","1","","0.3004284576","0.2","0.8","0.4","0.6","0.3004284576","0.3206692194","0.1627904758","0.1739768979","","","","","","","","","","","","","","72","H","0","img/none_selected.jpg","","171","main_expt",""
"","bandit","251","863253","0.0-213.0-0.0","90762284","wem/bandit_party_1","A33FA1VLSTBM74","either","2","383","","","","","","","0","0","1","","0.2716191145","0.2","0.8","0.4","0.6","0.2716191145","0.3198600846","0.1421076649","0.2172659048","","","","","","","","","","","","","","72","H","0","img/none_selected.jpg","","172","main_expt",""
"","bandit","252","865213","0.0-214.0-0.0","90762284","wem/bandit_party_1","A33FA1VLSTBM74","either","2","426","","","","","","","0","1","0","","0.2641483633","0.2","0.8","0.4","0.6","0.3253138029","0.2641483633","0.165050165","0.2419731025","","","","","","","","","","","","","","74","J","1","","","173","main_expt",""
"","bandit","253","867353","0.0-215.0-0.0","90762284","wem/bandit_party_1","A33FA1VLSTBM74","either","2","600","","","","","","","1","0","0","0.2248062597","","0.2","0.8","0.4","0.6","","","","","0.3419591401","0.2248062597","0.1406738207","0.2239571331","","","","","","","","","","74","J","1","","","174","main_expt",""
"","bandit","254","869327","0.0-216.0-0.0","90762284","wem/bandit_party_1","A33FA1VLSTBM74","either","2","433","","","","","","","0","0","1","","0.2370379408","0.2","0.8","0.4","0.6","0.3442692367","0.2370379408","0.138310495","0.2311410243","","","","","","","","","","","","","","74","J","1","","","175","main_expt",""
"","bandit","255","871367","0.0-217.0-0.0","90762284","wem/bandit_party_1","A33FA1VLSTBM74","either","2","490","","","","","","","0","0","1","0.2157433706","","0.2","0.8","0.4","0.6","","","","","0.3397266539","0.2157433706","0.1675243642","0.2610077479","","","","","","","","","","74","J","1","","","176","main_expt",""
"","bandit","256","873348","0.0-218.0-0.0","90762284","wem/bandit_party_1","A33FA1VLSTBM74","either","2","435","","","","","","","0","0","1","0.1919885971","","0.2","0.8","0.4","0.6","","","","","0.2997078274","0.2014791824","0.1919885971","0.2780938204","","","","","","","","","","75","K","2","","","177","main_expt",""
"","bandit","257","875249","0.0-219.0-0.0","90762284","wem/bandit_party_1","A33FA1VLSTBM74","either","2","362","","","","","","","0","0","1","","0.3151752793","0.2","0.8","0.4","0.6","0.3064007527","0.1913564418","0.2365392944","0.3151752793","","","","","","","","","","","","","","76","L","3","","","178","main_expt",""
"","bandit","258","877108","0.0-220.0-0.0","90762284","wem/bandit_party_1","A33FA1VLSTBM74","either","2","333","","","","","","","1","0","0","0.2799621139","","0.2","0.8","0.4","0.6","","","","","0.3533432679","0.1980728016","0.2509455726","0.2799621139","","","","","","","","","","76","L","3","","","179","main_expt",""
"","bandit","259","879071","0.0-221.0-0.0","90762284","wem/bandit_party_1","A33FA1VLSTBM74","either","2","429","","","","","","","0","0","1","","0.2767223981","0.2","0.8","0.4","0.6","0.3652522579","0.1833491223","0.2767223981","0.3170936092","","","","","","","","","","","","","","75","K","2","","","180","main_expt",""
"","bandit","260","881073","0.0-222.0-0.0","90762284","wem/bandit_party_1","A33FA1VLSTBM74","either","2","467","","","","","","","0","1","0","","0.28101752","0.2","0.8","0.4","0.6","0.3383156657","0.1342686697","0.314600373","0.28101752","","","","","","","","","","","","","","76","L","3","","","181","main_expt",""
"","bandit","261","883081","0.0-223.0-0.0","90762284","wem/bandit_party_1","A33FA1VLSTBM74","either","2","472","","","","","","","1","0","0","0.3043342224","","0.2","0.8","0.4","0.6","","","","","0.2902116232","0.1636660304","0.3943610609","0.3043342224","","","","","","","","","","76","L","3","","","182","main_expt",""
"","bandit","262","885184","0.0-224.0-0.0","90762284","wem/bandit_party_1","A33FA1VLSTBM74","either","2","566","","","","","","","1","0","0","0.3192524042","","0.2","0.8","0.4","0.6","","","","","0.3026157476","0.136761637","0.3586422101","0.3192524042","","","","","","","","","","76","L","3","","","183","main_expt",""
"","bandit","263","887246","0.0-225.0-0.0","90762284","wem/bandit_party_1","A33FA1VLSTBM74","either","2","528","","","","","","","0","0","1","0.3332516821","","0.2","0.8","0.4","0.6","","","","","0.3360229169","0.1685989701","0.3879999062","0.3332516821","","","","","","","","","","76","L","3","","","184","main_expt",""
"","bandit","264","889210","0.0-226.0-0.0","90762284","wem/bandit_party_1","A33FA1VLSTBM74","either","2","425","","","","","","","0","1","0","","0.3228184693","0.2","0.8","0.4","0.6","0.3336456265","0.1663529744","0.3831340227","0.3228184693","","","","","","","","","","","","","","76","L","3","","","185","main_expt",""
"","bandit","265","891189","0.0-227.0-0.0","90762284","wem/bandit_party_1","A33FA1VLSTBM74","either","2","438","","","","","","","1","0","0","0.3111703144","","0.2","0.8","0.4","0.6","","","","","0.3308881938","0.1916836285","0.3999004662","0.3111703144","","","","","","","","","","76","L","3","","","186","main_expt",""
"","bandit","266","893273","0.0-228.0-0.0","90762284","wem/bandit_party_1","A33FA1VLSTBM74","either","2","540","","","","","","","0","0","1","0.3353611299","","0.2","0.8","0.4","0.6","","","","","0.325530054","0.1686829448","0.3875363153","0.3353611299","","","","","","","","","","76","L","3","","","187","main_expt",""
"","bandit","267","895264","0.0-229.0-0.0","90762284","wem/bandit_party_1","A33FA1VLSTBM74","either","2","453","","","","","","","0","0","1","","0.3646937268","0.2","0.8","0.4","0.6","0.3055482451","0.1461675531","0.3875691392","0.3646937268","","","","","","","","","","","","","","76","L","3","","","188","main_expt",""
"","bandit","268","897323","0.0-230.0-0.0","90762284","wem/bandit_party_1","A33FA1VLSTBM74","either","2","517","","","","","","","0","0","1","0.3891323825","","0.2","0.8","0.4","0.6","","","","","0.3002345065","0.1382971047","0.4166866882","0.3891323825","","","","","","","","","","76","L","3","","","189","main_expt",""
"","bandit","269","899341","0.0-231.0-0.0","90762284","wem/bandit_party_1","A33FA1VLSTBM74","either","2","478","","","","","","","1","0","0","0.3860741766","","0.2","0.8","0.4","0.6","","","","","0.2693931213","0.1898135375","0.4124474499","0.3860741766","","","","","","","","","","76","L","3","","","190","main_expt",""
"","bandit","270","901420","0.0-232.0-0.0","90762284","wem/bandit_party_1","A33FA1VLSTBM74","either","2","541","","","","","","","0","1","0","","0.3864243721","0.2","0.8","0.4","0.6","0.3009284261","0.1264917812","0.3638199534","0.3864243721","","","","","","","","","","","","","","76","L","3","","","191","main_expt",""
"","bandit","271","903526","0.0-233.0-0.0","90762284","wem/bandit_party_1","A33FA1VLSTBM74","either","2","562","","","","","","","0","0","1","0.400448014","","0.2","0.8","0.4","0.6","","","","","0.3157917784","0.1185409567","0.3711146034","0.400448014","","","","","","","","","","76","L","3","","","192","main_expt",""
"","bandit","272","905537","0.0-234.0-0.0","90762284","wem/bandit_party_1","A33FA1VLSTBM74","either","2","471","","","","","","","0","0","1","0.3895367297","","0.2","0.8","0.4","0.6","","","","","0.2999212614","0.09837948322","0.3654165885","0.3895367297","","","","","","","","","","76","L","3","","","193","main_expt",""
"","bandit","273","907609","0.0-235.0-0.0","90762284","wem/bandit_party_1","A33FA1VLSTBM74","either","2","533","","","","","","","0","0","1","0.4032313792","","0.2","0.8","0.4","0.6","","","","","0.3287494418","0.137690802","0.3537818584","0.4032313792","","","","","","","","","","76","L","3","","","194","main_expt",""
"","bandit","274","909579","0.0-236.0-0.0","90762284","wem/bandit_party_1","A33FA1VLSTBM74","either","2","429","","","","","","","0","0","1","0.337234763","","0.2","0.8","0.4","0.6","","","","","0.3031978913","0.1683354775","0.3597494918","0.337234763","","","","","","","","","","76","L","3","","","195","main_expt",""
"","bandit","275","911588","0.0-237.0-0.0","90762284","wem/bandit_party_1","A33FA1VLSTBM74","either","2","481","","","","","","","0","0","1","0.3950764453","","0.2","0.8","0.4","0.6","","","","","0.2901303692","0.1561951964","0.3479121901","0.3950764453","","","","","","","","","","76","L","3","","","196","main_expt",""
"","bandit","276","913637","0.0-238.0-0.0","90762284","wem/bandit_party_1","A33FA1VLSTBM74","either","2","507","","","","","","","0","0","1","","0.3596292454","0.2","0.8","0.4","0.6","0.2444781728","0.1329868482","0.3596292454","0.4193743727","","","","","","","","","","","","","","75","K","2","","","197","main_expt",""
"","bandit","277","915662","0.0-239.0-0.0","90762284","wem/bandit_party_1","A33FA1VLSTBM74","either","2","482","","","","","","","0","1","0","","0.3555371828","0.2","0.8","0.4","0.6","0.2140047665","0.1730826789","0.3555371828","0.4375347816","","","","","","","","","","","","","","75","K","2","","","198","main_expt",""
"","bandit","278","917674","0.0-240.0-0.0","90762284","wem/bandit_party_1","A33FA1VLSTBM74","either","2","476","","","","","","","0","1","0","","0.4016486285","0.2","0.8","0.4","0.6","0.2077842613","0.1385649096","0.4016486285","0.4315030007","","","","","","","","","","","","","","75","K","2","","","199","main_expt",""
"","bandit","279","919755","0.0-241.0-0.0","90762284","wem/bandit_party_1","A33FA1VLSTBM74","either","2","546","","","","","","","0","0","1","","0.3871107612","0.2","0.8","0.4","0.6","0.180488049","0.1941139053","0.3871107612","0.4340108373","","","","","","","","","","","","","","75","K","2","","","200","main_expt",""
"","bandit","280","921732","0.0-242.0-0.0","90762284","wem/bandit_party_1","A33FA1VLSTBM74","either","2","429","","","","","","","0","0","1","","0.3856539452","0.2","0.8","0.4","0.6","0.2084987087","0.1825013029","0.3856539452","0.441078118","","","","","","","","","","","","","","75","K","2","","","201","main_expt",""
"","bandit","281","923701","0.0-243.0-0.0","90762284","wem/bandit_party_1","A33FA1VLSTBM74","either","2","420","","","","","","","0","0","1","","0.358588673","0.2","0.8","0.4","0.6","0.1869669721","0.162440572","0.358588673","0.4143682719","","","","","","","","","","","","","","75","K","2","","","202","main_expt",""
"","bandit","282","925962","0.0-244.0-0.0","90762284","wem/bandit_party_1","A33FA1VLSTBM74","either","2","724","","","","","","","0","0","1","","0.3460881607","0.2","0.8","0.4","0.6","0.1383076553","0.1914238456","0.3460881607","0.4280720422","","","","","","","","","","","","","","75","K","2","","","203","main_expt",""
"","bandit","283","928036","0.0-245.0-0.0","90762284","wem/bandit_party_1","A33FA1VLSTBM74","either","2","534","","","","","","","1","0","0","0.3091432968","","0.2","0.8","0.4","0.6","","","","","0.1656187697","0.1849793247","0.3091432968","0.4113524858","","","","","","","","","","75","K","2","","","204","main_expt",""
"","bandit","284","930100","0.0-246.0-0.0","90762284","wem/bandit_party_1","A33FA1VLSTBM74","either","2","529","","","","","","","0","0","1","","0.1699285253","0.2","0.8","0.4","0.6","0.1699285253","0.1722293799","0.3016396897","0.4151465815","","","","","","","","","","","","","","72","H","0","img/none_selected.jpg","","205","main_expt",""
"","bandit","285","932105","0.0-247.0-0.0","90762284","wem/bandit_party_1","A33FA1VLSTBM74","either","2","477","","","","","","","0","1","0","","0.161732949","0.2","0.8","0.4","0.6","0.161732949","0.1625694713","0.3300702997","0.4002359997","","","","","","","","","","","","","","72","H","0","img/none_selected.jpg","","206","main_expt",""
"","bandit","286","934163","0.0-248.0-0.0","90762284","wem/bandit_party_1","A33FA1VLSTBM74","either","2","515","","","","","","","0","0","1","","0.1699017951","0.2","0.8","0.4","0.6","0.1699017951","0.1079769143","0.2648848683","0.3692387261","","","","","","","","","","","","","","72","H","0","img/none_selected.jpg","","207","main_expt",""
"","bandit","287","936274","0.0-249.0-0.0","90762284","wem/bandit_party_1","A33FA1VLSTBM74","either","2","572","","","","","","","0","0","1","","0.1592107695","0.2","0.8","0.4","0.6","0.1592107695","0.1380178959","0.2502792914","0.3283471685","","","","","","","","","","","","","","72","H","0","img/none_selected.jpg","","208","main_expt",""
"","bandit","288","938447","0.0-250.0-0.0","90762284","wem/bandit_party_1","A33FA1VLSTBM74","either","2","640","","","","","","","0","0","1","0.1538506734","","0.2","0.8","0.4","0.6","","","","","0.1659907122","0.1538506734","0.2770073026","0.2924758898","","","","","","","","","","74","J","1","","","209","main_expt",""
"","bandit","289","940447","0.0-251.0-0.0","90762284","wem/bandit_party_1","A33FA1VLSTBM74","either","2","457","","","","","","","0","0","1","0.1406222791","","0.2","0.8","0.4","0.6","","","","","0.229525517","0.1406222791","0.3451435735","0.2279470939","","","","","","","","","","74","J","1","","","210","main_expt",""
"","bandit","290","942455","0.0-252.0-0.0","90762284","wem/bandit_party_1","A33FA1VLSTBM74","either","2","465","","","","","","","0","0","1","0.08987887408","","0.2","0.8","0.4","0.6","","","","","0.2434605193","0.08987887408","0.3514478275","0.2131844406","","","","","","","","","","74","J","1","","","211","main_expt",""
"","bandit","291","944485","0.0-253.0-0.0","90762284","wem/bandit_party_1","A33FA1VLSTBM74","either","2","489","","","","","","","0","0","1","0.1277875359","","0.2","0.8","0.4","0.6","","","","","0.1633214123","0.1277875359","0.3579324364","0.1601793481","","","","","","","","","","74","J","1","","","212","main_expt",""
"","bandit","292","946394","0.0-254.0-0.0","90762284","wem/bandit_party_1","A33FA1VLSTBM74","either","2","371","","","","","","","0","0","1","0.3231243524","","0.2","0.8","0.4","0.6","","","","","0.1014835246","0.134271297","0.3231243524","0.1354109392","","","","","","","","","","75","K","2","","","213","main_expt",""
"","bandit","293","948154","0.0-255.0-0.0","90762284","wem/bandit_party_1","A33FA1VLSTBM74","either","2","209","","","","","","","0","1","0","","0.2798540136","0.2","0.8","0.4","0.6","0.09587264096","0.1385204111","0.2798540136","0.1142105534","","","","","","","","","","","","","","75","K","2","","","214","main_expt",""
"","bandit","294","950190","0.0-256.0-0.0","90762284","wem/bandit_party_1","A33FA1VLSTBM74","either","2","502","","","","","","","0","0","1","","0.2469391402","0.2","0.8","0.4","0.6","0.08342689115","0.1089132689","0.2469391402","0.1031311673","","","","","","","","","","","","","","75","K","2","","","215","main_expt",""
"","bandit","295","952186","0.0-257.0-0.0","90762284","wem/bandit_party_1","A33FA1VLSTBM74","either","2","459","","","","","","","0","1","0","","0.3211823944","0.2","0.8","0.4","0.6","0.05361264496","0.1299508563","0.3211823944","0.1031732366","","","","","","","","","","","","","","75","K","2","","","216","main_expt",""
"","bandit","296","954255","0.0-258.0-0.0","90762284","wem/bandit_party_1","A33FA1VLSTBM74","either","2","527","","","","","","","0","0","1","","0.3545519007","0.2","0.8","0.4","0.6","0.09912420903","0.131109262","0.3545519007","0.1188097379","","","","","","","","","","","","","","75","K","2","","","217","main_expt",""
"","bandit","297","956247","0.0-259.0-0.0","90762284","wem/bandit_party_1","A33FA1VLSTBM74","either","2","444","","","","","","","0","0","1","0.3781539282","","0.2","0.8","0.4","0.6","","","","","0.1021137889","0.1039495344","0.3781539282","0.1096623481","","","","","","","","","","75","K","2","","","218","main_expt",""
"","bandit","298","958217","0.0-260.0-0.0","90762284","wem/bandit_party_1","A33FA1VLSTBM74","either","2","431","","","","","","","0","1","0","","0.3674409598","0.2","0.8","0.4","0.6","0.1025207236","0.09488552944","0.3674409598","0.08679630722","","","","","","","","","","","","","","75","K","2","","","219","main_expt",""
"","bandit","299","960252","0.0-261.0-0.0","90762284","wem/bandit_party_1","A33FA1VLSTBM74","either","2","493","","","","","","","0","0","1","0.315237632","","0.2","0.8","0.4","0.6","","","","","0.1049734862","0.1311925698","0.315237632","0.1482089448","","","","","","","","","","75","K","2","","","220","main_expt",""
"","bandit","300","962354","0.0-262.0-0.0","90762284","wem/bandit_party_1","A33FA1VLSTBM74","either","2","556","","","","","","","0","0","1","0.3572442142","","0.2","0.8","0.4","0.6","","","","","0.08244295151","0.08224132258","0.3572442142","0.217172314","","","","","","","","","","75","K","2","","","221","main_expt",""
"","bandit","301","964321","0.0-263.0-0.0","90762284","wem/bandit_party_1","A33FA1VLSTBM74","either","2","415","","","","","","","1","0","0","0.2796125419","","0.2","0.8","0.4","0.6","","","","","0.09815111748","0.06870998364","0.2796125419","0.2227738938","","","","","","","","","","75","K","2","","","222","main_expt",""
"","bandit","302","966386","0.0-264.0-0.0","90762284","wem/bandit_party_1","A33FA1VLSTBM74","either","2","516","","","","","","","0","0","1","","0.2265565182","0.2","0.8","0.4","0.6","0.09925351505","0.111762886","0.2265565182","0.2768694491","","","","","","","","","","","","","","75","K","2","","","223","main_expt",""
"","bandit","303","968369","0.0-265.0-0.0","90762284","wem/bandit_party_1","A33FA1VLSTBM74","either","2","449","","","","","","","0","0","1","0.1727872262","","0.2","0.8","0.4","0.6","","","","","0.07842644678","0.09652303785","0.1727872262","0.2895694018","","","","","","","","","","75","K","2","","","224","main_expt",""
"","bandit","304","970286","0.0-266.0-0.0","90762284","wem/bandit_party_1","A33FA1VLSTBM74","either","2","380","","","","","","","0","0","1","","0.1580797834","0.2","0.8","0.4","0.6","0.05284632075","0.09424892582","0.1580797834","0.3515154126","","","","","","","","","","","","","","75","K","2","","","225","main_expt",""
"","bandit","305","972271","0.0-267.0-0.0","90762284","wem/bandit_party_1","A33FA1VLSTBM74","either","2","446","","","","","","","0","0","1","","0.06788221328","0.2","0.8","0.4","0.6","0.06788221328","0.1094697254","0.1206031336","0.3960872924","","","","","","","","","","","","","","72","H","0","img/none_selected.jpg","","226","main_expt",""
"","bandit","306","974202","0.0-268.0-0.0","90762284","wem/bandit_party_1","A33FA1VLSTBM74","either","2","396","","","","","","","0","1","0","","0.1055794081","0.2","0.8","0.4","0.6","0.04226868229","0.1055794081","0.1218099769","0.3301105445","","","","","","","","","","","","","","74","J","1","","","227","main_expt",""
"","bandit","307","976308","0.0-269.0-0.0","90762284","wem/bandit_party_1","A33FA1VLSTBM74","either","2","563","","","","","","","0","0","1","0.3679650562","","0.2","0.8","0.4","0.6","","","","","0.06174471126","0.1210232629","0.08458740206","0.3679650562","","","","","","","","","","76","L","3","","","228","main_expt",""
"","bandit","308","978341","0.0-270.0-0.0","90762284","wem/bandit_party_1","A33FA1VLSTBM74","either","2","490","","","","","","","0","0","1","","0.1249199002","0.2","0.8","0.4","0.6","0.06122033102","0.1249199002","0.06311990622","0.3413725311","","","","","","","","","","","","","","74","J","1","","","229","main_expt",""
"","bandit","309","980232","0.0-271.0-0.0","90762284","wem/bandit_party_1","A33FA1VLSTBM74","either","2","345","","","","","","","0","0","1","","0.04674316758","0.2","0.8","0.4","0.6","0.09369367087","0.1423167866","0.04674316758","0.3652503211","","","","","","","","","","","","","","75","K","2","","","230","main_expt",""
"","bandit","310","982182","0.0-272.0-0.0","90762284","wem/bandit_party_1","A33FA1VLSTBM74","either","2","408","","","","","","","0","0","1","","0.3774172636","0.2","0.8","0.4","0.6","0.1378364932","0.1441411413","0.06697327866","0.3774172636","","","","","","","","","","","","","","76","L","3","","","231","main_expt",""
"","bandit","311","984056","0.0-273.0-0.0","90762284","wem/bandit_party_1","A33FA1VLSTBM74","either","2","329","","","","","","","0","0","1","","0.1138343256","0.2","0.8","0.4","0.6","0.1138343256","0.1132866493","0.08617656909","0.3507397895","","","","","","","","","","","","","","72","H","0","img/none_selected.jpg","","232","main_expt",""
"","bandit","312","986035","0.0-274.0-0.0","90762284","wem/bandit_party_1","A33FA1VLSTBM74","either","2","436","","","","","","","0","0","1","0.08388286328","","0.2","0.8","0.4","0.6","","","","","0.1602674987","0.07587191469","0.08388286328","0.3228668676","","","","","","","","","","75","K","2","","","233","main_expt",""
"","bandit","313","988038","0.0-275.0-0.0","90762284","wem/bandit_party_1","A33FA1VLSTBM74","either","2","446","","","","","","","0","0","1","0.08330376307","","0.2","0.8","0.4","0.6","","","","","0.1399599793","0.08330376307","0.08303297831","0.3219168209","","","","","","","","","","74","J","1","","","234","main_expt",""
"","bandit","314","989883","0.0-276.0-0.0","90762284","wem/bandit_party_1","A33FA1VLSTBM74","either","2","315","","","","","","","0","0","1","0.07960395758","","0.2","0.8","0.4","0.6","","","","","0.1577883936","0.07960395758","0.08228619446","0.2907257894","","","","","","","","","","74","J","1","","","235","main_expt",""
"","bandit","315","991916","0.0-277.0-0.0","90762284","wem/bandit_party_1","A33FA1VLSTBM74","either","2","491","","","","","","","0","0","1","","0.07856112713","0.2","0.8","0.4","0.6","0.1206463377","0.06703487678","0.07856112713","0.2879125653","","","","","","","","","","","","","","75","K","2","","","236","main_expt",""
"","bandit","316","993885","0.0-278.0-0.0","90762284","wem/bandit_party_1","A33FA1VLSTBM74","either","2","425","","","","","","","0","0","1","","0.1224948263","0.2","0.8","0.4","0.6","0.1224948263","0.07970276757","0.09394336493","0.3055933028","","","","","","","","","","","","","","72","H","0","img/none_selected.jpg","","237","main_expt",""
