"consent","trial_type","trial_index","time_elapsed","internal_node_id","subjID","study","MID","cond","drift","rt","responses","button_pressed","key_press","like","value","connected","gems","bombs","no_reward","GemPrChosen","BombPrChosen","GainOverPainPr_0","GainOverPainPr_1","GainOverPainPr_2","GainOverPainPr_3","LosePr_0","LosePr_1","LosePr_2","LosePr_3","WinPr_0","WinPr_1","WinPr_2","WinPr_3","Q0","Q1","Q2","gender","age","ethnicity","label","expt_phase","target","respCharCode","respKey","respChoiceNum","respChoice","practice","trial_counter","trial_label","Q0_index","view_history"
"GDM/GDM_behavioral_consent_30min_online.html","consent","0","8108","0.0-0.0","91027214","wem/bandit_party_1","AUG2YR37BY9BK","either","5","","","","","","","","","","","","","","","","","","","","","","","","","","","","","","","","","","","","","","","","","",""
"","survey-text","1","10837","0.0-1.0","91027214","wem/bandit_party_1","AUG2YR37BY9BK","either","5","1716","{""Q0"":""AUG2YR37BY9BK""}","","","","","","","","","","","","","","","","","","","","","","","","","","","","","","","","","","","","","","","",""
"","button-response","2","13035","0.0-2.0","91027214","wem/bandit_party_1","AUG2YR37BY9BK","either","5","1189","","0","","","","","","","","","","","","","","","","","","","","","","","","","","","","","","","","","","","","","","",""
"","text-replacement","3","17970","0.0-3.0","91027214","wem/bandit_party_1","AUG2YR37BY9BK","either","5","3931","","","32","","","","","","","","","","","","","","","","","","","","","","","","","","","","","","","","","","","","","",""
"","text-replacement","4","28293","0.0-4.0","91027214","wem/bandit_party_1","AUG2YR37BY9BK","either","5","10321","","","32","","","","","","","","","","","","","","","","","","","","","","","","","","","","","","","","","","","","","",""
"","identification","5","40262","0.0-6.0-0.0","91027214","wem/bandit_party_1","AUG2YR37BY9BK","either","5","11960","","","","2","2","0","","","","","","","","","","","","","","","","","","","","","","","","pre","identification_pre","the Democratic Party","","","","","","","","",""
"","identification","6","46489","0.0-6.0-1.0","91027214","wem/bandit_party_1","AUG2YR37BY9BK","either","5","5219","","","","5","5","5","","","","","","","","","","","","","","","","","","","","","","","","pre","identification_pre","the Republican party","","","","","","","","",""
"","text-replacement","7","52713","0.0-7.0","91027214","wem/bandit_party_1","AUG2YR37BY9BK","either","5","5220","","","32","","","","","","","","","","","","","","","","","","","","","","","","","","","","","","","","","","","","","",""
"","text-replacement","8","53652","0.0-8.0","91027214","wem/bandit_party_1","AUG2YR37BY9BK","either","5","938","","","32","","","","","","","","","","","","","","","","","","","","","","","","","","","","","","","","","","","","","",""
"","text-replacement","9","54008","0.0-9.0","91027214","wem/bandit_party_1","AUG2YR37BY9BK","either","5","355","","","32","","","","","","","","","","","","","","","","","","","","","","","","","","","","","","","","","","","","","",""
"","text-replacement","10","54326","0.0-10.0","91027214","wem/bandit_party_1","AUG2YR37BY9BK","either","5","317","","","32","","","","","","","","","","","","","","","","","","","","","","","","","","","","","","","","","","","","","",""
"","text-replacement","11","54858","0.0-11.0","91027214","wem/bandit_party_1","AUG2YR37BY9BK","either","5","530","","","32","","","","","","","","","","","","","","","","","","","","","","","","","","","","","","","","","","","","","",""
"","bandit","12","57558","0.0-12.0-0.0","91027214","wem/bandit_party_1","AUG2YR37BY9BK","either","5","1193","","","","","","","0","0","1","0","0","","","","","0","","","","0","","","","","","","","","","","","","74","J","0","img/none_selected_demo.jpg","true","0","","",""
"","bandit","13","59755","0.0-13.0-0.0","91027214","wem/bandit_party_1","AUG2YR37BY9BK","either","5","690","","","","","","","0","0","1","0","0","","","","","0","","","","0","","","","","","","","","","","","","75","K","0","img/none_selected_demo.jpg","true","0","","",""
"","text-replacement","14","60924","0.0-14.0","91027214","wem/bandit_party_1","AUG2YR37BY9BK","either","5","1168","","","32","","","","","","","","","","","","","","","","","","","","","","","","","","","","","","","","","","","","","",""
"","text-replacement","15","63785","0.0-15.0","91027214","wem/bandit_party_1","AUG2YR37BY9BK","either","5","2859","","","32","","","","","","","","","","","","","","","","","","","","","","","","","","","","","","","","","","","","","",""
"","text-replacement","16","64636","0.0-16.0","91027214","wem/bandit_party_1","AUG2YR37BY9BK","either","5","849","","","32","","","","","","","","","","","","","","","","","","","","","","","","","","","","","","","","","","","","","",""
"","text-replacement","17","65514","0.0-17.0","91027214","wem/bandit_party_1","AUG2YR37BY9BK","either","5","878","","","32","","","","","","","","","","","","","","","","","","","","","","","","","","","","","","","","","","","","","",""
"","bandit","18","68024","0.0-18.0-0.0","91027214","wem/bandit_party_1","AUG2YR37BY9BK","either","5","1005","","","","","","","0","1","0","","0.8","0.5","0.5","","","0.8","0.2","","","","","","","","","","","","","","","","74","J","0","img/none_selected_demo.jpg","true","0","80_20_practice","",""
"","bandit","19","71252","0.0-18.0-1.0","91027214","wem/bandit_party_1","AUG2YR37BY9BK","either","5","1716","","","","","","","1","0","0","0.2","","0.5","0.5","","","","","","","0.8","0.2","","","","","","","","","","","","75","K","1","","true","0","80_20_practice","",""
"","bandit","20","73353","0.0-18.0-2.0","91027214","wem/bandit_party_1","AUG2YR37BY9BK","either","5","590","","","","","","","0","1","0","","0.8","0.5","0.5","","","0.8","0.2","","","","","","","","","","","","","","","","74","J","0","img/none_selected_demo.jpg","true","0","80_20_practice","",""
"","bandit","21","75297","0.0-18.0-3.0","91027214","wem/bandit_party_1","AUG2YR37BY9BK","either","5","433","","","","","","","0","0","1","0.2","","0.5","0.5","","","","","","","0.8","0.2","","","","","","","","","","","","75","K","1","","true","0","80_20_practice","",""
"","bandit","22","77568","0.0-18.0-4.0","91027214","wem/bandit_party_1","AUG2YR37BY9BK","either","5","761","","","","","","","0","0","1","","0.2","0.5","0.5","","","0.8","0.2","","","","","","","","","","","","","","","","75","K","1","","true","0","80_20_practice","",""
"","bandit","23","79431","0.0-18.0-5.0","91027214","wem/bandit_party_1","AUG2YR37BY9BK","either","5","350","","","","","","","0","0","1","0.2","","0.5","0.5","","","","","","","0.8","0.2","","","","","","","","","","","","75","K","1","","true","0","80_20_practice","",""
"","bandit","24","81540","0.0-18.0-6.0","91027214","wem/bandit_party_1","AUG2YR37BY9BK","either","5","597","","","","","","","0","1","0","","0.8","0.5","0.5","","","0.8","0.2","","","","","","","","","","","","","","","","74","J","0","img/none_selected_demo.jpg","true","0","80_20_practice","",""
"","bandit","25","83210","0.0-18.0-7.0","91027214","wem/bandit_party_1","AUG2YR37BY9BK","either","5","162","","","","","","","0","0","1","0.2","","0.5","0.5","","","","","","","0.8","0.2","","","","","","","","","","","","75","K","1","","true","0","80_20_practice","",""
"","bandit","26","84723","0.0-18.0-8.0","91027214","wem/bandit_party_1","AUG2YR37BY9BK","either","5","5","","","","","","","0","0","1","","0.2","0.5","0.5","","","0.8","0.2","","","","","","","","","","","","","","","","75","K","1","","true","0","80_20_practice","",""
"","bandit","27","86670","0.0-18.0-9.0","91027214","wem/bandit_party_1","AUG2YR37BY9BK","either","5","437","","","","","","","1","0","0","0.2","","0.5","0.5","","","","","","","0.8","0.2","","","","","","","","","","","","75","K","1","","true","0","80_20_practice","",""
"","bandit","28","88724","0.0-18.0-10.0","91027214","wem/bandit_party_1","AUG2YR37BY9BK","either","5","547","","","","","","","0","0","1","","0.2","0.5","0.5","","","0.8","0.2","","","","","","","","","","","","","","","","75","K","1","","true","0","80_20_practice","",""
"","bandit","29","91100","0.0-18.0-11.0","91027214","wem/bandit_party_1","AUG2YR37BY9BK","either","5","868","","","","","","","0","0","1","0.2","","0.5","0.5","","","","","","","0.8","0.2","","","","","","","","","","","","75","K","1","","true","0","80_20_practice","",""
"","bandit","30","93549","0.0-18.0-12.0","91027214","wem/bandit_party_1","AUG2YR37BY9BK","either","5","940","","","","","","","0","0","1","","0.2","0.5","0.5","","","0.8","0.2","","","","","","","","","","","","","","","","75","K","1","","true","0","80_20_practice","",""
"","bandit","31","95860","0.0-18.0-13.0","91027214","wem/bandit_party_1","AUG2YR37BY9BK","either","5","799","","","","","","","0","1","0","","0.8","0.5","0.5","","","0.8","0.2","","","","","","","","","","","","","","","","74","J","0","img/none_selected_demo.jpg","true","0","80_20_practice","",""
"","bandit","32","97688","0.0-18.0-14.0","91027214","wem/bandit_party_1","AUG2YR37BY9BK","either","5","322","","","","","","","0","1","0","","0.2","0.5","0.5","","","0.8","0.2","","","","","","","","","","","","","","","","75","K","1","","true","0","80_20_practice","",""
"","bandit","33","99888","0.0-18.0-15.0","91027214","wem/bandit_party_1","AUG2YR37BY9BK","either","5","692","","","","","","","0","0","1","0.2","","0.5","0.5","","","","","","","0.8","0.2","","","","","","","","","","","","75","K","1","","true","0","80_20_practice","",""
"","bandit","34","102797","0.0-18.0-16.0","91027214","wem/bandit_party_1","AUG2YR37BY9BK","either","5","1398","","","","","","","0","0","1","0.8","","0.5","0.5","","","","","","","0.8","0.2","","","","","","","","","","","","74","J","0","img/none_selected_demo.jpg","true","0","80_20_practice","",""
"","bandit","35","106198","0.0-18.0-17.0","91027214","wem/bandit_party_1","AUG2YR37BY9BK","either","5","1889","","","","","","","0","0","1","0.2","","0.5","0.5","","","","","","","0.8","0.2","","","","","","","","","","","","75","K","1","","true","0","80_20_practice","",""
"","bandit","36","108758","0.0-18.0-18.0","91027214","wem/bandit_party_1","AUG2YR37BY9BK","either","5","1051","","","","","","","0","0","1","","0.2","0.5","0.5","","","0.8","0.2","","","","","","","","","","","","","","","","75","K","1","","true","0","80_20_practice","",""
"","bandit","37","112259","0.0-18.0-19.0","91027214","wem/bandit_party_1","AUG2YR37BY9BK","either","5","1988","","","","","","","1","0","0","0.8","","0.5","0.5","","","","","","","0.8","0.2","","","","","","","","","","","","74","J","0","img/none_selected_demo.jpg","true","0","80_20_practice","",""
"","text-replacement","38","117762","0.0-19.0","91027214","wem/bandit_party_1","AUG2YR37BY9BK","either","5","5501","","","32","","","","","","","","","","","","","","","","","","","","","","","","","","","","","","","","","","","","","",""
"","bandit","39","120142","0.0-20.0-0.0","91027214","wem/bandit_party_1","AUG2YR37BY9BK","either","5","875","","","","","","","1","0","0","1","0","","","","","0","1","","","1","0","","","","","","","","","","","","74","J","0","img/none_selected_demo.jpg","true","0","","",""
"","text-replacement","40","121137","0.0-21.0","91027214","wem/bandit_party_1","AUG2YR37BY9BK","either","5","993","","","75","","","","","","","","","","","","","","","","","","","","","","","","","","","","","","","","","","","","","",""
"","text-replacement","41","128021","0.0-22.0","91027214","wem/bandit_party_1","AUG2YR37BY9BK","either","5","6882","","","32","","","","","","","","","","","","","","","","","","","","","","","","","","","","","","","","","","","","","",""
"","text-replacement","42","131701","0.0-23.0","91027214","wem/bandit_party_1","AUG2YR37BY9BK","either","5","3678","","","32","","","","","","","","","","","","","","","","","","","","","","","","","","","","","","","","","","","","","",""
"","text-replacement","43","132276","0.0-24.0","91027214","wem/bandit_party_1","AUG2YR37BY9BK","either","5","573","","","32","","","","","","","","","","","","","","","","","","","","","","","","","","","","","","","","","","","","","",""
"","text-replacement","44","132809","0.0-25.0","91027214","wem/bandit_party_1","AUG2YR37BY9BK","either","5","532","","","32","","","","","","","","","","","","","","","","","","","","","","","","","","","","","","","","","","","","","",""
"","text-replacement","45","133398","0.0-26.0","91027214","wem/bandit_party_1","AUG2YR37BY9BK","either","5","587","","","32","","","","","","","","","","","","","","","","","","","","","","","","","","","","","","","","","","","","","",""
"","text-replacement","46","133819","0.0-27.0","91027214","wem/bandit_party_1","AUG2YR37BY9BK","either","5","419","","","32","","","","","","","","","","","","","","","","","","","","","","","","","","","","","","","","","","","","","",""
"","text-replacement","47","135103","0.0-28.0","91027214","wem/bandit_party_1","AUG2YR37BY9BK","either","5","1282","","","32","","","","","","","","","","","","","","","","","","","","","","","","","","","","","","","","","","","","","",""
"","text-replacement","48","137373","0.0-29.0","91027214","wem/bandit_party_1","AUG2YR37BY9BK","either","5","2269","","","32","","","","","","","","","","","","","","","","","","","","","","","","","","","","","","","","","","","","","",""
"","text-replacement","49","137965","0.0-30.0","91027214","wem/bandit_party_1","AUG2YR37BY9BK","either","5","590","","","32","","","","","","","","","","","","","","","","","","","","","","","","","","","","","","","","","","","","","",""
"","text-replacement","50","138733","0.0-31.0","91027214","wem/bandit_party_1","AUG2YR37BY9BK","either","5","766","","","32","","","","","","","","","","","","","","","","","","","","","","","","","","","","","","","","","","","","","",""
"","bandit","51","141017","0.0-32.0-0.0","91027214","wem/bandit_party_1","AUG2YR37BY9BK","either","5","776","","","","","","","0","1","0","","0.8","0.5","0.5","0.5","0.5","0.8","0.2","0.6","0.2","","","","","","","","","","","","","","72","H","0","img/none_selected.jpg","true","0","full_practice","",""
"","bandit","52","142839","0.0-32.0-1.0","91027214","wem/bandit_party_1","AUG2YR37BY9BK","either","5","314","","","","","","","0","1","0","","0.8","0.5","0.5","0.5","0.5","0.8","0.2","0.6","0.2","","","","","","","","","","","","","","72","H","0","img/none_selected.jpg","true","0","full_practice","",""
"","bandit","53","145609","0.0-32.0-2.0","91027214","wem/bandit_party_1","AUG2YR37BY9BK","either","5","1259","","","","","","","0","0","1","","0.2","0.5","0.5","0.5","0.5","0.8","0.2","0.6","0.2","","","","","","","","","","","","","","74","J","1","","true","0","full_practice","",""
"","bandit","54","147809","0.0-32.0-3.0","91027214","wem/bandit_party_1","AUG2YR37BY9BK","either","5","693","","","","","","","0","0","1","","0.2","0.5","0.5","0.5","0.5","0.8","0.2","0.6","0.2","","","","","","","","","","","","","","74","J","1","","true","0","full_practice","",""
"","bandit","55","149498","0.0-32.0-4.0","91027214","wem/bandit_party_1","AUG2YR37BY9BK","either","5","181","","","","","","","0","0","1","","0.2","0.5","0.5","0.5","0.5","0.8","0.2","0.6","0.2","","","","","","","","","","","","","","74","J","1","","true","0","full_practice","",""
"","bandit","56","151077","0.0-32.0-5.0","91027214","wem/bandit_party_1","AUG2YR37BY9BK","either","5","71","","","","","","","1","0","0","0.8","","0.5","0.5","0.5","0.5","","","","","0.8","0.2","0.6","0.2","","","","","","","","","","72","H","0","img/none_selected.jpg","true","0","full_practice","",""
"","bandit","57","152836","0.0-32.0-6.0","91027214","wem/bandit_party_1","AUG2YR37BY9BK","either","5","249","","","","","","","1","0","0","0.8","","0.5","0.5","0.5","0.5","","","","","0.8","0.2","0.6","0.2","","","","","","","","","","72","H","0","img/none_selected.jpg","true","0","full_practice","",""
"","bandit","58","154444","0.0-32.0-7.0","91027214","wem/bandit_party_1","AUG2YR37BY9BK","either","5","97","","","","","","","0","1","0","","0.8","0.5","0.5","0.5","0.5","0.8","0.2","0.6","0.2","","","","","","","","","","","","","","72","H","0","img/none_selected.jpg","true","0","full_practice","",""
"","bandit","59","157312","0.0-32.0-8.0","91027214","wem/bandit_party_1","AUG2YR37BY9BK","either","5","1358","","","","","","","1","0","0","0.8","","0.5","0.5","0.5","0.5","","","","","0.8","0.2","0.6","0.2","","","","","","","","","","72","H","0","img/none_selected.jpg","true","0","full_practice","",""
"","bandit","60","159238","0.0-32.0-9.0","91027214","wem/bandit_party_1","AUG2YR37BY9BK","either","5","416","","","","","","","1","0","0","0.8","","0.5","0.5","0.5","0.5","","","","","0.8","0.2","0.6","0.2","","","","","","","","","","72","H","0","img/none_selected.jpg","true","0","full_practice","",""
"","bandit","61","161207","0.0-32.0-10.0","91027214","wem/bandit_party_1","AUG2YR37BY9BK","either","5","461","","","","","","","1","0","0","0.8","","0.5","0.5","0.5","0.5","","","","","0.8","0.2","0.6","0.2","","","","","","","","","","72","H","0","img/none_selected.jpg","true","0","full_practice","",""
"","bandit","62","162722","0.0-32.0-11.0","91027214","wem/bandit_party_1","AUG2YR37BY9BK","either","5","3","","","","","","","0","1","0","","0.6","0.5","0.5","0.5","0.5","0.8","0.2","0.6","0.2","","","","","","","","","","","","","","75","K","2","","true","0","full_practice","",""
"","bandit","63","165073","0.0-32.0-12.0","91027214","wem/bandit_party_1","AUG2YR37BY9BK","either","5","844","","","","","","","0","0","1","","0.2","0.5","0.5","0.5","0.5","0.8","0.2","0.6","0.2","","","","","","","","","","","","","","74","J","1","","true","0","full_practice","",""
"","bandit","64","167703","0.0-32.0-13.0","91027214","wem/bandit_party_1","AUG2YR37BY9BK","either","5","1118","","","","","","","0","0","1","0.2","","0.5","0.5","0.5","0.5","","","","","0.8","0.2","0.6","0.2","","","","","","","","","","76","L","3","","true","0","full_practice","",""
"","bandit","65","169595","0.0-32.0-14.0","91027214","wem/bandit_party_1","AUG2YR37BY9BK","either","5","384","","","","","","","1","0","0","0.8","","0.5","0.5","0.5","0.5","","","","","0.8","0.2","0.6","0.2","","","","","","","","","","72","H","0","img/none_selected.jpg","true","0","full_practice","",""
"","bandit","66","171139","0.0-32.0-15.0","91027214","wem/bandit_party_1","AUG2YR37BY9BK","either","5","33","","","","","","","0","0","1","","0.2","0.5","0.5","0.5","0.5","0.8","0.2","0.6","0.2","","","","","","","","","","","","","","74","J","1","","true","0","full_practice","",""
"","bandit","67","172653","0.0-32.0-16.0","91027214","wem/bandit_party_1","AUG2YR37BY9BK","either","5","5","","","","","","","0","1","0","","0.6","0.5","0.5","0.5","0.5","0.8","0.2","0.6","0.2","","","","","","","","","","","","","","75","K","2","","true","0","full_practice","",""
"","bandit","68","174164","0.0-32.0-17.0","91027214","wem/bandit_party_1","AUG2YR37BY9BK","either","5","1","","","","","","","0","0","1","","0.2","0.5","0.5","0.5","0.5","0.8","0.2","0.6","0.2","","","","","","","","","","","","","","74","J","1","","true","0","full_practice","",""
"","bandit","69","175830","0.0-32.0-18.0","91027214","wem/bandit_party_1","AUG2YR37BY9BK","either","5","157","","","","","","","0","0","1","0.6","","0.5","0.5","0.5","0.5","","","","","0.8","0.2","0.6","0.2","","","","","","","","","","75","K","2","","true","0","full_practice","",""
"","bandit","70","177339","0.0-32.0-19.0","91027214","wem/bandit_party_1","AUG2YR37BY9BK","either","5","1","","","","","","","1","0","0","0.8","","0.5","0.5","0.5","0.5","","","","","0.8","0.2","0.6","0.2","","","","","","","","","","72","H","0","img/none_selected.jpg","true","0","full_practice","",""
"","text","71","180150","0.0-33.0","91027214","wem/bandit_party_1","AUG2YR37BY9BK","either","5","2807","","","32","","","","","","","","","","","","","","","","","","","","","","","","","","","","","","","","","","","","","",""
"","text-replacement","72","184102","0.0-34.0","91027214","wem/bandit_party_1","AUG2YR37BY9BK","either","5","2946","","","32","","","","","","","","","","","","","","","","","","","","","","","","","","","","","","","","","","","","","",""
"","text-replacement","73","184619","0.0-35.0","91027214","wem/bandit_party_1","AUG2YR37BY9BK","either","5","516","","","32","","","","","","","","","","","","","","","","","","","","","","","","","","","","","","","","","","","","","",""
"","text-replacement","74","185212","0.0-36.0","91027214","wem/bandit_party_1","AUG2YR37BY9BK","either","5","592","","","32","","","","","","","","","","","","","","","","","","","","","","","","","","","","","","","","","","","","","",""
"","text-replacement","75","185838","0.0-37.0","91027214","wem/bandit_party_1","AUG2YR37BY9BK","either","5","624","","","32","","","","","","","","","","","","","","","","","","","","","","","","","","","","","","","","","","","","","",""
"","text-replacement","76","186263","0.0-38.0","91027214","wem/bandit_party_1","AUG2YR37BY9BK","either","5","424","","","32","","","","","","","","","","","","","","","","","","","","","","","","","","","","","","","","","","","","","",""
"","survey-multi-choice-replacement","77","192545","0.0-39.0-0.0","91027214","wem/bandit_party_1","AUG2YR37BY9BK","either","5","6277","","","","","","","","","","","","","","","","","","","","","","","","Money will be added to the pool for <span style='color:red;'>REPUBLICANS</span>","","","","","","","attn_check","","","","","","","","","0",""
"","survey-multi-choice-replacement","78","203029","0.0-40.0-0.0","91027214","wem/bandit_party_1","AUG2YR37BY9BK","either","5","9473","","","","","","","","","","","","","","","","","","","","","","","","No money will be added to either pool","","","","","","","attn_check","","","","","","","","","3",""
"","instructions","79","205789","0.0-40.0-1.0-0.0","91027214","wem/bandit_party_1","AUG2YR37BY9BK","either","5","1756","","","","","","","","","","","","","","","","","","","","","","","","","","","","","","","","","","","","","","","","","[{""page_index"":0,""viewing_time"":1755}]"
"","survey-multi-choice-replacement","80","209889","0.0-40.1-0.1","91027214","wem/bandit_party_1","AUG2YR37BY9BK","either","5","3092","","","","","","","","","","","","","","","","","","","","","","","","Money will be subtracted from the pool for <span style='color:blue;'>DEMOCRATS</span>","","","","","","","attn_check","","","","","","","","","1",""
"","instructions","81","212321","0.0-40.1-1.1-0.1","91027214","wem/bandit_party_1","AUG2YR37BY9BK","either","5","1429","","","","","","","","","","","","","","","","","","","","","","","","","","","","","","","","","","","","","","","","","[{""page_index"":0,""viewing_time"":1428}]"
"","survey-multi-choice-replacement","82","215603","0.0-40.2-0.2","91027214","wem/bandit_party_1","AUG2YR37BY9BK","either","5","2277","","","","","","","","","","","","","","","","","","","","","","","","Equal amounts of money will be added to the pool for <span style='color:red;'>REPUBLICANS</span> and subtracted from the pool for <span style='color:blue;'>DEMOCRATS</span>","","","","","","","attn_check","","","","","","","","","2",""
"","survey-multi-choice-replacement","83","221749","0.0-41.0-0.0","91027214","wem/bandit_party_1","AUG2YR37BY9BK","either","5","5135","","","","","","","","","","","","","","","","","","","","","","","","No money will be added to either pool","","","","","","","attn_check","","","","","","","","","3",""
"","bandit","84","225421","0.0-42.0-0.0","91027214","wem/bandit_party_1","AUG2YR37BY9BK","either","5","1159","","","","","","","0","0","1","0.3897275569","","0.2","0.8","0.6","0.4","","","","","0.3340388524","0.3897275569","0.1165465043","0.4265570961","","","","","","","","","","74","J","1","","","1","main_expt","",""
"","bandit","85","227477","0.0-43.0-0.0","91027214","wem/bandit_party_1","AUG2YR37BY9BK","either","5","544","","","","","","","0","0","1","0.3223834482","","0.2","0.8","0.6","0.4","","","","","0.3223834482","0.3911966266","0.08371899021","0.4177099958","","","","","","","","","","72","H","0","img/none_selected.jpg","","2","main_expt","",""
"","bandit","86","229218","0.0-44.0-0.0","91027214","wem/bandit_party_1","AUG2YR37BY9BK","either","5","233","","","","","","","0","1","0","","0.3585509001","0.2","0.8","0.6","0.4","0.3585509001","0.4074861021","0.04339790364","0.4192185534","","","","","","","","","","","","","","72","H","0","img/none_selected.jpg","","3","main_expt","",""
"","bandit","87","231059","0.0-45.0-0.0","91027214","wem/bandit_party_1","AUG2YR37BY9BK","either","5","331","","","","","","","0","0","1","","0.3416436242","0.2","0.8","0.6","0.4","0.3416436242","0.3965638453","0.04073472785","0.4241610434","","","","","","","","","","","","","","72","H","0","img/none_selected.jpg","","4","main_expt","",""
"","bandit","88","233037","0.0-46.0-0.0","91027214","wem/bandit_party_1","AUG2YR37BY9BK","either","5","468","","","","","","","1","0","0","0.3688269119","","0.2","0.8","0.6","0.4","","","","","0.3444758892","0.3688269119","0.04731773769","0.4284837315","","","","","","","","","","74","J","1","","","5","main_expt","",""
"","bandit","89","234577","0.0-47.0-0.0","91027214","wem/bandit_party_1","AUG2YR37BY9BK","either","5","33","","","","","","","0","0","1","","0.05617088868","0.2","0.8","0.6","0.4","0.3574177426","0.3865867917","0.05617088868","0.4328708062","","","","","","","","","","","","","","75","K","2","","","6","main_expt","",""
"","bandit","90","236719","0.0-48.0-0.0","91027214","wem/bandit_party_1","AUG2YR37BY9BK","either","5","632","","","","","","","0","1","0","","0.3634052143","0.2","0.8","0.6","0.4","0.3634052143","0.4294719924","0.05606577856","0.4176545671","","","","","","","","","","","","","","72","H","0","img/none_selected.jpg","","7","main_expt","",""
"","bandit","91","238797","0.0-49.0-0.0","91027214","wem/bandit_party_1","AUG2YR37BY9BK","either","5","571","","","","","","","0","0","1","0.4210378118","","0.2","0.8","0.6","0.4","","","","","0.3675420607","0.4210378118","0.09244853328","0.4022395488","","","","","","","","","","74","J","1","","","8","main_expt","",""
"","bandit","92","240864","0.0-50.0-0.0","91027214","wem/bandit_party_1","AUG2YR37BY9BK","either","5","555","","","","","","","0","0","1","","0.4502112583","0.2","0.8","0.6","0.4","0.3921196104","0.4502112583","0.1271341085","0.3929004949","","","","","","","","","","","","","","74","J","1","","","9","main_expt","",""
"","bandit","93","242373","0.0-51.0-0.0","91027214","wem/bandit_party_1","AUG2YR37BY9BK","either","5","1","","","","","","","1","0","0","0.4452653155","","0.2","0.8","0.6","0.4","","","","","0.4026182126","0.4452653155","0.1370717255","0.3863711448","","","","","","","","","","74","J","1","","","10","main_expt","",""
"","bandit","94","244544","0.0-52.0-0.0","91027214","wem/bandit_party_1","AUG2YR37BY9BK","either","5","662","","","","","","","1","0","0","0.4352349267","","0.2","0.8","0.6","0.4","","","","","0.3543069494","0.4352349267","0.1275050207","0.4205849279","","","","","","","","","","74","J","1","","","11","main_expt","",""
"","bandit","95","247197","0.0-53.0-0.0","91027214","wem/bandit_party_1","AUG2YR37BY9BK","either","5","1144","","","","","","","1","0","0","0.4525069231","","0.2","0.8","0.6","0.4","","","","","0.3504097904","0.4029030639","0.122317004","0.4525069231","","","","","","","","","","76","L","3","","","12","main_expt","",""
"","bandit","96","249402","0.0-54.0-0.0","91027214","wem/bandit_party_1","AUG2YR37BY9BK","either","5","694","","","","","","","0","0","1","","0.4485799753","0.2","0.8","0.6","0.4","0.2787441393","0.4198147105","0.1251711411","0.4485799753","","","","","","","","","","","","","","76","L","3","","","13","main_expt","",""
"","bandit","97","252432","0.0-55.0-0.0","91027214","wem/bandit_party_1","AUG2YR37BY9BK","either","5","1517","","","","","","","1","0","0","0.3761312174","","0.2","0.8","0.6","0.4","","","","","0.2723245106","0.3761312174","0.1380641988","0.4504049656","","","","","","","","","","74","J","1","","","14","main_expt","",""
"","bandit","98","254614","0.0-56.0-0.0","91027214","wem/bandit_party_1","AUG2YR37BY9BK","either","5","672","","","","","","","1","0","0","0.3687644442","","0.2","0.8","0.6","0.4","","","","","0.3687644442","0.4017507227","0.2010812313","0.4281165459","","","","","","","","","","72","H","0","img/none_selected.jpg","","15","main_expt","",""
"","bandit","99","257210","0.0-57.0-0.0","91027214","wem/bandit_party_1","AUG2YR37BY9BK","either","5","1086","","","","","","","0","1","0","","0.3992289848","0.2","0.8","0.6","0.4","0.3992289848","0.3859888637","0.1747275657","0.4035101098","","","","","","","","","","","","","","72","H","0","img/none_selected.jpg","","16","main_expt","",""
"","bandit","100","259933","0.0-58.0-0.0","91027214","wem/bandit_party_1","AUG2YR37BY9BK","either","5","1211","","","","","","","0","0","1","","0.3706978481","0.2","0.8","0.6","0.4","0.4067061876","0.3706978481","0.1816524112","0.4063691663","","","","","","","","","","","","","","74","J","1","","","17","main_expt","",""
"","bandit","101","262406","0.0-59.0-0.0","91027214","wem/bandit_party_1","AUG2YR37BY9BK","either","5","963","","","","","","","0","0","1","0.4201618032","","0.2","0.8","0.6","0.4","","","","","0.3969002131","0.3323991027","0.1700798448","0.4201618032","","","","","","","","","","76","L","3","","","18","main_expt","",""
"","bandit","102","264490","0.0-60.0-0.0","91027214","wem/bandit_party_1","AUG2YR37BY9BK","either","5","571","","","","","","","0","1","0","","0.3301718366","0.2","0.8","0.6","0.4","0.3930099592","0.3301718366","0.1998500639","0.3868389751","","","","","","","","","","","","","","74","J","1","","","19","main_expt","",""
"","bandit","103","266086","0.0-61.0-0.0","91027214","wem/bandit_party_1","AUG2YR37BY9BK","either","5","85","","","","","","","1","0","0","0.3714618997","","0.2","0.8","0.6","0.4","","","","","0.3791602553","0.3714618997","0.2418808817","0.3868875991","","","","","","","","","","74","J","1","","","20","main_expt","",""
"","bandit","104","271356","0.0-62.0-0.0","91027214","wem/bandit_party_1","AUG2YR37BY9BK","either","5","3760","","","","","","","0","0","1","","0.4253770554","0.2","0.8","0.6","0.4","0.4127515201","0.3621694591","0.2293341009","0.4253770554","","","","","","","","","","","","","","76","L","3","","","21","main_expt","",""
"","bandit","105","276425","0.0-63.0-0.0","91027214","wem/bandit_party_1","AUG2YR37BY9BK","either","5","3560","","","","","","","1","0","0","0.4164833055","","0.2","0.8","0.6","0.4","","","","","0.4164833055","0.3648829928","0.2074184163","0.4285762007","","","","","","","","","","72","H","0","img/none_selected.jpg","","22","main_expt","",""
"","bandit","106","281411","0.0-64.0-0.0","91027214","wem/bandit_party_1","AUG2YR37BY9BK","either","5","3476","","","","","","","1","0","0","0.4082522222","","0.2","0.8","0.6","0.4","","","","","0.4143027846","0.2856994719","0.1832507358","0.4082522222","","","","","","","","","","76","L","3","","","23","main_expt","",""
"","bandit","107","283751","0.0-65.0-0.0","91027214","wem/bandit_party_1","AUG2YR37BY9BK","either","5","829","","","","","","","0","0","1","","0.1469425149","0.2","0.8","0.6","0.4","0.3649270698","0.3152516524","0.1469425149","0.4027270218","","","","","","","","","","","","","","75","K","2","","","24","main_expt","",""
"","bandit","108","286235","0.0-66.0-0.0","91027214","wem/bandit_party_1","AUG2YR37BY9BK","either","5","976","","","","","","","0","0","1","0.2778145345","","0.2","0.8","0.6","0.4","","","","","0.392676409","0.2778145345","0.102794739","0.4100212433","","","","","","","","","","74","J","1","","","25","main_expt","",""
"","bandit","109","295872","0.0-67.0-0.0","91027214","wem/bandit_party_1","AUG2YR37BY9BK","either","5","8125","","","","","","","0","0","1","0.3170506137","","0.2","0.8","0.6","0.4","","","","","0.4031565401","0.3170506137","0.1173732637","0.4190791169","","","","","","","","","","74","J","1","","","26","main_expt","",""
"","bandit","110","298085","0.0-68.0-0.0","91027214","wem/bandit_party_1","AUG2YR37BY9BK","either","5","701","","","","","","","0","0","1","0.3223143746","","0.2","0.8","0.6","0.4","","","","","0.4245959001","0.3223143746","0.08835016803","0.4527212376","","","","","","","","","","74","J","1","","","27","main_expt","",""
"","bandit","111","301741","0.0-69.0-0.0","91027214","wem/bandit_party_1","AUG2YR37BY9BK","either","5","2142","","","","","","","0","0","1","0.4480998813","","0.2","0.8","0.6","0.4","","","","","0.4232885055","0.3234472479","0.1134440288","0.4480998813","","","","","","","","","","76","L","3","","","28","main_expt","",""
"","bandit","112","303413","0.0-70.0-0.0","91027214","wem/bandit_party_1","AUG2YR37BY9BK","either","5","160","","","","","","","1","0","0","0.4628669208","","0.2","0.8","0.6","0.4","","","","","0.4495512981","0.2881425904","0.1982905849","0.4628669208","","","","","","","","","","76","L","3","","","29","main_expt","",""
"","bandit","113","306187","0.0-71.0-0.0","91027214","wem/bandit_party_1","AUG2YR37BY9BK","either","5","1269","","","","","","","0","0","1","","0.4565655028","0.2","0.8","0.6","0.4","0.4485299892","0.2326555855","0.2366655967","0.4565655028","","","","","","","","","","","","","","76","L","3","","","30","main_expt","",""
"","bandit","114","308155","0.0-72.0-0.0","91027214","wem/bandit_party_1","AUG2YR37BY9BK","either","5","458","","","","","","","0","0","1","0.4599237238","","0.2","0.8","0.6","0.4","","","","","0.4599237238","0.2364604256","0.1622470467","0.4686031056","","","","","","","","","","72","H","0","img/none_selected.jpg","","31","main_expt","",""
"","bandit","115","309728","0.0-73.0-0.0","91027214","wem/bandit_party_1","AUG2YR37BY9BK","either","5","63","","","","","","","0","0","1","0.2451982598","","0.2","0.8","0.6","0.4","","","","","0.4508116693","0.2451982598","0.1771911602","0.4659582456","","","","","","","","","","74","J","1","","","32","main_expt","",""
"","bandit","116","311482","0.0-74.0-0.0","91027214","wem/bandit_party_1","AUG2YR37BY9BK","either","5","238","","","","","","","0","0","1","","0.45101727","0.2","0.8","0.6","0.4","0.45101727","0.2360369815","0.1622836308","0.4810757035","","","","","","","","","","","","","","72","H","0","img/none_selected.jpg","","33","main_expt","",""
"","bandit","117","313676","0.0-75.0-0.0","91027214","wem/bandit_party_1","AUG2YR37BY9BK","either","5","681","","","","","","","1","0","0","0.4842727378","","0.2","0.8","0.6","0.4","","","","","0.4340174653","0.2317763892","0.1655985557","0.4842727378","","","","","","","","","","76","L","3","","","34","main_expt","",""
"","bandit","118","315429","0.0-76.0-0.0","91027214","wem/bandit_party_1","AUG2YR37BY9BK","either","5","240","","","","","","","0","0","1","","0.4745470136","0.2","0.8","0.6","0.4","0.4040147441","0.2527891731","0.1492797185","0.4745470136","","","","","","","","","","","","","","76","L","3","","","35","main_expt","",""
"","bandit","119","317313","0.0-77.0-0.0","91027214","wem/bandit_party_1","AUG2YR37BY9BK","either","5","377","","","","","","","0","1","0","","0.4440965139","0.2","0.8","0.6","0.4","0.4268829696","0.2641283143","0.1504543003","0.4440965139","","","","","","","","","","","","","","76","L","3","","","36","main_expt","",""
"","bandit","120","318822","0.0-78.0-0.0","91027214","wem/bandit_party_1","AUG2YR37BY9BK","either","5","1","","","","","","","0","0","1","0.1064249526","","0.2","0.8","0.6","0.4","","","","","0.4562327564","0.2309310423","0.1064249526","0.4544425755","","","","","","","","","","75","K","2","","","37","main_expt","",""
"","bandit","121","320413","0.0-79.0-0.0","91027214","wem/bandit_party_1","AUG2YR37BY9BK","either","5","83","","","","","","","0","0","1","0.2093170459","","0.2","0.8","0.6","0.4","","","","","0.4481627861","0.2093170459","0.1346530267","0.4700138218","","","","","","","","","","74","J","1","","","38","main_expt","",""
"","bandit","122","322179","0.0-80.0-0.0","91027214","wem/bandit_party_1","AUG2YR37BY9BK","either","5","256","","","","","","","0","0","1","0.1303494481","","0.2","0.8","0.6","0.4","","","","","0.4475890948","0.1398625959","0.1303494481","0.466948448","","","","","","","","","","75","K","2","","","39","main_expt","",""
"","bandit","123","324279","0.0-81.0-0.0","91027214","wem/bandit_party_1","AUG2YR37BY9BK","either","5","585","","","","","","","0","0","1","0.1492074344","","0.2","0.8","0.6","0.4","","","","","0.4501575696","0.09690087606","0.1492074344","0.4679256248","","","","","","","","","","75","K","2","","","40","main_expt","",""
"","bandit","124","326214","0.0-82.0-0.0","91027214","wem/bandit_party_1","AUG2YR37BY9BK","either","5","423","","","","","","","0","1","0","","0.445537573","0.2","0.8","0.6","0.4","0.4121884666","0.1129569356","0.1370672299","0.445537573","","","","","","","","","","","","","","76","L","3","","","41","main_expt","",""
"","bandit","125","328322","0.0-83.0-0.0","91027214","wem/bandit_party_1","AUG2YR37BY9BK","either","5","602","","","","","","","0","0","1","","0.1227033228","0.2","0.8","0.6","0.4","0.4379939247","0.1227033228","0.08144147181","0.4521531226","","","","","","","","","","","","","","74","J","1","","","42","main_expt","",""
"","bandit","126","331317","0.0-84.0-0.0","91027214","wem/bandit_party_1","AUG2YR37BY9BK","either","5","1484","","","","","","","0","0","1","","0.4271747655","0.2","0.8","0.6","0.4","0.4271747655","0.08393287497","0.06793865388","0.4695072217","","","","","","","","","","","","","","72","H","0","img/none_selected.jpg","","43","main_expt","",""
"","bandit","127","333268","0.0-85.0-0.0","91027214","wem/bandit_party_1","AUG2YR37BY9BK","either","5","440","","","","","","","1","0","0","0.06260074275","","0.2","0.8","0.6","0.4","","","","","0.4480494518","0.06260074275","0.05295344446","0.4807409838","","","","","","","","","","74","J","1","","","44","main_expt","",""
"","bandit","128","336135","0.0-86.0-0.0","91027214","wem/bandit_party_1","AUG2YR37BY9BK","either","5","1355","","","","","","","0","1","0","","0.4269729589","0.2","0.8","0.6","0.4","0.4269729589","0.08062123592","0.02744239742","0.4507048108","","","","","","","","","","","","","","72","H","0","img/none_selected.jpg","","45","main_expt","",""
"","bandit","129","338806","0.0-87.0-0.0","91027214","wem/bandit_party_1","AUG2YR37BY9BK","either","5","1161","","","","","","","0","1","0","","0.4475746277","0.2","0.8","0.6","0.4","0.4475746277","0.1110847749","0.02347437243","0.4382321206","","","","","","","","","","","","","","72","H","0","img/none_selected.jpg","","46","main_expt","",""
"","bandit","130","341087","0.0-88.0-0.0","91027214","wem/bandit_party_1","AUG2YR37BY9BK","either","5","770","","","","","","","0","0","1","","0.05346849493","0.2","0.8","0.6","0.4","0.4295618238","0.05346849493","0.02418160198","0.4393937913","","","","","","","","","","","","","","74","J","1","","","47","main_expt","",""
"","bandit","131","343492","0.0-89.0-0.0","91027214","wem/bandit_party_1","AUG2YR37BY9BK","either","5","896","","","","","","","0","1","0","","0.4431907244","0.2","0.8","0.6","0.4","0.4431907244","0.04499733497","0.01182676654","0.440318131","","","","","","","","","","","","","","72","H","0","img/none_selected.jpg","","48","main_expt","",""
"","bandit","132","345412","0.0-90.0-0.0","91027214","wem/bandit_party_1","AUG2YR37BY9BK","either","5","409","","","","","","","0","0","1","0.4362102412","","0.2","0.8","0.6","0.4","","","","","0.4187732916","0.07378534534","0.0186287842","0.4362102412","","","","","","","","","","76","L","3","","","49","main_expt","",""
"","bandit","133","347296","0.0-91.0-0.0","91027214","wem/bandit_party_1","AUG2YR37BY9BK","either","5","377","","","","","","","0","0","1","","0.06168845619","0.2","0.8","0.6","0.4","0.356579213","0.06168845619","0.02550629551","0.44488671","","","","","","","","","","","","","","74","J","1","","","50","main_expt","",""
"","bandit","134","349818","0.0-92.0-0.0","91027214","wem/bandit_party_1","AUG2YR37BY9BK","either","5","1012","","","","","","","0","0","1","","0.2629404955","0.2","0.8","0.6","0.4","0.2629404955","0.1062028567","0.04366809707","0.4633405548","","","","","","","","","","","","","","72","H","0","img/none_selected.jpg","","51","main_expt","",""
"","bandit","135","351350","0.0-93.0-0.0","91027214","wem/bandit_party_1","AUG2YR37BY9BK","either","5","23","","","","","","","0","0","1","","0.1379608546","0.2","0.8","0.6","0.4","0.2919747068","0.1379608546","0.04357168116","0.4528043762","","","","","","","","","","","","","","74","J","1","","","52","main_expt","",""
"","bandit","136","355060","0.0-94.0-0.0","91027214","wem/bandit_party_1","AUG2YR37BY9BK","either","5","2197","","","","","","","1","0","0","0.1356826849","","0.2","0.8","0.6","0.4","","","","","0.3809901122","0.1356826849","0.03899227154","0.4390431751","","","","","","","","","","74","J","1","","","53","main_expt","",""
"","bandit","137","356795","0.0-95.0-0.0","91027214","wem/bandit_party_1","AUG2YR37BY9BK","either","5","224","","","","","","","0","0","1","0.3452518694","","0.2","0.8","0.6","0.4","","","","","0.3452518694","0.1038772241","0.04009146386","0.4549270822","","","","","","","","","","72","H","0","img/none_selected.jpg","","54","main_expt","",""
"","bandit","138","358595","0.0-96.0-0.0","91027214","wem/bandit_party_1","AUG2YR37BY9BK","either","5","288","","","","","","","0","0","1","0.1689791829","","0.2","0.8","0.6","0.4","","","","","0.3263112327","0.1689791829","0.0155768565","0.4710341864","","","","","","","","","","74","J","1","","","55","main_expt","",""
"","bandit","139","360133","0.0-97.0-0.0","91027214","wem/bandit_party_1","AUG2YR37BY9BK","either","5","27","","","","","","","0","0","1","0.1108888145","","0.2","0.8","0.6","0.4","","","","","0.3308963945","0.1108888145","0.02112461672","0.4745834276","","","","","","","","","","74","J","1","","","56","main_expt","",""
"","bandit","140","363509","0.0-98.0-0.0","91027214","wem/bandit_party_1","AUG2YR37BY9BK","either","5","1868","","","","","","","0","0","1","0.3150326571","","0.2","0.8","0.6","0.4","","","","","0.3150326571","0.1206542402","0.0126553198","0.489318572","","","","","","","","","","72","H","0","img/none_selected.jpg","","57","main_expt","",""
"","bandit","141","366612","0.0-99.0-0.0","91027214","wem/bandit_party_1","AUG2YR37BY9BK","either","5","1590","","","","","","","0","1","0","","0.3049116772","0.2","0.8","0.6","0.4","0.3049116772","0.09707343937","0.01131359515","0.480037986","","","","","","","","","","","","","","72","H","0","img/none_selected.jpg","","58","main_expt","",""
"","bandit","142","368162","0.0-100.0-0.0","91027214","wem/bandit_party_1","AUG2YR37BY9BK","either","5","37","","","","","","","0","0","1","0.1044384952","","0.2","0.8","0.6","0.4","","","","","0.3050987947","0.1044384952","0.01030075821","0.4593461039","","","","","","","","","","74","J","1","","","59","main_expt","",""
"","bandit","143","372933","0.0-101.0-0.0","91027214","wem/bandit_party_1","AUG2YR37BY9BK","either","5","3262","","","","","","","0","0","1","","0.3274009355","0.2","0.8","0.6","0.4","0.3274009355","0.08890369623","0.005868957973","0.446051488","","","","","","","","","","","","","","72","H","0","img/none_selected.jpg","","60","main_expt","",""
"","bandit","144","374832","0.0-102.0-0.0","91027214","wem/bandit_party_1","AUG2YR37BY9BK","either","5","387","","","","","","","0","1","0","","0.3428943983","0.2","0.8","0.6","0.4","0.3428943983","0.08921221942","0.004361943215","0.4391285327","","","","","","","","","","","","","","72","H","0","img/none_selected.jpg","","61","main_expt","",""
"","bandit","145","376341","0.0-103.0-0.0","91027214","wem/bandit_party_1","AUG2YR37BY9BK","either","5","0","","","","","","","0","0","1","0.09812025034","","0.2","0.8","0.6","0.4","","","","","0.3549763931","0.09812025034","0.005208412743","0.4063883723","","","","","","","","","","74","J","1","","","62","main_expt","",""
"","bandit","146","378988","0.0-104.0-0.0","91027214","wem/bandit_party_1","AUG2YR37BY9BK","either","5","1136","","","","","","","0","0","1","","0.006461011255","0.2","0.8","0.6","0.4","0.3496678451","0.09006279409","0.006461011255","0.4330387396","","","","","","","","","","","","","","75","K","2","","","63","main_expt","",""
"","bandit","147","380567","0.0-105.0-0.0","91027214","wem/bandit_party_1","AUG2YR37BY9BK","either","5","68","","","","","","","0","0","1","0.1118976224","","0.2","0.8","0.6","0.4","","","","","0.3188537263","0.1118976224","0.01267926231","0.4207902426","","","","","","","","","","74","J","1","","","64","main_expt","",""
"","bandit","148","383048","0.0-106.0-0.0","91027214","wem/bandit_party_1","AUG2YR37BY9BK","either","5","967","","","","","","","0","0","1","0.009732787917","","0.2","0.8","0.6","0.4","","","","","0.3191795336","0.1053817613","0.009732787917","0.3719582347","","","","","","","","","","75","K","2","","","65","main_expt","",""
"","bandit","149","385263","0.0-107.0-0.0","91027214","wem/bandit_party_1","AUG2YR37BY9BK","either","5","704","","","","","","","0","0","1","0.1307356695","","0.2","0.8","0.6","0.4","","","","","0.268616347","0.1307356695","0.01092542651","0.3748569955","","","","","","","","","","74","J","1","","","66","main_expt","",""
"","bandit","150","387191","0.0-108.0-0.0","91027214","wem/bandit_party_1","AUG2YR37BY9BK","either","5","417","","","","","","","1","0","0","0.259194563","","0.2","0.8","0.6","0.4","","","","","0.259194563","0.1418436428","0.02125534741","0.335252031","","","","","","","","","","72","H","0","img/none_selected.jpg","","67","main_expt","",""
"","bandit","151","389217","0.0-109.0-0.0","91027214","wem/bandit_party_1","AUG2YR37BY9BK","either","5","515","","","","","","","0","0","1","","0.2281204868","0.2","0.8","0.6","0.4","0.2281204868","0.1459089566","0.02360283027","0.3199157278","","","","","","","","","","","","","","72","H","0","img/none_selected.jpg","","68","main_expt","",""
"","bandit","152","391086","0.0-110.0-0.0","91027214","wem/bandit_party_1","AUG2YR37BY9BK","either","5","360","","","","","","","0","0","1","","0.1809721424","0.2","0.8","0.6","0.4","0.2195844169","0.1809721424","0.02539305756","0.3068525281","","","","","","","","","","","","","","74","J","1","","","69","main_expt","",""
"","bandit","153","392961","0.0-111.0-0.0","91027214","wem/bandit_party_1","AUG2YR37BY9BK","either","5","363","","","","","","","0","0","1","0.05014388586","","0.2","0.8","0.6","0.4","","","","","0.1883338509","0.1784068974","0.05014388586","0.3181076016","","","","","","","","","","75","K","2","","","70","main_expt","",""
"","bandit","154","394917","0.0-112.0-0.0","91027214","wem/bandit_party_1","AUG2YR37BY9BK","either","5","444","","","","","","","0","1","0","","0.1639708178","0.2","0.8","0.6","0.4","0.1639708178","0.1973023396","0.04209054697","0.2926426422","","","","","","","","","","","","","","72","H","0","img/none_selected.jpg","","71","main_expt","",""
"","bandit","155","396920","0.0-113.0-0.0","91027214","wem/bandit_party_1","AUG2YR37BY9BK","either","5","492","","","","","","","0","0","1","0.2380263643","","0.2","0.8","0.6","0.4","","","","","0.1312842785","0.2436342847","0.05611199342","0.2380263643","","","","","","","","","","76","L","3","","","72","main_expt","",""
"","bandit","156","399127","0.0-114.0-0.0","91027214","wem/bandit_party_1","AUG2YR37BY9BK","either","5","692","","","","","","","0","0","1","","0.2407197948","0.2","0.8","0.6","0.4","0.1805041857","0.1992173182","0.05293238473","0.2407197948","","","","","","","","","","","","","","76","L","3","","","73","main_expt","",""
"","bandit","157","400889","0.0-115.0-0.0","91027214","wem/bandit_party_1","AUG2YR37BY9BK","either","5","247","","","","","","","0","0","1","0.1739557812","","0.2","0.8","0.6","0.4","","","","","0.1739557812","0.2347098304","0.0318456884","0.2317468449","","","","","","","","","","72","H","0","img/none_selected.jpg","","74","main_expt","",""
"","bandit","158","403776","0.0-116.0-0.0","91027214","wem/bandit_party_1","AUG2YR37BY9BK","either","5","1375","","","","","","","0","0","1","0.2641442137","","0.2","0.8","0.6","0.4","","","","","0.2434916027","0.2641442137","0.03873230677","0.2545997551","","","","","","","","","","74","J","1","","","75","main_expt","",""
"","bandit","159","405320","0.0-117.0-0.0","91027214","wem/bandit_party_1","AUG2YR37BY9BK","either","5","36","","","","","","","0","0","1","","0.2438468568","0.2","0.8","0.6","0.4","0.2438468568","0.3192644053","0.03304947682","0.2890845388","","","","","","","","","","","","","","72","H","0","img/none_selected.jpg","","76","main_expt","",""
"","bandit","160","406963","0.0-118.0-0.0","91027214","wem/bandit_party_1","AUG2YR37BY9BK","either","5","129","","","","","","","0","0","1","0.2425324642","","0.2","0.8","0.6","0.4","","","","","0.2425324642","0.3351132613","0.02607887458","0.2386362654","","","","","","","","","","72","H","0","img/none_selected.jpg","","77","main_expt","",""
"","bandit","161","410219","0.0-119.0-0.0","91027214","wem/bandit_party_1","AUG2YR37BY9BK","either","5","1742","","","","","","","0","1","0","","0.2673679704","0.2","0.8","0.6","0.4","0.205588479","0.3086784207","0.02492981692","0.2673679704","","","","","","","","","","","","","","76","L","3","","","78","main_expt","",""
"","bandit","162","413551","0.0-120.0-0.0","91027214","wem/bandit_party_1","AUG2YR37BY9BK","either","5","1822","","","","","","","0","0","1","","0.213062191","0.2","0.8","0.6","0.4","0.213062191","0.3076482073","0.01824110002","0.2813811921","","","","","","","","","","","","","","72","H","0","img/none_selected.jpg","","79","main_expt","",""
"","bandit","163","415095","0.0-121.0-0.0","91027214","wem/bandit_party_1","AUG2YR37BY9BK","either","5","32","","","","","","","0","0","1","0.0202176162","","0.2","0.8","0.6","0.4","","","","","0.1852926048","0.3605025214","0.0202176162","0.2419447949","","","","","","","","","","75","K","2","","","80","main_expt","",""
"","bandit","164","416644","0.0-122.0-0.0","91027214","wem/bandit_party_1","AUG2YR37BY9BK","either","5","37","","","","","","","0","0","1","","0.0252752587","0.2","0.8","0.6","0.4","0.2332942271","0.3286166321","0.0252752587","0.323481111","","","","","","","","","","","","","","75","K","2","","","81","main_expt","",""
"","bandit","165","418358","0.0-123.0-0.0","91027214","wem/bandit_party_1","AUG2YR37BY9BK","either","5","205","","","","","","","0","0","1","","0.2087797338","0.2","0.8","0.6","0.4","0.2087797338","0.3459677762","0.05668457717","0.3097244961","","","","","","","","","","","","","","72","H","0","img/none_selected.jpg","","82","main_expt","",""
"","bandit","166","420239","0.0-124.0-0.0","91027214","wem/bandit_party_1","AUG2YR37BY9BK","either","5","369","","","","","","","0","0","1","","0.3092751195","0.2","0.8","0.6","0.4","0.2049979043","0.3092751195","0.07760530004","0.2787498647","","","","","","","","","","","","","","74","J","1","","","83","main_expt","",""
"","bandit","167","421835","0.0-125.0-0.0","91027214","wem/bandit_party_1","AUG2YR37BY9BK","either","5","82","","","","","","","0","0","1","","0.2151780091","0.2","0.8","0.6","0.4","0.2151780091","0.3044630387","0.03696005566","0.2589524449","","","","","","","","","","","","","","72","H","0","img/none_selected.jpg","","84","main_expt","",""
"","bandit","168","424709","0.0-126.0-0.0","91027214","wem/bandit_party_1","AUG2YR37BY9BK","either","5","1362","","","","","","","0","0","1","","0.1497615914","0.2","0.8","0.6","0.4","0.1497615914","0.2812480587","0.04177257934","0.2769318636","","","","","","","","","","","","","","72","H","0","img/none_selected.jpg","","85","main_expt","",""
"","bandit","169","426955","0.0-127.0-0.0","91027214","wem/bandit_party_1","AUG2YR37BY9BK","either","5","734","","","","","","","0","0","1","","0.1223687677","0.2","0.8","0.6","0.4","0.1223687677","0.2506532223","0.0385770192","0.2849222391","","","","","","","","","","","","","","72","H","0","img/none_selected.jpg","","86","main_expt","",""
"","bandit","170","428871","0.0-128.0-0.0","91027214","wem/bandit_party_1","AUG2YR37BY9BK","either","5","405","","","","","","","0","0","1","","0.1472857413","0.2","0.8","0.6","0.4","0.1472857413","0.2269900387","0.03720252147","0.3131087309","","","","","","","","","","","","","","72","H","0","img/none_selected.jpg","","87","main_expt","",""
"","bandit","171","430990","0.0-129.0-0.0","91027214","wem/bandit_party_1","AUG2YR37BY9BK","either","5","605","","","","","","","0","1","0","","0.3038587512","0.2","0.8","0.6","0.4","0.1252586248","0.1504729919","0.06746059371","0.3038587512","","","","","","","","","","","","","","76","L","3","","","88","main_expt","",""
"","bandit","172","432992","0.0-130.0-0.0","91027214","wem/bandit_party_1","AUG2YR37BY9BK","either","5","492","","","","","","","0","0","1","","0.1194927994","0.2","0.8","0.6","0.4","0.1194927994","0.1382070302","0.04069757945","0.3308022157","","","","","","","","","","","","","","72","H","0","img/none_selected.jpg","","89","main_expt","",""
"","bandit","173","436005","0.0-131.0-0.0","91027214","wem/bandit_party_1","AUG2YR37BY9BK","either","5","1501","","","","","","","0","0","1","0.1589750007","","0.2","0.8","0.6","0.4","","","","","0.1589750007","0.1364765349","0.07325379503","0.3574922351","","","","","","","","","","72","H","0","img/none_selected.jpg","","90","main_expt","",""
"","bandit","174","437926","0.0-132.0-0.0","91027214","wem/bandit_party_1","AUG2YR37BY9BK","either","5","410","","","","","","","1","0","0","0.09318196272","","0.2","0.8","0.6","0.4","","","","","0.1859960426","0.09318196272","0.06877471811","0.3729517688","","","","","","","","","","74","J","1","","","91","main_expt","",""
"","bandit","175","439894","0.0-133.0-0.0","91027214","wem/bandit_party_1","AUG2YR37BY9BK","either","5","457","","","","","","","0","0","1","","0.04115987362","0.2","0.8","0.6","0.4","0.192419488","0.06946097624","0.04115987362","0.398352994","","","","","","","","","","","","","","75","K","2","","","92","main_expt","",""
"","bandit","176","441433","0.0-134.0-0.0","91027214","wem/bandit_party_1","AUG2YR37BY9BK","either","5","25","","","","","","","0","0","1","0.08102832817","","0.2","0.8","0.6","0.4","","","","","0.1716033463","0.08102832817","0.07078892783","0.4135860398","","","","","","","","","","74","J","1","","","93","main_expt","",""
"","bandit","177","443447","0.0-135.0-0.0","91027214","wem/bandit_party_1","AUG2YR37BY9BK","either","5","502","","","","","","","1","0","0","0.3786880174","","0.2","0.8","0.6","0.4","","","","","0.1935897604","0.1271360848","0.05572868433","0.3786880174","","","","","","","","","","76","L","3","","","94","main_expt","",""
"","bandit","178","445113","0.0-136.0-0.0","91027214","wem/bandit_party_1","AUG2YR37BY9BK","either","5","153","","","","","","","0","0","1","0.3823424718","","0.2","0.8","0.6","0.4","","","","","0.2193228015","0.1097592989","0.05056929995","0.3823424718","","","","","","","","","","76","L","3","","","95","main_expt","",""
"","bandit","179","448114","0.0-137.0-0.0","91027214","wem/bandit_party_1","AUG2YR37BY9BK","either","5","1489","","","","","","","1","0","0","0.3642725552","","0.2","0.8","0.6","0.4","","","","","0.3262643469","0.1085490834","0.04159874267","0.3642725552","","","","","","","","","","76","L","3","","","96","main_expt","",""
"","bandit","180","451812","0.0-138.0-0.0","91027214","wem/bandit_party_1","AUG2YR37BY9BK","either","5","2185","","","","","","","0","0","1","0.3197717944","","0.2","0.8","0.6","0.4","","","","","0.3207405496","0.1049812554","0.03654451862","0.3197717944","","","","","","","","","","76","L","3","","","97","main_expt","",""
"","bandit","181","456503","0.0-139.0-0.0","91027214","wem/bandit_party_1","AUG2YR37BY9BK","either","5","3176","","","","","","","0","0","1","","0.3712856991","0.2","0.8","0.6","0.4","0.3712856991","0.08177978443","0.04190300095","0.2514424369","","","","","","","","","","","","","","72","H","0","img/none_selected.jpg","","98","main_expt","",""
"","bandit","182","458256","0.0-140.0-0.0","91027214","wem/bandit_party_1","AUG2YR37BY9BK","either","5","239","","","","","","","0","0","1","","0.2926772137","0.2","0.8","0.6","0.4","0.3740145378","0.07574087804","0.08742990617","0.2926772137","","","","","","","","","","","","","","76","L","3","","","99","main_expt","",""
"","bandit","183","462418","0.0-141.0-0.0","91027214","wem/bandit_party_1","AUG2YR37BY9BK","either","5","2655","","","","","","","0","0","1","","0.234485335","0.2","0.8","0.6","0.4","0.3776295542","0.07829319678","0.08966523481","0.234485335","","","","","","","","","","","","","","76","L","3","","","100","main_expt","",""
"","bandit","184","470765","0.0-142.0-0.0","91027214","wem/bandit_party_1","AUG2YR37BY9BK","either","5","6839","","","","","","","0","0","1","0.07919243683","","0.2","0.8","0.6","0.4","","","","","0.3592666398","0.07919243683","0.07849065771","0.250352175","","","","","","","","","","74","J","1","","","101","main_expt","",""
"","bandit","185","473517","0.0-143.0-0.0","91027214","wem/bandit_party_1","AUG2YR37BY9BK","either","5","1240","","","","","","","0","0","1","0.1052753188","","0.2","0.8","0.6","0.4","","","","","0.3412191773","0.1052753188","0.1054267613","0.2139972863","","","","","","","","","","74","J","1","","","102","main_expt","",""
"","bandit","186","475537","0.0-144.0-0.0","91027214","wem/bandit_party_1","AUG2YR37BY9BK","either","5","506","","","","","","","0","0","1","0.1248526142","","0.2","0.8","0.6","0.4","","","","","0.3133100433","0.1248526142","0.1120981937","0.20092706","","","","","","","","","","74","J","1","","","103","main_expt","",""
"","bandit","187","478782","0.0-145.0-0.0","91027214","wem/bandit_party_1","AUG2YR37BY9BK","either","5","1733","","","","","","","0","0","1","0.142969925","","0.2","0.8","0.6","0.4","","","","","0.3219148419","0.142969925","0.1034740879","0.2305366804","","","","","","","","","","74","J","1","","","104","main_expt","",""
"","bandit","188","480792","0.0-146.0-0.0","91027214","wem/bandit_party_1","AUG2YR37BY9BK","either","5","496","","","","","","","0","0","1","","0.3300892518","0.2","0.8","0.6","0.4","0.3300892518","0.13947254","0.07597240327","0.2102135581","","","","","","","","","","","","","","72","H","0","img/none_selected.jpg","","105","main_expt","",""
"","bandit","189","487502","0.0-147.0-0.0","91027214","wem/bandit_party_1","AUG2YR37BY9BK","either","5","5201","","","","","","","0","0","1","0.3401839058","","0.2","0.8","0.6","0.4","","","","","0.3401839058","0.1329526997","0.1124257427","0.2219457329","","","","","","","","","","72","H","0","img/none_selected.jpg","","106","main_expt","",""
"","bandit","190","489301","0.0-148.0-0.0","91027214","wem/bandit_party_1","AUG2YR37BY9BK","either","5","287","","","","","","","0","0","1","0.1727290233","","0.2","0.8","0.6","0.4","","","","","0.3784706915","0.1727290233","0.1133168519","0.3048423019","","","","","","","","","","74","J","1","","","107","main_expt","",""
"","bandit","191","491414","0.0-149.0-0.0","91027214","wem/bandit_party_1","AUG2YR37BY9BK","either","5","601","","","","","","","0","0","1","0.1864487031","","0.2","0.8","0.6","0.4","","","","","0.3945753887","0.1864487031","0.1752395656","0.258150515","","","","","","","","","","74","J","1","","","108","main_expt","",""
"","bandit","192","493545","0.0-150.0-0.0","91027214","wem/bandit_party_1","AUG2YR37BY9BK","either","5","618","","","","","","","0","0","1","","0.1859129148","0.2","0.8","0.6","0.4","0.356827327","0.2463216238","0.1862973424","0.1859129148","","","","","","","","","","","","","","76","L","3","","","109","main_expt","",""
"","bandit","193","495065","0.0-151.0-0.0","91027214","wem/bandit_party_1","AUG2YR37BY9BK","either","5","12","","","","","","","0","0","1","0.1371624404","","0.2","0.8","0.6","0.4","","","","","0.2344179837","0.2431522628","0.2015845776","0.1371624404","","","","","","","","","","76","L","3","","","110","main_expt","",""
"","bandit","194","497354","0.0-152.0-0.0","91027214","wem/bandit_party_1","AUG2YR37BY9BK","either","5","779","","","","","","","0","0","1","","0.2644823096","0.2","0.8","0.6","0.4","0.2644823096","0.1757476643","0.2003651753","0.1258232978","","","","","","","","","","","","","","72","H","0","img/none_selected.jpg","","111","main_expt","",""
"","bandit","195","499529","0.0-153.0-0.0","91027214","wem/bandit_party_1","AUG2YR37BY9BK","either","5","662","","","","","","","0","1","0","","0.21392293","0.2","0.8","0.6","0.4","0.28311182","0.2451518953","0.21392293","0.1529967373","","","","","","","","","","","","","","75","K","2","","","112","main_expt","",""
"","bandit","196","502124","0.0-154.0-0.0","91027214","wem/bandit_party_1","AUG2YR37BY9BK","either","5","1083","","","","","","","0","0","1","","0.148248117","0.2","0.8","0.6","0.4","0.2413269532","0.2407836715","0.1606798039","0.148248117","","","","","","","","","","","","","","76","L","3","","","113","main_expt","",""
"","bandit","197","503639","0.0-155.0-0.0","91027214","wem/bandit_party_1","AUG2YR37BY9BK","either","5","5","","","","","","","0","0","1","0.1562208239","","0.2","0.8","0.6","0.4","","","","","0.3100969134","0.3099317417","0.2095980235","0.1562208239","","","","","","","","","","76","L","3","","","114","main_expt","",""
"","bandit","198","505743","0.0-156.0-0.0","91027214","wem/bandit_party_1","AUG2YR37BY9BK","either","5","594","","","","","","","0","0","1","","0.3180754701","0.2","0.8","0.6","0.4","0.329842252","0.3180754701","0.2550279667","0.2138032898","","","","","","","","","","","","","","74","J","1","","","115","main_expt","",""
"","bandit","199","509571","0.0-157.0-0.0","91027214","wem/bandit_party_1","AUG2YR37BY9BK","either","5","2317","","","","","","","1","0","0","0.2331260325","","0.2","0.8","0.6","0.4","","","","","0.3223706096","0.2919742107","0.2471764387","0.2331260325","","","","","","","","","","76","L","3","","","116","main_expt","",""
"","bandit","200","511133","0.0-158.0-0.0","91027214","wem/bandit_party_1","AUG2YR37BY9BK","either","5","50","","","","","","","0","0","1","0.2799774295","","0.2","0.8","0.6","0.4","","","","","0.3098408215","0.2799774295","0.2730878341","0.1826309729","","","","","","","","","","74","J","1","","","117","main_expt","",""
"","bandit","201","513350","0.0-159.0-0.0","91027214","wem/bandit_party_1","AUG2YR37BY9BK","either","5","704","","","","","","","0","1","0","","0.2974554567","0.2","0.8","0.6","0.4","0.2974554567","0.2646714695","0.2071462199","0.1511269107","","","","","","","","","","","","","","72","H","0","img/none_selected.jpg","","118","main_expt","",""
"","bandit","202","514988","0.0-160.0-0.0","91027214","wem/bandit_party_1","AUG2YR37BY9BK","either","5","126","","","","","","","0","0","1","0.1559979654","","0.2","0.8","0.6","0.4","","","","","0.3598468986","0.3179839519","0.2275232499","0.1559979654","","","","","","","","","","76","L","3","","","119","main_expt","",""
"","bandit","203","516503","0.0-161.0-0.0","91027214","wem/bandit_party_1","AUG2YR37BY9BK","either","5","1","","","","","","","0","0","1","0.1463004055","","0.2","0.8","0.6","0.4","","","","","0.2984373086","0.3302262658","0.2767559596","0.1463004055","","","","","","","","","","76","L","3","","","120","main_expt","",""
"","bandit","204","518357","0.0-162.0-0.0","91027214","wem/bandit_party_1","AUG2YR37BY9BK","either","5","341","","","","","","","0","0","1","0.3448590315","","0.2","0.8","0.6","0.4","","","","","0.2973090059","0.3500549905","0.3448590315","0.1418195479","","","","","","","","","","75","K","2","","","121","main_expt","",""
"","bandit","205","521339","0.0-163.0-0.0","91027214","wem/bandit_party_1","AUG2YR37BY9BK","either","5","1472","","","","","","","0","0","1","","0.3593301016","0.2","0.8","0.6","0.4","0.3382791822","0.2686616284","0.3593301016","0.1270782113","","","","","","","","","","","","","","75","K","2","","","122","main_expt","",""
"","bandit","206","524206","0.0-164.0-0.0","91027214","wem/bandit_party_1","AUG2YR37BY9BK","either","5","1355","","","","","","","1","0","0","0.3154347028","","0.2","0.8","0.6","0.4","","","","","0.3154347028","0.2277230314","0.3680529171","0.1207154071","","","","","","","","","","72","H","0","img/none_selected.jpg","","123","main_expt","",""
"","bandit","207","525768","0.0-165.0-0.0","91027214","wem/bandit_party_1","AUG2YR37BY9BK","either","5","52","","","","","","","0","1","0","","0.2966737815","0.2","0.8","0.6","0.4","0.2966737815","0.3287090939","0.3476523483","0.1229329119","","","","","","","","","","","","","","72","H","0","img/none_selected.jpg","","124","main_expt","",""
"","bandit","208","527788","0.0-166.0-0.0","91027214","wem/bandit_party_1","AUG2YR37BY9BK","either","5","506","","","","","","","1","0","0","0.3564603465","","0.2","0.8","0.6","0.4","","","","","0.3094831126","0.3687339586","0.3564603465","0.09241122996","","","","","","","","","","75","K","2","","","125","main_expt","",""
"","bandit","209","529395","0.0-167.0-0.0","91027214","wem/bandit_party_1","AUG2YR37BY9BK","either","5","97","","","","","","","0","0","1","0.08418962236","","0.2","0.8","0.6","0.4","","","","","0.2488993205","0.3836195774","0.3550684458","0.08418962236","","","","","","","","","","76","L","3","","","126","main_expt","",""
"","bandit","210","531793","0.0-168.0-0.0","91027214","wem/bandit_party_1","AUG2YR37BY9BK","either","5","885","","","","","","","0","0","1","","0.154715772","0.2","0.8","0.6","0.4","0.1953487027","0.3617365958","0.3235559827","0.154715772","","","","","","","","","","","","","","76","L","3","","","127","main_expt","",""
"","bandit","211","533721","0.0-169.0-0.0","91027214","wem/bandit_party_1","AUG2YR37BY9BK","either","5","416","","","","","","","0","0","1","","0.3235283493","0.2","0.8","0.6","0.4","0.2171889907","0.3235283493","0.312087491","0.1556709078","","","","","","","","","","","","","","74","J","1","","","128","main_expt","",""
"","bandit","212","535863","0.0-170.0-0.0","91027214","wem/bandit_party_1","AUG2YR37BY9BK","either","5","629","","","","","","","0","0","1","0.2843272188","","0.2","0.8","0.6","0.4","","","","","0.2467699801","0.3453830546","0.2843272188","0.1214200615","","","","","","","","","","75","K","2","","","129","main_expt","",""
"","bandit","213","537372","0.0-171.0-0.0","91027214","wem/bandit_party_1","AUG2YR37BY9BK","either","5","0","","","","","","","0","0","1","0.1377283829","","0.2","0.8","0.6","0.4","","","","","0.2814443482","0.3242747857","0.2128416856","0.1377283829","","","","","","","","","","76","L","3","","","130","main_expt","",""
"","bandit","214","539350","0.0-172.0-0.0","91027214","wem/bandit_party_1","AUG2YR37BY9BK","either","5","467","","","","","","","0","0","1","0.2834176508","","0.2","0.8","0.6","0.4","","","","","0.2834176508","0.3417201858","0.2403879813","0.1397421628","","","","","","","","","","72","H","0","img/none_selected.jpg","","131","main_expt","",""
"","bandit","215","541385","0.0-173.0-0.0","91027214","wem/bandit_party_1","AUG2YR37BY9BK","either","5","522","","","","","","","0","0","1","","0.2429908031","0.2","0.8","0.6","0.4","0.2429908031","0.3498614837","0.2811421594","0.1061875113","","","","","","","","","","","","","","72","H","0","img/none_selected.jpg","","132","main_expt","",""
"","bandit","216","543536","0.0-174.0-0.0","91027214","wem/bandit_party_1","AUG2YR37BY9BK","either","5","639","","","","","","","1","0","0","0.3053559495","","0.2","0.8","0.6","0.4","","","","","0.3053559495","0.3134828643","0.3002858371","0.07774811701","","","","","","","","","","72","H","0","img/none_selected.jpg","","133","main_expt","",""
"","bandit","217","545569","0.0-175.0-0.0","91027214","wem/bandit_party_1","AUG2YR37BY9BK","either","5","520","","","","","","","0","0","1","","0.2693478067","0.2","0.8","0.6","0.4","0.2693478067","0.3554593188","0.277406375","0.08211281178","","","","","","","","","","","","","","72","H","0","img/none_selected.jpg","","134","main_expt","",""
"","bandit","218","547584","0.0-176.0-0.0","91027214","wem/bandit_party_1","AUG2YR37BY9BK","either","5","499","","","","","","","0","0","1","","0.1123817552","0.2","0.8","0.6","0.4","0.3369166079","0.3150900126","0.2897147582","0.1123817552","","","","","","","","","","","","","","76","L","3","","","135","main_expt","",""
"","bandit","219","549703","0.0-177.0-0.0","91027214","wem/bandit_party_1","AUG2YR37BY9BK","either","5","608","","","","","","","0","0","1","","0.268603144","0.2","0.8","0.6","0.4","0.268603144","0.3199395785","0.3590576628","0.1478339482","","","","","","","","","","","","","","72","H","0","img/none_selected.jpg","","136","main_expt","",""
"","bandit","220","551867","0.0-178.0-0.0","91027214","wem/bandit_party_1","AUG2YR37BY9BK","either","5","649","","","","","","","0","0","1","","0.1374936615","0.2","0.8","0.6","0.4","0.2373427956","0.33362357","0.3822427384","0.1374936615","","","","","","","","","","","","","","76","L","3","","","137","main_expt","",""
"","bandit","221","553742","0.0-179.0-0.0","91027214","wem/bandit_party_1","AUG2YR37BY9BK","either","5","364","","","","","","","0","0","1","","0.159761955","0.2","0.8","0.6","0.4","0.2206869265","0.3611324022","0.3410071165","0.159761955","","","","","","","","","","","","","","76","L","3","","","138","main_expt","",""
"","bandit","222","555304","0.0-180.0-0.0","91027214","wem/bandit_party_1","AUG2YR37BY9BK","either","5","49","","","","","","","0","0","1","","0.1363721132","0.2","0.8","0.6","0.4","0.2177966349","0.3504145086","0.3738014659","0.1363721132","","","","","","","","","","","","","","76","L","3","","","139","main_expt","",""
"","bandit","223","557153","0.0-181.0-0.0","91027214","wem/bandit_party_1","AUG2YR37BY9BK","either","5","340","","","","","","","0","0","1","","0.2387685432","0.2","0.8","0.6","0.4","0.2387685432","0.309774603","0.422575493","0.1031445192","","","","","","","","","","","","","","72","H","0","img/none_selected.jpg","","140","main_expt","",""
"","bandit","224","560029","0.0-182.0-0.0","91027214","wem/bandit_party_1","AUG2YR37BY9BK","either","5","1363","","","","","","","0","0","1","","0.09805286369","0.2","0.8","0.6","0.4","0.2575087366","0.3506531288","0.4439129864","0.09805286369","","","","","","","","","","","","","","76","L","3","","","141","main_expt","",""
"","bandit","225","561626","0.0-183.0-0.0","91027214","wem/bandit_party_1","AUG2YR37BY9BK","either","5","87","","","","","","","0","0","1","","0.1149002948","0.2","0.8","0.6","0.4","0.2392038972","0.2965027242","0.4323802182","0.1149002948","","","","","","","","","","","","","","76","L","3","","","142","main_expt","",""
"","bandit","226","564139","0.0-184.0-0.0","91027214","wem/bandit_party_1","AUG2YR37BY9BK","either","5","999","","","","","","","0","0","1","0.1209542099","","0.2","0.8","0.6","0.4","","","","","0.2216470548","0.2087517366","0.4358412593","0.1209542099","","","","","","","","","","76","L","3","","","143","main_expt","",""
"","bandit","227","569062","0.0-185.0-0.0","91027214","wem/bandit_party_1","AUG2YR37BY9BK","either","5","3412","","","","","","","0","0","1","","0.4407373256","0.2","0.8","0.6","0.4","0.2224896139","0.2313605626","0.4407373256","0.1202521083","","","","","","","","","","","","","","75","K","2","","","144","main_expt","",""
"","bandit","228","622681","0.0-186.0-0.0","91027214","wem/bandit_party_1","AUG2YR37BY9BK","either","5","52108","","","","","","","0","0","1","","0.1785565547","0.2","0.8","0.6","0.4","0.1925605464","0.1785565547","0.4661091035","0.1619743669","","","","","","","","","","","","","","74","J","1","","","145","main_expt","",""
"","bandit","229","627685","0.0-187.0-0.0","91027214","wem/bandit_party_1","AUG2YR37BY9BK","either","5","3495","","","","","","","1","0","0","0.4637097668","","0.2","0.8","0.6","0.4","","","","","0.2069800611","0.1770660648","0.4637097668","0.1664631043","","","","","","","","","","75","K","2","","","146","main_expt","",""
"","bandit","230","630693","0.0-188.0-0.0","91027214","wem/bandit_party_1","AUG2YR37BY9BK","either","5","1497","","","","","","","0","0","1","0.4700491642","","0.2","0.8","0.6","0.4","","","","","0.2489662189","0.1063371611","0.4700491642","0.1669241763","","","","","","","","","","75","K","2","","","147","main_expt","",""
"","bandit","231","632473","0.0-189.0-0.0","91027214","wem/bandit_party_1","AUG2YR37BY9BK","either","5","272","","","","","","","0","0","1","0.1216370817","","0.2","0.8","0.6","0.4","","","","","0.1946464158","0.1216370817","0.4648109734","0.1581456949","","","","","","","","","","74","J","1","","","148","main_expt","",""
"","bandit","232","633997","0.0-190.0-0.0","91027214","wem/bandit_party_1","AUG2YR37BY9BK","either","5","13","","","","","","","0","0","1","","0.1826562491","0.2","0.8","0.6","0.4","0.1826562491","0.1024256959","0.4635511513","0.1698392466","","","","","","","","","","","","","","72","H","0","img/none_selected.jpg","","149","main_expt","",""
"","bandit","233","636110","0.0-191.0-0.0","91027214","wem/bandit_party_1","AUG2YR37BY9BK","either","5","599","","","","","","","0","0","1","0.1371094633","","0.2","0.8","0.6","0.4","","","","","0.1750473563","0.1371094633","0.4445017148","0.2140114634","","","","","","","","","","74","J","1","","","150","main_expt","",""
"","bandit","234","637974","0.0-192.0-0.0","91027214","wem/bandit_party_1","AUG2YR37BY9BK","either","5","352","","","","","","","0","0","1","0.1702433702","","0.2","0.8","0.6","0.4","","","","","0.1109536645","0.1702433702","0.4434799742","0.2392960001","","","","","","","","","","74","J","1","","","151","main_expt","",""
"","bandit","235","643367","0.0-193.0-0.0","91027214","wem/bandit_party_1","AUG2YR37BY9BK","either","5","3879","","","","","","","0","0","1","","0.2095863317","0.2","0.8","0.6","0.4","0.1143086707","0.1860489046","0.4451665291","0.2095863317","","","","","","","","","","","","","","76","L","3","","","152","main_expt","",""
"","bandit","236","644916","0.0-194.0-0.0","91027214","wem/bandit_party_1","AUG2YR37BY9BK","either","5","37","","","","","","","0","1","0","","0.1236290712","0.2","0.8","0.6","0.4","0.1236290712","0.2117094388","0.4401532833","0.2543258611","","","","","","","","","","","","","","72","H","0","img/none_selected.jpg","","153","main_expt","",""
"","bandit","237","648091","0.0-195.0-0.0","91027214","wem/bandit_party_1","AUG2YR37BY9BK","either","5","1666","","","","","","","0","0","1","0.1600695342","","0.2","0.8","0.6","0.4","","","","","0.1600695342","0.2072389033","0.4516855879","0.2602259906","","","","","","","","","","72","H","0","img/none_selected.jpg","","154","main_expt","",""
"","bandit","238","649630","0.0-196.0-0.0","91027214","wem/bandit_party_1","AUG2YR37BY9BK","either","5","28","","","","","","","0","0","1","","0.1770288166","0.2","0.8","0.6","0.4","0.1770288166","0.1986333914","0.4480264808","0.2750581274","","","","","","","","","","","","","","72","H","0","img/none_selected.jpg","","155","main_expt","",""
"","bandit","239","653009","0.0-197.0-0.0","91027214","wem/bandit_party_1","AUG2YR37BY9BK","either","5","1866","","","","","","","1","0","0","0.2438045727","","0.2","0.8","0.6","0.4","","","","","0.1761817894","0.2054640346","0.4260414265","0.2438045727","","","","","","","","","","76","L","3","","","156","main_expt","",""
"","bandit","240","654744","0.0-198.0-0.0","91027214","wem/bandit_party_1","AUG2YR37BY9BK","either","5","224","","","","","","","0","0","1","","0.2857025143","0.2","0.8","0.6","0.4","0.1998830888","0.1810715383","0.4365201507","0.2857025143","","","","","","","","","","","","","","76","L","3","","","157","main_expt","",""
"","bandit","241","656277","0.0-199.0-0.0","91027214","wem/bandit_party_1","AUG2YR37BY9BK","either","5","22","","","","","","","0","0","1","","0.4076244479","0.2","0.8","0.6","0.4","0.2150354531","0.2118906364","0.4076244479","0.2887719476","","","","","","","","","","","","","","75","K","2","","","158","main_expt","",""
"","bandit","242","660177","0.0-200.0-0.0","91027214","wem/bandit_party_1","AUG2YR37BY9BK","either","5","2388","","","","","","","0","0","1","0.2221069796","","0.2","0.8","0.6","0.4","","","","","0.2221069796","0.2293976715","0.403953851","0.2859462397","","","","","","","","","","72","H","0","img/none_selected.jpg","","159","main_expt","",""
"","bandit","243","662084","0.0-201.0-0.0","91027214","wem/bandit_party_1","AUG2YR37BY9BK","either","5","397","","","","","","","1","0","0","0.4282135537","","0.2","0.8","0.6","0.4","","","","","0.2627335039","0.2186051381","0.4282135537","0.207432816","","","","","","","","","","75","K","2","","","160","main_expt","",""
"","bandit","244","664230","0.0-202.0-0.0","91027214","wem/bandit_party_1","AUG2YR37BY9BK","either","5","631","","","","","","","1","0","0","0.2175927206","","0.2","0.8","0.6","0.4","","","","","0.2922457848","0.2175927206","0.4479073124","0.1611694724","","","","","","","","","","74","J","1","","","161","main_expt","",""
"","bandit","245","665890","0.0-203.0-0.0","91027214","wem/bandit_party_1","AUG2YR37BY9BK","either","5","151","","","","","","","0","1","0","","0.2370404117","0.2","0.8","0.6","0.4","0.3040212123","0.2370404117","0.4456201243","0.14378348","","","","","","","","","","","","","","74","J","1","","","162","main_expt","",""
"","bandit","246","667573","0.0-204.0-0.0","91027214","wem/bandit_party_1","AUG2YR37BY9BK","either","5","171","","","","","","","1","0","0","0.2778780432","","0.2","0.8","0.6","0.4","","","","","0.2933359027","0.2778780432","0.4384930657","0.1707099899","","","","","","","","","","74","J","1","","","163","main_expt","",""
"","bandit","247","670789","0.0-205.0-0.0","91027214","wem/bandit_party_1","AUG2YR37BY9BK","either","5","1702","","","","","","","0","1","0","","0.2643388611","0.2","0.8","0.6","0.4","0.2388203062","0.2643388611","0.4231568034","0.1933693166","","","","","","","","","","","","","","74","J","1","","","164","main_expt","",""
"","bandit","248","678632","0.0-206.0-0.0","91027214","wem/bandit_party_1","AUG2YR37BY9BK","either","5","6331","","","","","","","1","0","0","0.1967204453","","0.2","0.8","0.6","0.4","","","","","0.2646204916","0.1967204453","0.4412535734","0.2406324952","","","","","","","","","","74","J","1","","","165","main_expt","",""
"","bandit","249","681221","0.0-207.0-0.0","91027214","wem/bandit_party_1","AUG2YR37BY9BK","either","5","1076","","","","","","","0","1","0","","0.2591758032","0.2","0.8","0.6","0.4","0.2591758032","0.1567937345","0.438364003","0.2650462377","","","","","","","","","","","","","","72","H","0","img/none_selected.jpg","","166","main_expt","",""
"","bandit","250","687013","0.0-208.0-0.0","91027214","wem/bandit_party_1","AUG2YR37BY9BK","either","5","4283","","","","","","","0","1","0","","0.1955934818","0.2","0.8","0.6","0.4","0.1955934818","0.1201482918","0.4290991351","0.245875583","","","","","","","","","","","","","","72","H","0","img/none_selected.jpg","","167","main_expt","",""
"","bandit","251","690684","0.0-209.0-0.0","91027214","wem/bandit_party_1","AUG2YR37BY9BK","either","5","2163","","","","","","","0","0","1","0.0936051119","","0.2","0.8","0.6","0.4","","","","","0.2090603634","0.0936051119","0.4510860662","0.257303599","","","","","","","","","","74","J","1","","","168","main_expt","",""
"","bandit","252","692635","0.0-210.0-0.0","91027214","wem/bandit_party_1","AUG2YR37BY9BK","either","5","437","","","","","","","0","1","0","","0.2678479696","0.2","0.8","0.6","0.4","0.2678479696","0.08775096918","0.4491424364","0.2993732043","","","","","","","","","","","","","","72","H","0","img/none_selected.jpg","","169","main_expt","",""
"","bandit","253","694491","0.0-211.0-0.0","91027214","wem/bandit_party_1","AUG2YR37BY9BK","either","5","345","","","","","","","0","0","1","","0.2532125956","0.2","0.8","0.6","0.4","0.2532125956","0.06743429675","0.4332244901","0.3388977639","","","","","","","","","","","","","","72","H","0","img/none_selected.jpg","","170","main_expt","",""
"","bandit","254","696190","0.0-212.0-0.0","91027214","wem/bandit_party_1","AUG2YR37BY9BK","either","5","190","","","","","","","0","0","1","","0.4405036994","0.2","0.8","0.6","0.4","0.2568627054","0.05979118822","0.4405036994","0.2947926635","","","","","","","","","","","","","","75","K","2","","","171","main_expt","",""
"","bandit","255","697718","0.0-213.0-0.0","91027214","wem/bandit_party_1","AUG2YR37BY9BK","either","5","16","","","","","","","0","0","1","","0.2451563353","0.2","0.8","0.6","0.4","0.2451563353","0.03200499914","0.4358521759","0.2892529657","","","","","","","","","","","","","","72","H","0","img/none_selected.jpg","","172","main_expt","",""
"","bandit","256","701242","0.0-214.0-0.0","91027214","wem/bandit_party_1","AUG2YR37BY9BK","either","5","2014","","","","","","","0","0","1","","0.04613358223","0.2","0.8","0.6","0.4","0.3003395367","0.04613358223","0.4471617722","0.2571917514","","","","","","","","","","","","","","74","J","1","","","173","main_expt","",""
"","bandit","257","704726","0.0-215.0-0.0","91027214","wem/bandit_party_1","AUG2YR37BY9BK","either","5","1971","","","","","","","0","0","1","0.2545998681","","0.2","0.8","0.6","0.4","","","","","0.2545998681","0.05969677181","0.4560251174","0.244173221","","","","","","","","","","72","H","0","img/none_selected.jpg","","174","main_expt","",""
"","bandit","258","709108","0.0-216.0-0.0","91027214","wem/bandit_party_1","AUG2YR37BY9BK","either","5","2867","","","","","","","1","0","0","0.4379349024","","0.2","0.8","0.6","0.4","","","","","0.3383135611","0.05930066603","0.4379349024","0.2038098688","","","","","","","","","","75","K","2","","","175","main_expt","",""
"","bandit","259","711964","0.0-217.0-0.0","91027214","wem/bandit_party_1","AUG2YR37BY9BK","either","5","1346","","","","","","","0","0","1","","0.3880627729","0.2","0.8","0.6","0.4","0.3880627729","0.08110879181","0.4328841116","0.2053823003","","","","","","","","","","","","","","72","H","0","img/none_selected.jpg","","176","main_expt","",""
"","bandit","260","715099","0.0-218.0-0.0","91027214","wem/bandit_party_1","AUG2YR37BY9BK","either","5","1620","","","","","","","0","0","1","","0.3920994557","0.2","0.8","0.6","0.4","0.3920994557","0.07611568943","0.3965365967","0.2193083282","","","","","","","","","","","","","","72","H","0","img/none_selected.jpg","","177","main_expt","",""
"","bandit","261","717520","0.0-219.0-0.0","91027214","wem/bandit_party_1","AUG2YR37BY9BK","either","5","908","","","","","","","0","0","1","0.3899234309","","0.2","0.8","0.6","0.4","","","","","0.3882277994","0.1220467165","0.3899234309","0.1904263594","","","","","","","","","","75","K","2","","","178","main_expt","",""
"","bandit","262","719679","0.0-220.0-0.0","91027214","wem/bandit_party_1","AUG2YR37BY9BK","either","5","646","","","","","","","1","0","0","0.3939691408","","0.2","0.8","0.6","0.4","","","","","0.3939691408","0.1698853315","0.4238443777","0.2212788648","","","","","","","","","","72","H","0","img/none_selected.jpg","","179","main_expt","",""
"","bandit","263","721496","0.0-221.0-0.0","91027214","wem/bandit_party_1","AUG2YR37BY9BK","either","5","304","","","","","","","1","0","0","0.4074656662","","0.2","0.8","0.6","0.4","","","","","0.4074656662","0.1374762061","0.4487400994","0.2640717145","","","","","","","","","","72","H","0","img/none_selected.jpg","","180","main_expt","",""
"","bandit","264","723499","0.0-222.0-0.0","91027214","wem/bandit_party_1","AUG2YR37BY9BK","either","5","492","","","","","","","0","0","1","","0.3724421945","0.2","0.8","0.6","0.4","0.3724421945","0.09961924189","0.4314573438","0.2426483564","","","","","","","","","","","","","","72","H","0","img/none_selected.jpg","","181","main_expt","",""
"","bandit","265","725020","0.0-223.0-0.0","91027214","wem/bandit_party_1","AUG2YR37BY9BK","either","5","8","","","","","","","0","0","1","","0.4458059303","0.2","0.8","0.6","0.4","0.2998177931","0.1391043194","0.4458059303","0.2001563476","","","","","","","","","","","","","","75","K","2","","","182","main_expt","",""
"","bandit","266","728015","0.0-224.0-0.0","91027214","wem/bandit_party_1","AUG2YR37BY9BK","either","5","1482","","","","","","","0","0","1","","0.4485460149","0.2","0.8","0.6","0.4","0.3629728763","0.1336424596","0.4485460149","0.2167094124","","","","","","","","","","","","","","75","K","2","","","183","main_expt","",""
"","bandit","267","730819","0.0-225.0-0.0","91027214","wem/bandit_party_1","AUG2YR37BY9BK","either","5","1288","","","","","","","0","0","1","0.115911235","","0.2","0.8","0.6","0.4","","","","","0.3763603645","0.115911235","0.4078350507","0.2402813617","","","","","","","","","","74","J","1","","","184","main_expt","",""
"","bandit","268","733634","0.0-226.0-0.0","91027214","wem/bandit_party_1","AUG2YR37BY9BK","either","5","1303","","","","","","","0","0","1","0.1394203739","","0.2","0.8","0.6","0.4","","","","","0.3472982705","0.1394203739","0.3805788675","0.2745112141","","","","","","","","","","74","J","1","","","185","main_expt","",""
"","bandit","269","736554","0.0-227.0-0.0","91027214","wem/bandit_party_1","AUG2YR37BY9BK","either","5","1406","","","","","","","0","0","1","","0.1557479742","0.2","0.8","0.6","0.4","0.3095995051","0.1557479742","0.4236809331","0.2774566956","","","","","","","","","","","","","","74","J","1","","","186","main_expt","",""
"","bandit","270","739201","0.0-228.0-0.0","91027214","wem/bandit_party_1","AUG2YR37BY9BK","either","5","1133","","","","","","","0","0","1","","0.1823611596","0.2","0.8","0.6","0.4","0.2567332284","0.1823611596","0.4058627081","0.2876011691","","","","","","","","","","","","","","74","J","1","","","187","main_expt","",""
"","bandit","271","740995","0.0-229.0-0.0","91027214","wem/bandit_party_1","AUG2YR37BY9BK","either","5","281","","","","","","","0","0","1","","0.2555256861","0.2","0.8","0.6","0.4","0.2555256861","0.1854179297","0.3913346521","0.2947112378","","","","","","","","","","","","","","72","H","0","img/none_selected.jpg","","188","main_expt","",""
"","bandit","272","743090","0.0-230.0-0.0","91027214","wem/bandit_party_1","AUG2YR37BY9BK","either","5","581","","","","","","","0","0","1","0.1875645599","","0.2","0.8","0.6","0.4","","","","","0.2009875262","0.1875645599","0.3760164219","0.2581494","","","","","","","","","","74","J","1","","","189","main_expt","",""
"","bandit","273","745437","0.0-231.0-0.0","91027214","wem/bandit_party_1","AUG2YR37BY9BK","either","5","835","","","","","","","0","0","1","0.2018323604","","0.2","0.8","0.6","0.4","","","","","0.2055488595","0.2018323604","0.3327352817","0.1756323468","","","","","","","","","","74","J","1","","","190","main_expt","",""
"","bandit","274","747648","0.0-232.0-0.0","91027214","wem/bandit_party_1","AUG2YR37BY9BK","either","5","699","","","","","","","0","0","1","0.3015177445","","0.2","0.8","0.6","0.4","","","","","0.1506387864","0.221094727","0.3015177445","0.2521570866","","","","","","","","","","75","K","2","","","191","main_expt","",""
"","bandit","275","749366","0.0-233.0-0.0","91027214","wem/bandit_party_1","AUG2YR37BY9BK","either","5","205","","","","","","","0","0","1","0.2320570195","","0.2","0.8","0.6","0.4","","","","","0.2027442266","0.2320570195","0.2773298268","0.2964739449","","","","","","","","","","74","J","1","","","192","main_expt","",""
"","bandit","276","751218","0.0-234.0-0.0","91027214","wem/bandit_party_1","AUG2YR37BY9BK","either","5","341","","","","","","","0","0","1","","0.2836613797","0.2","0.8","0.6","0.4","0.1969137872","0.2948950962","0.2836613797","0.2612966838","","","","","","","","","","","","","","75","K","2","","","193","main_expt","",""
"","bandit","277","753807","0.0-235.0-0.0","91027214","wem/bandit_party_1","AUG2YR37BY9BK","either","5","1077","","","","","","","0","0","1","0.2602906927","","0.2","0.8","0.6","0.4","","","","","0.2114994946","0.2602906927","0.2799350415","0.3292914436","","","","","","","","","","74","J","1","","","194","main_expt","",""
"","bandit","278","758016","0.0-236.0-0.0","91027214","wem/bandit_party_1","AUG2YR37BY9BK","either","5","2695","","","","","","","0","0","1","0.1771499101","","0.2","0.8","0.6","0.4","","","","","0.2467939011","0.1771499101","0.2068597772","0.4070308407","","","","","","","","","","74","J","1","","","195","main_expt","",""
"","bandit","279","764633","0.0-237.0-0.0","91027214","wem/bandit_party_1","AUG2YR37BY9BK","either","5","5107","","","","","","","0","0","1","","0.1746274925","0.2","0.8","0.6","0.4","0.2731811988","0.1746274925","0.2679469531","0.3494820729","","","","","","","","","","","","","","74","J","1","","","196","main_expt","",""
"","bandit","280","767975","0.0-238.0-0.0","91027214","wem/bandit_party_1","AUG2YR37BY9BK","either","5","1830","","","","","","","0","0","1","0.193224684","","0.2","0.8","0.6","0.4","","","","","0.2512114903","0.193224684","0.2448078588","0.3571939809","","","","","","","","","","74","J","1","","","197","main_expt","",""
"","bandit","281","771483","0.0-239.0-0.0","91027214","wem/bandit_party_1","AUG2YR37BY9BK","either","5","1993","","","","","","","1","0","0","0.1771509929","","0.2","0.8","0.6","0.4","","","","","0.190651112","0.1771509929","0.2433987968","0.382430028","","","","","","","","","","74","J","1","","","198","main_expt","",""
"","bandit","282","774392","0.0-240.0-0.0","91027214","wem/bandit_party_1","AUG2YR37BY9BK","either","5","1394","","","","","","","0","0","1","0.2466668772","","0.2","0.8","0.6","0.4","","","","","0.1701189695","0.2466668772","0.2653624242","0.3353474301","","","","","","","","","","74","J","1","","","199","main_expt","",""
"","bandit","283","776511","0.0-241.0-0.0","91027214","wem/bandit_party_1","AUG2YR37BY9BK","either","5","608","","","","","","","0","0","1","0.2477816141","","0.2","0.8","0.6","0.4","","","","","0.1656975488","0.2477816141","0.2551376492","0.3321976498","","","","","","","","","","74","J","1","","","200","main_expt","",""
"","bandit","284","778403","0.0-242.0-0.0","91027214","wem/bandit_party_1","AUG2YR37BY9BK","either","5","375","","","","","","","1","0","0","0.2744817861","","0.2","0.8","0.6","0.4","","","","","0.1647298582","0.2744817861","0.2660639347","0.3218117355","","","","","","","","","","74","J","1","","","201","main_expt","",""
"","bandit","285","781317","0.0-243.0-0.0","91027214","wem/bandit_party_1","AUG2YR37BY9BK","either","5","1397","","","","","","","0","0","1","0.2220900594","","0.2","0.8","0.6","0.4","","","","","0.1242041815","0.3043062986","0.2220900594","0.2949214693","","","","","","","","","","75","K","2","","","202","main_expt","",""
"","bandit","286","785125","0.0-244.0-0.0","91027214","wem/bandit_party_1","AUG2YR37BY9BK","either","5","2296","","","","","","","1","0","0","0.272185569","","0.2","0.8","0.6","0.4","","","","","0.1684487429","0.272185569","0.1543353204","0.300077299","","","","","","","","","","74","J","1","","","203","main_expt","",""
"","bandit","287","787337","0.0-245.0-0.0","91027214","wem/bandit_party_1","AUG2YR37BY9BK","either","5","697","","","","","","","0","0","1","","0.1666409686","0.2","0.8","0.6","0.4","0.1666409686","0.2610767704","0.1605482003","0.2866085977","","","","","","","","","","","","","","72","H","0","img/none_selected.jpg","","204","main_expt","",""
"","bandit","288","789121","0.0-246.0-0.0","91027214","wem/bandit_party_1","AUG2YR37BY9BK","either","5","274","","","","","","","0","0","1","0.1406914754","","0.2","0.8","0.6","0.4","","","","","0.2197286508","0.2832615928","0.1406914754","0.2695546272","","","","","","","","","","75","K","2","","","205","main_expt","",""
"","bandit","289","792422","0.0-247.0-0.0","91027214","wem/bandit_party_1","AUG2YR37BY9BK","either","5","1787","","","","","","","0","0","1","0.300913322","","0.2","0.8","0.6","0.4","","","","","0.2754509052","0.300913322","0.1138947463","0.2622178416","","","","","","","","","","74","J","1","","","206","main_expt","",""
"","bandit","290","797124","0.0-248.0-0.0","91027214","wem/bandit_party_1","AUG2YR37BY9BK","either","5","3187","","","","","","","0","1","0","","0.3260258847","0.2","0.8","0.6","0.4","0.2664869377","0.3260258847","0.1096702189","0.2498186578","","","","","","","","","","","","","","74","J","1","","","207","main_expt","",""
"","bandit","291","800688","0.0-249.0-0.0","91027214","wem/bandit_party_1","AUG2YR37BY9BK","either","5","2057","","","","","","","0","0","1","0.3173829003","","0.2","0.8","0.6","0.4","","","","","0.2686565688","0.3173829003","0.09922356593","0.2335358635","","","","","","","","","","74","J","1","","","208","main_expt","",""
"","bandit","292","802534","0.0-250.0-0.0","91027214","wem/bandit_party_1","AUG2YR37BY9BK","either","5","332","","","","","","","0","0","1","0.3153846937","","0.2","0.8","0.6","0.4","","","","","0.2380255957","0.3153846937","0.101567507","0.2638942681","","","","","","","","","","74","J","1","","","209","main_expt","",""
"","bandit","293","805697","0.0-251.0-0.0","91027214","wem/bandit_party_1","AUG2YR37BY9BK","either","5","1652","","","","","","","0","0","1","0.3010876552","","0.2","0.8","0.6","0.4","","","","","0.2507768727","0.3010876552","0.08675379402","0.2526926237","","","","","","","","","","74","J","1","","","210","main_expt","",""
"","bandit","294","808009","0.0-252.0-0.0","91027214","wem/bandit_party_1","AUG2YR37BY9BK","either","5","799","","","","","","","0","0","1","0.2864900033","","0.2","0.8","0.6","0.4","","","","","0.2685142319","0.2864900033","0.07512021269","0.2740367769","","","","","","","","","","74","J","1","","","211","main_expt","",""
"","bandit","295","809720","0.0-253.0-0.0","91027214","wem/bandit_party_1","AUG2YR37BY9BK","either","5","196","","","","","","","0","0","1","0.3163372434","","0.2","0.8","0.6","0.4","","","","","0.260511483","0.3163372434","0.08144254236","0.2440836191","","","","","","","","","","74","J","1","","","212","main_expt","",""
"","bandit","296","812525","0.0-254.0-0.0","91027214","wem/bandit_party_1","AUG2YR37BY9BK","either","5","1292","","","","","","","0","0","1","0.2701305136","","0.2","0.8","0.6","0.4","","","","","0.2579605047","0.2701305136","0.06585574052","0.2341903104","","","","","","","","","","74","J","1","","","213","main_expt","",""
"","bandit","297","814042","0.0-255.0-0.0","91027214","wem/bandit_party_1","AUG2YR37BY9BK","either","5","7","","","","","","","0","0","1","","0.2470456849","0.2","0.8","0.6","0.4","0.2470456849","0.302599165","0.08686614453","0.2097526345","","","","","","","","","","","","","","72","H","0","img/none_selected.jpg","","214","main_expt","",""
"","bandit","298","816205","0.0-256.0-0.0","91027214","wem/bandit_party_1","AUG2YR37BY9BK","either","5","646","","","","","","","0","0","1","0.2968005471","","0.2","0.8","0.6","0.4","","","","","0.3285383036","0.2968005471","0.1068548489","0.1796882487","","","","","","","","","","74","J","1","","","215","main_expt","",""
"","bandit","299","818823","0.0-257.0-0.0","91027214","wem/bandit_party_1","AUG2YR37BY9BK","either","5","1107","","","","","","","1","0","0","0.2835536598","","0.2","0.8","0.6","0.4","","","","","0.3780044773","0.2835536598","0.1211736082","0.2237900511","","","","","","","","","","74","J","1","","","216","main_expt","",""
"","bandit","300","822649","0.0-258.0-0.0","91027214","wem/bandit_party_1","AUG2YR37BY9BK","either","5","2312","","","","","","","1","0","0","0.2520762718","","0.2","0.8","0.6","0.4","","","","","0.3939228946","0.2520762718","0.09343701815","0.2265358539","","","","","","","","","","74","J","1","","","217","main_expt","",""
"","bandit","301","824756","0.0-259.0-0.0","91027214","wem/bandit_party_1","AUG2YR37BY9BK","either","5","597","","","","","","","0","0","1","0.1001055386","","0.2","0.8","0.6","0.4","","","","","0.3198270803","0.2562699476","0.1001055386","0.2364013437","","","","","","","","","","75","K","2","","","218","main_expt","",""
"","bandit","302","826837","0.0-260.0-0.0","91027214","wem/bandit_party_1","AUG2YR37BY9BK","either","5","568","","","","","","","0","0","1","0.3002431464","","0.2","0.8","0.6","0.4","","","","","0.3502502288","0.3002431464","0.09524874014","0.2810560361","","","","","","","","","","74","J","1","","","219","main_expt","",""
"","bandit","303","828483","0.0-261.0-0.0","91027214","wem/bandit_party_1","AUG2YR37BY9BK","either","5","132","","","","","","","0","0","1","0.3365413303","","0.2","0.8","0.6","0.4","","","","","0.3402456168","0.3365413303","0.1304899995","0.3027429446","","","","","","","","","","74","J","1","","","220","main_expt","",""
"","bandit","304","830062","0.0-262.0-0.0","91027214","wem/bandit_party_1","AUG2YR37BY9BK","either","5","66","","","","","","","0","0","1","0.2946103072","","0.2","0.8","0.6","0.4","","","","","0.3770059732","0.2946103072","0.1272814923","0.3132134988","","","","","","","","","","74","J","1","","","221","main_expt","",""
"","bandit","305","834938","0.0-263.0-0.0","91027214","wem/bandit_party_1","AUG2YR37BY9BK","either","5","3364","","","","","","","0","0","1","0.1654407056","","0.2","0.8","0.6","0.4","","","","","0.3864421123","0.3267284332","0.1654407056","0.2424821827","","","","","","","","","","75","K","2","","","222","main_expt","",""
"","bandit","306","837126","0.0-264.0-0.0","91027214","wem/bandit_party_1","AUG2YR37BY9BK","either","5","675","","","","","","","0","0","1","","0.1788325852","0.2","0.8","0.6","0.4","0.4205211408","0.3175152631","0.1788325852","0.2595367495","","","","","","","","","","","","","","75","K","2","","","223","main_expt","",""
"","bandit","307","839594","0.0-265.0-0.0","91027214","wem/bandit_party_1","AUG2YR37BY9BK","either","5","956","","","","","","","1","0","0","0.328819141","","0.2","0.8","0.6","0.4","","","","","0.4131889957","0.3192400935","0.1736623033","0.328819141","","","","","","","","","","76","L","3","","","224","main_expt","",""
"","bandit","308","842148","0.0-266.0-0.0","91027214","wem/bandit_party_1","AUG2YR37BY9BK","either","5","1041","","","","","","","0","1","0","","0.356121412","0.2","0.8","0.6","0.4","0.4001513574","0.3096750449","0.1721911447","0.356121412","","","","","","","","","","","","","","76","L","3","","","225","main_expt","",""
"","bandit","309","843862","0.0-267.0-0.0","91027214","wem/bandit_party_1","AUG2YR37BY9BK","either","5","206","","","","","","","0","0","1","","0.3394019192","0.2","0.8","0.6","0.4","0.3963688582","0.3142833063","0.2133818582","0.3394019192","","","","","","","","","","","","","","76","L","3","","","226","main_expt","",""
"","bandit","310","847152","0.0-268.0-0.0","91027214","wem/bandit_party_1","AUG2YR37BY9BK","either","5","1774","","","","","","","0","0","1","","0.2860553004","0.2","0.8","0.6","0.4","0.3979714495","0.3096885674","0.2620007467","0.2860553004","","","","","","","","","","","","","","76","L","3","","","227","main_expt","",""
"","bandit","311","851500","0.0-269.0-0.0","91027214","wem/bandit_party_1","AUG2YR37BY9BK","either","5","2836","","","","","","","0","0","1","","0.3811043637","0.2","0.8","0.6","0.4","0.3811043637","0.3048295172","0.2961930455","0.2967856672","","","","","","","","","","","","","","72","H","0","img/none_selected.jpg","","228","main_expt","",""
"","bandit","312","854507","0.0-270.0-0.0","91027214","wem/bandit_party_1","AUG2YR37BY9BK","either","5","1496","","","","","","","0","0","1","","0.3081123415","0.2","0.8","0.6","0.4","0.3488149186","0.2553920021","0.3081123415","0.2857745529","","","","","","","","","","","","","","75","K","2","","","229","main_expt","",""
"","bandit","313","856631","0.0-271.0-0.0","91027214","wem/bandit_party_1","AUG2YR37BY9BK","either","5","609","","","","","","","0","0","1","0.3027177586","","0.2","0.8","0.6","0.4","","","","","0.2883621188","0.2783794412","0.3027177586","0.2589404948","","","","","","","","","","75","K","2","","","230","main_expt","",""
"","bandit","314","859261","0.0-272.0-0.0","91027214","wem/bandit_party_1","AUG2YR37BY9BK","either","5","1117","","","","","","","0","0","1","0.2444465504","","0.2","0.8","0.6","0.4","","","","","0.2444465504","0.2735536708","0.2495346478","0.2628441024","","","","","","","","","","72","H","0","img/none_selected.jpg","","231","main_expt","",""
