"consent","trial_type","trial_index","time_elapsed","internal_node_id","subjID","study","MID","cond","drift","rt","responses","button_pressed","key_press","like","value","connected","gems","bombs","no_reward","GemPrChosen","BombPrChosen","GainOverPainPr_0","GainOverPainPr_1","GainOverPainPr_2","GainOverPainPr_3","LosePr_0","LosePr_1","LosePr_2","LosePr_3","WinPr_0","WinPr_1","WinPr_2","WinPr_3","Q0","Q1","Q2","gender","age","ethnicity","label","expt_phase","target","respCharCode","respKey","respChoiceNum","respChoice","practice","trial_counter","trial_label","Q0_index"
"GDM/GDM_behavioral_consent_30min_online.html","consent","0","18447","0.0-0.0","92439892","wem/bandit_party_1","A3UIDRGBV9NJWR","either","7","","","","","","","","","","","","","","","","","","","","","","","","","","","","","","","","","","","","","","","","",""
"","survey-text","1","37643","0.0-1.0","92439892","wem/bandit_party_1","A3UIDRGBV9NJWR","either","7","18191","{""Q0"":""A3UIDRGBV9NJWR""}","","","","","","","","","","","","","","","","","","","","","","","","","","","","","","","","","","","","","","",""
"","button-response","2","40392","0.0-2.0","92439892","wem/bandit_party_1","A3UIDRGBV9NJWR","either","7","1744","","1","","","","","","","","","","","","","","","","","","","","","","","","","","","","","","","","","","","","","",""
"","text-replacement","3","735534","0.0-3.0","92439892","wem/bandit_party_1","A3UIDRGBV9NJWR","either","7","694137","","","32","","","","","","","","","","","","","","","","","","","","","","","","","","","","","","","","","","","","",""
"","text-replacement","4","744816","0.0-4.0","92439892","wem/bandit_party_1","A3UIDRGBV9NJWR","either","7","9280","","","32","","","","","","","","","","","","","","","","","","","","","","","","","","","","","","","","","","","","",""
"","identification","5","750865","0.0-6.0-0.0","92439892","wem/bandit_party_1","A3UIDRGBV9NJWR","either","7","6023","","","","0","0","0","","","","","","","","","","","","","","","","","","","","","","","","pre","identification_pre","the Republican party","","","","","","","",""
"","identification","6","756894","0.0-6.0-1.0","92439892","wem/bandit_party_1","A3UIDRGBV9NJWR","either","7","5022","","","","3","4","2","","","","","","","","","","","","","","","","","","","","","","","","pre","identification_pre","the Democratic Party","","","","","","","",""
"","text-replacement","7","763908","0.0-7.0","92439892","wem/bandit_party_1","A3UIDRGBV9NJWR","either","7","6011","","","32","","","","","","","","","","","","","","","","","","","","","","","","","","","","","","","","","","","","",""
"","text-replacement","8","768828","0.0-8.0","92439892","wem/bandit_party_1","A3UIDRGBV9NJWR","either","7","4917","","","32","","","","","","","","","","","","","","","","","","","","","","","","","","","","","","","","","","","","",""
"","text-replacement","9","783644","0.0-9.0","92439892","wem/bandit_party_1","A3UIDRGBV9NJWR","either","7","14813","","","32","","","","","","","","","","","","","","","","","","","","","","","","","","","","","","","","","","","","",""
"","text-replacement","10","786684","0.0-10.0","92439892","wem/bandit_party_1","A3UIDRGBV9NJWR","either","7","3039","","","32","","","","","","","","","","","","","","","","","","","","","","","","","","","","","","","","","","","","",""
"","text-replacement","11","795076","0.0-11.0","92439892","wem/bandit_party_1","A3UIDRGBV9NJWR","either","7","8390","","","32","","","","","","","","","","","","","","","","","","","","","","","","","","","","","","","","","","","","",""
"","bandit","12","798829","0.0-12.0-0.0","92439892","wem/bandit_party_1","A3UIDRGBV9NJWR","either","7","2244","","","","","","","0","0","1","0","0","","","","","0","","","","0","","","","","","","","","","","","","74","J","0","img/none_selected_demo.jpg","true","0","",""
"","bandit","13","801338","0.0-13.0-0.0","92439892","wem/bandit_party_1","A3UIDRGBV9NJWR","either","7","1004","","","","","","","0","0","1","0","0","","","","","0","","","","0","","","","","","","","","","","","","75","K","0","img/none_selected_demo.jpg","true","0","",""
"","text-replacement","14","806134","0.0-14.0","92439892","wem/bandit_party_1","A3UIDRGBV9NJWR","either","7","4794","","","32","","","","","","","","","","","","","","","","","","","","","","","","","","","","","","","","","","","","",""
"","text-replacement","15","810963","0.0-15.0","92439892","wem/bandit_party_1","A3UIDRGBV9NJWR","either","7","4826","","","32","","","","","","","","","","","","","","","","","","","","","","","","","","","","","","","","","","","","",""
"","text-replacement","16","815476","0.0-16.0","92439892","wem/bandit_party_1","A3UIDRGBV9NJWR","either","7","4511","","","32","","","","","","","","","","","","","","","","","","","","","","","","","","","","","","","","","","","","",""
"","text-replacement","17","817948","0.0-17.0","92439892","wem/bandit_party_1","A3UIDRGBV9NJWR","either","7","2471","","","32","","","","","","","","","","","","","","","","","","","","","","","","","","","","","","","","","","","","",""
"","bandit","18","820452","0.0-18.0-0.0","92439892","wem/bandit_party_1","A3UIDRGBV9NJWR","either","7","997","","","","","","","0","1","0","","0.8","0.5","0.5","","","0.8","0.2","","","","","","","","","","","","","","","","74","J","0","img/none_selected_demo.jpg","true","0","80_20_practice",""
"","bandit","19","822237","0.0-18.0-1.0","92439892","wem/bandit_party_1","A3UIDRGBV9NJWR","either","7","277","","","","","","","1","0","0","0.2","","0.5","0.5","","","","","","","0.8","0.2","","","","","","","","","","","","75","K","1","","true","0","80_20_practice",""
"","bandit","20","823972","0.0-18.0-2.0","92439892","wem/bandit_party_1","A3UIDRGBV9NJWR","either","7","228","","","","","","","0","0","1","0.2","","0.5","0.5","","","","","","","0.8","0.2","","","","","","","","","","","","75","K","1","","true","0","80_20_practice",""
"","bandit","21","825700","0.0-18.0-3.0","92439892","wem/bandit_party_1","A3UIDRGBV9NJWR","either","7","219","","","","","","","0","0","1","","0.2","0.5","0.5","","","0.8","0.2","","","","","","","","","","","","","","","","75","K","1","","true","0","80_20_practice",""
"","bandit","22","827459","0.0-18.0-4.0","92439892","wem/bandit_party_1","A3UIDRGBV9NJWR","either","7","251","","","","","","","1","0","0","0.8","","0.5","0.5","","","","","","","0.8","0.2","","","","","","","","","","","","74","J","0","img/none_selected_demo.jpg","true","0","80_20_practice",""
"","bandit","23","829218","0.0-18.0-5.0","92439892","wem/bandit_party_1","A3UIDRGBV9NJWR","either","7","254","","","","","","","0","0","1","0.8","","0.5","0.5","","","","","","","0.8","0.2","","","","","","","","","","","","74","J","0","img/none_selected_demo.jpg","true","0","80_20_practice",""
"","bandit","24","830883","0.0-18.0-6.0","92439892","wem/bandit_party_1","A3UIDRGBV9NJWR","either","7","160","","","","","","","1","0","0","0.8","","0.5","0.5","","","","","","","0.8","0.2","","","","","","","","","","","","74","J","0","img/none_selected_demo.jpg","true","0","80_20_practice",""
"","bandit","25","832689","0.0-18.0-7.0","92439892","wem/bandit_party_1","A3UIDRGBV9NJWR","either","7","303","","","","","","","0","1","0","","0.8","0.5","0.5","","","0.8","0.2","","","","","","","","","","","","","","","","74","J","0","img/none_selected_demo.jpg","true","0","80_20_practice",""
"","bandit","26","834348","0.0-18.0-8.0","92439892","wem/bandit_party_1","A3UIDRGBV9NJWR","either","7","151","","","","","","","0","0","1","","0.8","0.5","0.5","","","0.8","0.2","","","","","","","","","","","","","","","","74","J","0","img/none_selected_demo.jpg","true","0","80_20_practice",""
"","bandit","27","836011","0.0-18.0-9.0","92439892","wem/bandit_party_1","A3UIDRGBV9NJWR","either","7","156","","","","","","","1","0","0","0.2","","0.5","0.5","","","","","","","0.8","0.2","","","","","","","","","","","","75","K","1","","true","0","80_20_practice",""
"","bandit","28","838007","0.0-18.0-10.0","92439892","wem/bandit_party_1","A3UIDRGBV9NJWR","either","7","484","","","","","","","0","1","0","","0.8","0.5","0.5","","","0.8","0.2","","","","","","","","","","","","","","","","74","J","0","img/none_selected_demo.jpg","true","0","80_20_practice",""
"","bandit","29","839770","0.0-18.0-11.0","92439892","wem/bandit_party_1","A3UIDRGBV9NJWR","either","7","258","","","","","","","0","1","0","","0.8","0.5","0.5","","","0.8","0.2","","","","","","","","","","","","","","","","74","J","0","img/none_selected_demo.jpg","true","0","80_20_practice",""
"","bandit","30","841526","0.0-18.0-12.0","92439892","wem/bandit_party_1","A3UIDRGBV9NJWR","either","7","250","","","","","","","1","0","0","0.8","","0.5","0.5","","","","","","","0.8","0.2","","","","","","","","","","","","74","J","0","img/none_selected_demo.jpg","true","0","80_20_practice",""
"","bandit","31","843326","0.0-18.0-13.0","92439892","wem/bandit_party_1","A3UIDRGBV9NJWR","either","7","292","","","","","","","1","0","0","0.8","","0.5","0.5","","","","","","","0.8","0.2","","","","","","","","","","","","74","J","0","img/none_selected_demo.jpg","true","0","80_20_practice",""
"","bandit","32","845067","0.0-18.0-14.0","92439892","wem/bandit_party_1","A3UIDRGBV9NJWR","either","7","234","","","","","","","0","0","1","0.2","","0.5","0.5","","","","","","","0.8","0.2","","","","","","","","","","","","75","K","1","","true","0","80_20_practice",""
"","bandit","33","846787","0.0-18.0-15.0","92439892","wem/bandit_party_1","A3UIDRGBV9NJWR","either","7","209","","","","","","","0","0","1","0.2","","0.5","0.5","","","","","","","0.8","0.2","","","","","","","","","","","","75","K","1","","true","0","80_20_practice",""
"","bandit","34","848642","0.0-18.0-16.0","92439892","wem/bandit_party_1","A3UIDRGBV9NJWR","either","7","350","","","","","","","1","0","0","0.8","","0.5","0.5","","","","","","","0.8","0.2","","","","","","","","","","","","74","J","0","img/none_selected_demo.jpg","true","0","80_20_practice",""
"","bandit","35","850433","0.0-18.0-17.0","92439892","wem/bandit_party_1","A3UIDRGBV9NJWR","either","7","285","","","","","","","1","0","0","0.8","","0.5","0.5","","","","","","","0.8","0.2","","","","","","","","","","","","74","J","0","img/none_selected_demo.jpg","true","0","80_20_practice",""
"","bandit","36","853021","0.0-18.0-18.0","92439892","wem/bandit_party_1","A3UIDRGBV9NJWR","either","7","1082","","","","","","","1","0","0","0.8","","0.5","0.5","","","","","","","0.8","0.2","","","","","","","","","","","","74","J","0","img/none_selected_demo.jpg","true","0","80_20_practice",""
"","bandit","37","854794","0.0-18.0-19.0","92439892","wem/bandit_party_1","A3UIDRGBV9NJWR","either","7","266","","","","","","","0","1","0","","0.8","0.5","0.5","","","0.8","0.2","","","","","","","","","","","","","","","","74","J","0","img/none_selected_demo.jpg","true","0","80_20_practice",""
"","text-replacement","38","858661","0.0-19.0","92439892","wem/bandit_party_1","A3UIDRGBV9NJWR","either","7","3865","","","32","","","","","","","","","","","","","","","","","","","","","","","","","","","","","","","","","","","","",""
"","bandit","39","861332","0.0-20.0-0.0","92439892","wem/bandit_party_1","A3UIDRGBV9NJWR","either","7","1162","","","","","","","1","0","0","1","0","","","","","0","1","","","1","0","","","","","","","","","","","","74","J","0","img/none_selected_demo.jpg","true","0","",""
"","text-replacement","40","867516","0.0-21.0","92439892","wem/bandit_party_1","A3UIDRGBV9NJWR","either","7","6181","","","32","","","","","","","","","","","","","","","","","","","","","","","","","","","","","","","","","","","","",""
"","text-replacement","41","871347","0.0-22.0","92439892","wem/bandit_party_1","A3UIDRGBV9NJWR","either","7","3830","","","32","","","","","","","","","","","","","","","","","","","","","","","","","","","","","","","","","","","","",""
"","text-replacement","42","873245","0.0-23.0","92439892","wem/bandit_party_1","A3UIDRGBV9NJWR","either","7","1894","","","32","","","","","","","","","","","","","","","","","","","","","","","","","","","","","","","","","","","","",""
"","text-replacement","43","875188","0.0-24.0","92439892","wem/bandit_party_1","A3UIDRGBV9NJWR","either","7","1940","","","32","","","","","","","","","","","","","","","","","","","","","","","","","","","","","","","","","","","","",""
"","text-replacement","44","878044","0.0-25.0","92439892","wem/bandit_party_1","A3UIDRGBV9NJWR","either","7","2854","","","32","","","","","","","","","","","","","","","","","","","","","","","","","","","","","","","","","","","","",""
"","text-replacement","45","880148","0.0-26.0","92439892","wem/bandit_party_1","A3UIDRGBV9NJWR","either","7","2102","","","32","","","","","","","","","","","","","","","","","","","","","","","","","","","","","","","","","","","","",""
"","text-replacement","46","882900","0.0-27.0","92439892","wem/bandit_party_1","A3UIDRGBV9NJWR","either","7","2749","","","32","","","","","","","","","","","","","","","","","","","","","","","","","","","","","","","","","","","","",""
"","text-replacement","47","886603","0.0-28.0","92439892","wem/bandit_party_1","A3UIDRGBV9NJWR","either","7","3700","","","32","","","","","","","","","","","","","","","","","","","","","","","","","","","","","","","","","","","","",""
"","text-replacement","48","890895","0.0-29.0","92439892","wem/bandit_party_1","A3UIDRGBV9NJWR","either","7","4290","","","32","","","","","","","","","","","","","","","","","","","","","","","","","","","","","","","","","","","","",""
"","text-replacement","49","892668","0.0-30.0","92439892","wem/bandit_party_1","A3UIDRGBV9NJWR","either","7","1769","","","32","","","","","","","","","","","","","","","","","","","","","","","","","","","","","","","","","","","","",""
"","text-replacement","50","893620","0.0-31.0","92439892","wem/bandit_party_1","A3UIDRGBV9NJWR","either","7","948","","","32","","","","","","","","","","","","","","","","","","","","","","","","","","","","","","","","","","","","",""
"","bandit","51","896235","0.0-32.0-0.0","92439892","wem/bandit_party_1","A3UIDRGBV9NJWR","either","7","1108","","","","","","","0","1","0","","0.8","0.5","0.5","0.5","0.5","0.8","0.2","0.6","0.2","","","","","","","","","","","","","","72","H","0","img/none_selected.jpg","true","0","full_practice",""
"","bandit","52","898218","0.0-32.0-1.0","92439892","wem/bandit_party_1","A3UIDRGBV9NJWR","either","7","477","","","","","","","0","0","1","0.8","","0.5","0.5","0.5","0.5","","","","","0.8","0.2","0.6","0.2","","","","","","","","","","72","H","0","img/none_selected.jpg","true","0","full_practice",""
"","bandit","53","899873","0.0-32.0-2.0","92439892","wem/bandit_party_1","A3UIDRGBV9NJWR","either","7","152","","","","","","","0","1","0","","0.8","0.5","0.5","0.5","0.5","0.8","0.2","0.6","0.2","","","","","","","","","","","","","","72","H","0","img/none_selected.jpg","true","0","full_practice",""
"","bandit","54","901612","0.0-32.0-3.0","92439892","wem/bandit_party_1","A3UIDRGBV9NJWR","either","7","229","","","","","","","0","0","1","0.8","","0.5","0.5","0.5","0.5","","","","","0.8","0.2","0.6","0.2","","","","","","","","","","72","H","0","img/none_selected.jpg","true","0","full_practice",""
"","bandit","55","903244","0.0-32.0-4.0","92439892","wem/bandit_party_1","A3UIDRGBV9NJWR","either","7","125","","","","","","","0","1","0","","0.8","0.5","0.5","0.5","0.5","0.8","0.2","0.6","0.2","","","","","","","","","","","","","","72","H","0","img/none_selected.jpg","true","0","full_practice",""
"","bandit","56","905011","0.0-32.0-5.0","92439892","wem/bandit_party_1","A3UIDRGBV9NJWR","either","7","260","","","","","","","0","1","0","","0.2","0.5","0.5","0.5","0.5","0.8","0.2","0.6","0.2","","","","","","","","","","","","","","74","J","1","","true","0","full_practice",""
"","bandit","57","906701","0.0-32.0-6.0","92439892","wem/bandit_party_1","A3UIDRGBV9NJWR","either","7","177","","","","","","","0","1","0","","0.2","0.5","0.5","0.5","0.5","0.8","0.2","0.6","0.2","","","","","","","","","","","","","","74","J","1","","true","0","full_practice",""
"","bandit","58","908477","0.0-32.0-7.0","92439892","wem/bandit_party_1","A3UIDRGBV9NJWR","either","7","263","","","","","","","0","0","1","0.2","","0.5","0.5","0.5","0.5","","","","","0.8","0.2","0.6","0.2","","","","","","","","","","74","J","1","","true","0","full_practice",""
"","bandit","59","910266","0.0-32.0-8.0","92439892","wem/bandit_party_1","A3UIDRGBV9NJWR","either","7","283","","","","","","","0","0","1","0.2","","0.5","0.5","0.5","0.5","","","","","0.8","0.2","0.6","0.2","","","","","","","","","","74","J","1","","true","0","full_practice",""
"","bandit","60","911830","0.0-32.0-9.0","92439892","wem/bandit_party_1","A3UIDRGBV9NJWR","either","7","56","","","","","","","0","0","1","0.2","","0.5","0.5","0.5","0.5","","","","","0.8","0.2","0.6","0.2","","","","","","","","","","74","J","1","","true","0","full_practice",""
"","bandit","61","913485","0.0-32.0-10.0","92439892","wem/bandit_party_1","A3UIDRGBV9NJWR","either","7","148","","","","","","","0","0","1","0.6","","0.5","0.5","0.5","0.5","","","","","0.8","0.2","0.6","0.2","","","","","","","","","","75","K","2","","true","0","full_practice",""
"","bandit","62","915236","0.0-32.0-11.0","92439892","wem/bandit_party_1","A3UIDRGBV9NJWR","either","7","244","","","","","","","1","0","0","0.6","","0.5","0.5","0.5","0.5","","","","","0.8","0.2","0.6","0.2","","","","","","","","","","75","K","2","","true","0","full_practice",""
"","bandit","63","917652","0.0-32.0-12.0","92439892","wem/bandit_party_1","A3UIDRGBV9NJWR","either","7","910","","","","","","","1","0","0","0.6","","0.5","0.5","0.5","0.5","","","","","0.8","0.2","0.6","0.2","","","","","","","","","","75","K","2","","true","0","full_practice",""
"","bandit","64","919483","0.0-32.0-13.0","92439892","wem/bandit_party_1","A3UIDRGBV9NJWR","either","7","323","","","","","","","0","0","1","","0.6","0.5","0.5","0.5","0.5","0.8","0.2","0.6","0.2","","","","","","","","","","","","","","75","K","2","","true","0","full_practice",""
"","bandit","65","921085","0.0-32.0-14.0","92439892","wem/bandit_party_1","A3UIDRGBV9NJWR","either","7","94","","","","","","","1","0","0","0.6","","0.5","0.5","0.5","0.5","","","","","0.8","0.2","0.6","0.2","","","","","","","","","","75","K","2","","true","0","full_practice",""
"","bandit","66","923005","0.0-32.0-15.0","92439892","wem/bandit_party_1","A3UIDRGBV9NJWR","either","7","411","","","","","","","0","0","1","","0.6","0.5","0.5","0.5","0.5","0.8","0.2","0.6","0.2","","","","","","","","","","","","","","75","K","2","","true","0","full_practice",""
"","bandit","67","924647","0.0-32.0-16.0","92439892","wem/bandit_party_1","A3UIDRGBV9NJWR","either","7","133","","","","","","","0","0","1","0.2","","0.5","0.5","0.5","0.5","","","","","0.8","0.2","0.6","0.2","","","","","","","","","","76","L","3","","true","0","full_practice",""
"","bandit","68","926346","0.0-32.0-17.0","92439892","wem/bandit_party_1","A3UIDRGBV9NJWR","either","7","188","","","","","","","0","0","1","","0.2","0.5","0.5","0.5","0.5","0.8","0.2","0.6","0.2","","","","","","","","","","","","","","76","L","3","","true","0","full_practice",""
"","bandit","69","928067","0.0-32.0-18.0","92439892","wem/bandit_party_1","A3UIDRGBV9NJWR","either","7","211","","","","","","","0","0","1","0.2","","0.5","0.5","0.5","0.5","","","","","0.8","0.2","0.6","0.2","","","","","","","","","","76","L","3","","true","0","full_practice",""
"","bandit","70","929692","0.0-32.0-19.0","92439892","wem/bandit_party_1","A3UIDRGBV9NJWR","either","7","117","","","","","","","0","0","1","0.2","","0.5","0.5","0.5","0.5","","","","","0.8","0.2","0.6","0.2","","","","","","","","","","76","L","3","","true","0","full_practice",""
"","text","71","932189","0.0-33.0","92439892","wem/bandit_party_1","A3UIDRGBV9NJWR","either","7","2488","","","32","","","","","","","","","","","","","","","","","","","","","","","","","","","","","","","","","","","","",""
"","text-replacement","72","942087","0.0-34.0","92439892","wem/bandit_party_1","A3UIDRGBV9NJWR","either","7","8890","","","32","","","","","","","","","","","","","","","","","","","","","","","","","","","","","","","","","","","","",""
"","text-replacement","73","951524","0.0-35.0","92439892","wem/bandit_party_1","A3UIDRGBV9NJWR","either","7","9434","","","32","","","","","","","","","","","","","","","","","","","","","","","","","","","","","","","","","","","","",""
"","text-replacement","74","954068","0.0-36.0","92439892","wem/bandit_party_1","A3UIDRGBV9NJWR","either","7","2542","","","32","","","","","","","","","","","","","","","","","","","","","","","","","","","","","","","","","","","","",""
"","text-replacement","75","959052","0.0-37.0","92439892","wem/bandit_party_1","A3UIDRGBV9NJWR","either","7","4982","","","32","","","","","","","","","","","","","","","","","","","","","","","","","","","","","","","","","","","","",""
"","text-replacement","76","962004","0.0-38.0","92439892","wem/bandit_party_1","A3UIDRGBV9NJWR","either","7","2949","","","32","","","","","","","","","","","","","","","","","","","","","","","","","","","","","","","","","","","","",""
"","survey-multi-choice-replacement","77","967389","0.0-39.0-0.0","92439892","wem/bandit_party_1","A3UIDRGBV9NJWR","either","7","5377","","","","","","","","","","","","","","","","","","","","","","","","Money will be added to the pool for <span style='color:blue;'>DEMOCRATS</span>","","","","","","","attn_check","","","","","","","","","0"
"","survey-multi-choice-replacement","78","974403","0.0-40.0-0.0","92439892","wem/bandit_party_1","A3UIDRGBV9NJWR","either","7","5994","","","","","","","","","","","","","","","","","","","","","","","","Equal amounts of money will be added to the pool for <span style='color:blue;'>DEMOCRATS</span> and subtracted from the pool for <span style='color:red;'>REPUBLICANS</span>","","","","","","","attn_check","","","","","","","","","2"
"","survey-multi-choice-replacement","79","977408","0.0-41.0-0.0","92439892","wem/bandit_party_1","A3UIDRGBV9NJWR","either","7","2000","","","","","","","","","","","","","","","","","","","","","","","","No money will be added to either pool","","","","","","","attn_check","","","","","","","","","3"
"","bandit","80","981578","0.0-42.0-0.0","92439892","wem/bandit_party_1","A3UIDRGBV9NJWR","either","7","1660","","","","","","","0","0","1","","0.1952616071","0.6","0.8","0.4","0.2","0.01738065524","0.06530018083","0.1480066451","0.1952616071","","","","","","","","","","","","","","76","L","3","","","1","main_expt",""
"","bandit","81","983331","0.0-43.0-0.0","92439892","wem/bandit_party_1","A3UIDRGBV9NJWR","either","7","246","","","","","","","0","0","1","","0.1652234336","0.6","0.8","0.4","0.2","0.0196943787","0.1011701763","0.1053714073","0.1652234336","","","","","","","","","","","","","","76","L","3","","","2","main_expt",""
"","bandit","82","984866","0.0-44.0-0.0","92439892","wem/bandit_party_1","A3UIDRGBV9NJWR","either","7","30","","","","","","","0","0","1","","0.1347382479","0.6","0.8","0.4","0.2","0.01678573497","0.09486719381","0.1460078221","0.1347382479","","","","","","","","","","","","","","76","L","3","","","3","main_expt",""
"","bandit","83","986460","0.0-45.0-0.0","92439892","wem/bandit_party_1","A3UIDRGBV9NJWR","either","7","89","","","","","","","0","0","1","0.1866138214","","0.6","0.8","0.4","0.2","","","","","0.02981965743","0.06705802814","0.1866138214","0.1684625442","","","","","","","","","","75","K","2","","","4","main_expt",""
"","bandit","84","988355","0.0-46.0-0.0","92439892","wem/bandit_party_1","A3UIDRGBV9NJWR","either","7","385","","","","","","","0","0","1","","0.2445348717","0.6","0.8","0.4","0.2","0.02600208211","0.0822298525","0.2445348717","0.1792029032","","","","","","","","","","","","","","75","K","2","","","5","main_expt",""
"","bandit","85","990085","0.0-47.0-0.0","92439892","wem/bandit_party_1","A3UIDRGBV9NJWR","either","7","220","","","","","","","0","0","1","0.09162209411","","0.6","0.8","0.4","0.2","","","","","0.02332436933","0.09162209411","0.2546962146","0.2153873139","","","","","","","","","","74","J","1","","","6","main_expt",""
"","bandit","86","992004","0.0-48.0-0.0","92439892","wem/bandit_party_1","A3UIDRGBV9NJWR","either","7","409","","","","","","","0","0","1","0.1028820098","","0.6","0.8","0.4","0.2","","","","","0.02864040813","0.1028820098","0.2344841702","0.1757762721","","","","","","","","","","74","J","1","","","7","main_expt",""
"","bandit","87","994172","0.0-49.0-0.0","92439892","wem/bandit_party_1","A3UIDRGBV9NJWR","either","7","659","","","","","","","0","0","1","0.1532270122","","0.6","0.8","0.4","0.2","","","","","0.02951264166","0.1532270122","0.2473344203","0.2241229746","","","","","","","","","","74","J","1","","","8","main_expt",""
"","bandit","88","995852","0.0-50.0-0.0","92439892","wem/bandit_party_1","A3UIDRGBV9NJWR","either","7","171","","","","","","","0","0","1","","0.02997011939","0.6","0.8","0.4","0.2","0.02997011939","0.2131450397","0.2642160399","0.2199426203","","","","","","","","","","","","","","72","H","0","img/none_selected.jpg","","9","main_expt",""
"","bandit","89","997688","0.0-51.0-0.0","92439892","wem/bandit_party_1","A3UIDRGBV9NJWR","either","7","314","","","","","","","0","0","1","","0.02489651457","0.6","0.8","0.4","0.2","0.02489651457","0.2985754635","0.2104627424","0.1520686932","","","","","","","","","","","","","","72","H","0","img/none_selected.jpg","","10","main_expt",""
"","bandit","90","999483","0.0-52.0-0.0","92439892","wem/bandit_party_1","A3UIDRGBV9NJWR","either","7","283","","","","","","","0","0","1","0.01651058827","","0.6","0.8","0.4","0.2","","","","","0.01651058827","0.2924640086","0.219372878","0.2013349999","","","","","","","","","","72","H","0","img/none_selected.jpg","","11","main_expt",""
"","bandit","91","1001498","0.0-53.0-0.0","92439892","wem/bandit_party_1","A3UIDRGBV9NJWR","either","7","509","","","","","","","0","0","1","","0.02341729431","0.6","0.8","0.4","0.2","0.02341729431","0.3264291113","0.2105839871","0.2156800105","","","","","","","","","","","","","","72","H","0","img/none_selected.jpg","","12","main_expt",""
"","bandit","92","1003252","0.0-54.0-0.0","92439892","wem/bandit_party_1","A3UIDRGBV9NJWR","either","7","244","","","","","","","0","0","1","0.3254913314","","0.6","0.8","0.4","0.2","","","","","0.0257410372","0.3254913314","0.2511698571","0.1833947696","","","","","","","","","","74","J","1","","","13","main_expt",""
"","bandit","93","1005026","0.0-55.0-0.0","92439892","wem/bandit_party_1","A3UIDRGBV9NJWR","either","7","268","","","","","","","0","0","1","0.2158977649","","0.6","0.8","0.4","0.2","","","","","0.02570014082","0.3428504842","0.2158977649","0.243643366","","","","","","","","","","75","K","2","","","14","main_expt",""
"","bandit","94","1006876","0.0-56.0-0.0","92439892","wem/bandit_party_1","A3UIDRGBV9NJWR","either","7","341","","","","","","","0","0","1","","0.2265365198","0.6","0.8","0.4","0.2","0.04268316416","0.3244047679","0.2762480727","0.2265365198","","","","","","","","","","","","","","76","L","3","","","15","main_expt",""
"","bandit","95","1008756","0.0-57.0-0.0","92439892","wem/bandit_party_1","A3UIDRGBV9NJWR","either","7","375","","","","","","","0","0","1","","0.04667408308","0.6","0.8","0.4","0.2","0.04667408308","0.3025313629","0.3202890724","0.2484951132","","","","","","","","","","","","","","72","H","0","img/none_selected.jpg","","16","main_expt",""
"","bandit","96","1011099","0.0-58.0-0.0","92439892","wem/bandit_party_1","A3UIDRGBV9NJWR","either","7","837","","","","","","","0","0","1","","0.0506688767","0.6","0.8","0.4","0.2","0.0506688767","0.3291216938","0.3680552247","0.2570267238","","","","","","","","","","","","","","72","H","0","img/none_selected.jpg","","17","main_expt",""
"","bandit","97","1012826","0.0-59.0-0.0","92439892","wem/bandit_party_1","A3UIDRGBV9NJWR","either","7","219","","","","","","","0","1","0","","0.287418789","0.6","0.8","0.4","0.2","0.02988526167","0.2987881532","0.3968593921","0.287418789","","","","","","","","","","","","","","76","L","3","","","18","main_expt",""
"","bandit","98","1014714","0.0-60.0-0.0","92439892","wem/bandit_party_1","A3UIDRGBV9NJWR","either","7","382","","","","","","","0","0","1","","0.2338710899","0.6","0.8","0.4","0.2","0.03476350355","0.281207523","0.4192996399","0.2338710899","","","","","","","","","","","","","","76","L","3","","","19","main_expt",""
"","bandit","99","1016667","0.0-61.0-0.0","92439892","wem/bandit_party_1","A3UIDRGBV9NJWR","either","7","447","","","","","","","0","0","1","","0.2335293464","0.6","0.8","0.4","0.2","0.0233687216","0.291129981","0.4362768361","0.2335293464","","","","","","","","","","","","","","76","L","3","","","20","main_expt",""
"","bandit","100","1018434","0.0-62.0-0.0","92439892","wem/bandit_party_1","A3UIDRGBV9NJWR","either","7","258","","","","","","","0","0","1","","0.4599691003","0.6","0.8","0.4","0.2","0.01272547494","0.2729578326","0.4599691003","0.2434826965","","","","","","","","","","","","","","75","K","2","","","21","main_expt",""
"","bandit","101","1020221","0.0-63.0-0.0","92439892","wem/bandit_party_1","A3UIDRGBV9NJWR","either","7","279","","","","","","","1","0","0","0.44353765","","0.6","0.8","0.4","0.2","","","","","0.01739491555","0.2805141014","0.44353765","0.2702300591","","","","","","","","","","75","K","2","","","22","main_expt",""
"","bandit","102","1022050","0.0-64.0-0.0","92439892","wem/bandit_party_1","A3UIDRGBV9NJWR","either","7","317","","","","","","","1","0","0","0.4105594395","","0.6","0.8","0.4","0.2","","","","","0.006692102231","0.3016389313","0.4105594395","0.2424740502","","","","","","","","","","75","K","2","","","23","main_expt",""
"","bandit","103","1023793","0.0-65.0-0.0","92439892","wem/bandit_party_1","A3UIDRGBV9NJWR","either","7","238","","","","","","","0","1","0","","0.4243351486","0.6","0.8","0.4","0.2","0.01209419849","0.2475621169","0.4243351486","0.1754503809","","","","","","","","","","","","","","75","K","2","","","24","main_expt",""
"","bandit","104","1025588","0.0-66.0-0.0","92439892","wem/bandit_party_1","A3UIDRGBV9NJWR","either","7","286","","","","","","","0","0","1","0.4172780312","","0.6","0.8","0.4","0.2","","","","","0.009734580702","0.2607476102","0.4172780312","0.2023019753","","","","","","","","","","75","K","2","","","25","main_expt",""
"","bandit","105","1027275","0.0-67.0-0.0","92439892","wem/bandit_party_1","A3UIDRGBV9NJWR","either","7","176","","","","","","","0","0","1","0.3981062588","","0.6","0.8","0.4","0.2","","","","","0.008596148908","0.292589008","0.3981062588","0.1887270612","","","","","","","","","","75","K","2","","","26","main_expt",""
"","bandit","106","1029050","0.0-68.0-0.0","92439892","wem/bandit_party_1","A3UIDRGBV9NJWR","either","7","269","","","","","","","1","0","0","0.3889188119","","0.6","0.8","0.4","0.2","","","","","0.01380650739","0.2978950393","0.3889188119","0.2526986378","","","","","","","","","","75","K","2","","","27","main_expt",""
"","bandit","107","1030805","0.0-69.0-0.0","92439892","wem/bandit_party_1","A3UIDRGBV9NJWR","either","7","248","","","","","","","0","0","1","","0.3699095679","0.6","0.8","0.4","0.2","0.01160852189","0.337392419","0.3699095679","0.2536033627","","","","","","","","","","","","","","75","K","2","","","28","main_expt",""
"","bandit","108","1032587","0.0-70.0-0.0","92439892","wem/bandit_party_1","A3UIDRGBV9NJWR","either","7","272","","","","","","","0","0","1","0.4087832773","","0.6","0.8","0.4","0.2","","","","","0.02858314752","0.3830759015","0.4087832773","0.258258936","","","","","","","","","","75","K","2","","","29","main_expt",""
"","bandit","109","1034226","0.0-71.0-0.0","92439892","wem/bandit_party_1","A3UIDRGBV9NJWR","either","7","134","","","","","","","0","0","1","0.3778881599","","0.6","0.8","0.4","0.2","","","","","0.0265596094","0.3778881599","0.4162513677","0.3152574144","","","","","","","","","","74","J","1","","","30","main_expt",""
"","bandit","110","1036086","0.0-72.0-0.0","92439892","wem/bandit_party_1","A3UIDRGBV9NJWR","either","7","349","","","","","","","0","0","1","0.02828816112","","0.6","0.8","0.4","0.2","","","","","0.02828816112","0.3585458117","0.43337534","0.3508579725","","","","","","","","","","72","H","0","img/none_selected.jpg","","31","main_expt",""
"","bandit","111","1037669","0.0-73.0-0.0","92439892","wem/bandit_party_1","A3UIDRGBV9NJWR","either","7","73","","","","","","","0","0","1","","0.3902021543","0.6","0.8","0.4","0.2","0.03857304495","0.3511664436","0.4399105216","0.3902021543","","","","","","","","","","","","","","76","L","3","","","32","main_expt",""
"","bandit","112","1039394","0.0-74.0-0.0","92439892","wem/bandit_party_1","A3UIDRGBV9NJWR","either","7","219","","","","","","","0","0","1","","0.3859623535","0.6","0.8","0.4","0.2","0.02642959278","0.3924960189","0.3859623535","0.4112626521","","","","","","","","","","","","","","75","K","2","","","33","main_expt",""
"","bandit","113","1041358","0.0-75.0-0.0","92439892","wem/bandit_party_1","A3UIDRGBV9NJWR","either","7","457","","","","","","","0","1","0","","0.4231921331","0.6","0.8","0.4","0.2","0.06800028167","0.3713907517","0.4231921331","0.3912589523","","","","","","","","","","","","","","75","K","2","","","34","main_expt",""
"","bandit","114","1043146","0.0-76.0-0.0","92439892","wem/bandit_party_1","A3UIDRGBV9NJWR","either","7","280","","","","","","","0","1","0","","0.3950458867","0.6","0.8","0.4","0.2","0.05710280771","0.3929004689","0.3950458867","0.3663646496","","","","","","","","","","","","","","75","K","2","","","35","main_expt",""
"","bandit","115","1046507","0.0-77.0-0.0","92439892","wem/bandit_party_1","A3UIDRGBV9NJWR","either","7","1855","","","","","","","0","0","1","","0.4005306787","0.6","0.8","0.4","0.2","0.07756943076","0.3820467604","0.4005306787","0.3045225128","","","","","","","","","","","","","","75","K","2","","","36","main_expt",""
"","bandit","116","1048562","0.0-78.0-0.0","92439892","wem/bandit_party_1","A3UIDRGBV9NJWR","either","7","549","","","","","","","0","0","1","","0.3972735937","0.6","0.8","0.4","0.2","0.06074629621","0.3948022939","0.3972735937","0.2806474599","","","","","","","","","","","","","","75","K","2","","","37","main_expt",""
"","bandit","117","1050434","0.0-79.0-0.0","92439892","wem/bandit_party_1","A3UIDRGBV9NJWR","either","7","367","","","","","","","0","0","1","0.3769579019","","0.6","0.8","0.4","0.2","","","","","0.07063042774","0.3769579019","0.38339591","0.3558759705","","","","","","","","","","74","J","1","","","38","main_expt",""
"","bandit","118","1052134","0.0-80.0-0.0","92439892","wem/bandit_party_1","A3UIDRGBV9NJWR","either","7","192","","","","","","","1","0","0","0.3194138052","","0.6","0.8","0.4","0.2","","","","","0.06209293178","0.4030344636","0.3906354184","0.3194138052","","","","","","","","","","76","L","3","","","39","main_expt",""
"","bandit","119","1054268","0.0-81.0-0.0","92439892","wem/bandit_party_1","A3UIDRGBV9NJWR","either","7","627","","","","","","","0","1","0","","0.3549086085","0.6","0.8","0.4","0.2","0.06952578958","0.3622335218","0.3623676206","0.3549086085","","","","","","","","","","","","","","76","L","3","","","40","main_expt",""
"","bandit","120","1056106","0.0-82.0-0.0","92439892","wem/bandit_party_1","A3UIDRGBV9NJWR","either","7","328","","","","","","","0","1","0","","0.3452113815","0.6","0.8","0.4","0.2","0.1291245709","0.3911596719","0.3873704927","0.3452113815","","","","","","","","","","","","","","76","L","3","","","41","main_expt",""
"","bandit","121","1057940","0.0-83.0-0.0","92439892","wem/bandit_party_1","A3UIDRGBV9NJWR","either","7","325","","","","","","","1","0","0","0.3522960267","","0.6","0.8","0.4","0.2","","","","","0.1174523948","0.3921858285","0.359823116","0.3522960267","","","","","","","","","","76","L","3","","","42","main_expt",""
"","bandit","122","1059723","0.0-84.0-0.0","92439892","wem/bandit_party_1","A3UIDRGBV9NJWR","either","7","276","","","","","","","0","0","1","0.3093122096","","0.6","0.8","0.4","0.2","","","","","0.1201484523","0.3831213528","0.3710191411","0.3093122096","","","","","","","","","","76","L","3","","","43","main_expt",""
"","bandit","123","1061234","0.0-85.0-0.0","92439892","wem/bandit_party_1","A3UIDRGBV9NJWR","either","7","5","","","","","","","0","0","1","","0.3026159556","0.6","0.8","0.4","0.2","0.09958360536","0.3518708159","0.3874065465","0.3026159556","","","","","","","","","","","","","","76","L","3","","","44","main_expt",""
"","bandit","124","1064178","0.0-86.0-0.0","92439892","wem/bandit_party_1","A3UIDRGBV9NJWR","either","7","1438","","","","","","","0","0","1","0.3336294247","","0.6","0.8","0.4","0.2","","","","","0.05173655998","0.3122870636","0.3851533971","0.3336294247","","","","","","","","","","76","L","3","","","45","main_expt",""
"","bandit","125","1066211","0.0-87.0-0.0","92439892","wem/bandit_party_1","A3UIDRGBV9NJWR","either","7","526","","","","","","","0","0","1","0.05945041096","","0.6","0.8","0.4","0.2","","","","","0.05945041096","0.2635721956","0.4055883719","0.3400222736","","","","","","","","","","72","H","0","img/none_selected.jpg","","46","main_expt",""
"","bandit","126","1067973","0.0-88.0-0.0","92439892","wem/bandit_party_1","A3UIDRGBV9NJWR","either","7","251","","","","","","","0","0","1","0.2856785865","","0.6","0.8","0.4","0.2","","","","","0.04375763727","0.2856785865","0.3671593179","0.328707825","","","","","","","","","","74","J","1","","","47","main_expt",""
"","bandit","127","1069754","0.0-89.0-0.0","92439892","wem/bandit_party_1","A3UIDRGBV9NJWR","either","7","268","","","","","","","0","0","1","","0.3198203038","0.6","0.8","0.4","0.2","0.0666370861","0.2649087478","0.3198203038","0.3307690822","","","","","","","","","","","","","","75","K","2","","","48","main_expt",""
"","bandit","128","1071505","0.0-90.0-0.0","92439892","wem/bandit_party_1","A3UIDRGBV9NJWR","either","7","247","","","","","","","0","1","0","","0.3438067684","0.6","0.8","0.4","0.2","0.08266213623","0.2462979357","0.3111357295","0.3438067684","","","","","","","","","","","","","","76","L","3","","","49","main_expt",""
"","bandit","129","1073475","0.0-91.0-0.0","92439892","wem/bandit_party_1","A3UIDRGBV9NJWR","either","7","462","","","","","","","0","0","1","","0.4037002216","0.6","0.8","0.4","0.2","0.08795051988","0.2490076798","0.3196682981","0.4037002216","","","","","","","","","","","","","","76","L","3","","","50","main_expt",""
"","bandit","130","1075423","0.0-92.0-0.0","92439892","wem/bandit_party_1","A3UIDRGBV9NJWR","either","7","438","","","","","","","0","0","1","0.3557518394","","0.6","0.8","0.4","0.2","","","","","0.07533366945","0.305209751","0.3088596379","0.3557518394","","","","","","","","","","76","L","3","","","51","main_expt",""
"","bandit","131","1077835","0.0-93.0-0.0","92439892","wem/bandit_party_1","A3UIDRGBV9NJWR","either","7","905","","","","","","","0","0","1","","0.06506638851","0.6","0.8","0.4","0.2","0.06506638851","0.3087204988","0.3060924957","0.3254324358","","","","","","","","","","","","","","72","H","0","img/none_selected.jpg","","52","main_expt",""
"","bandit","132","1079921","0.0-94.0-0.0","92439892","wem/bandit_party_1","A3UIDRGBV9NJWR","either","7","578","","","","","","","0","0","1","0.06562792832","","0.6","0.8","0.4","0.2","","","","","0.06562792832","0.2984188648","0.3229319808","0.2952150256","","","","","","","","","","72","H","0","img/none_selected.jpg","","53","main_expt",""
"","bandit","133","1081596","0.0-95.0-0.0","92439892","wem/bandit_party_1","A3UIDRGBV9NJWR","either","7","167","","","","","","","1","0","0","0.3353917468","","0.6","0.8","0.4","0.2","","","","","0.04630081711","0.3353917468","0.3280138586","0.300320608","","","","","","","","","","74","J","1","","","54","main_expt",""
"","bandit","134","1083355","0.0-96.0-0.0","92439892","wem/bandit_party_1","A3UIDRGBV9NJWR","either","7","249","","","","","","","0","0","1","0.3259144651","","0.6","0.8","0.4","0.2","","","","","0.03868373719","0.3259144651","0.2777260571","0.2985084879","","","","","","","","","","74","J","1","","","55","main_expt",""
"","bandit","135","1086312","0.0-97.0-0.0","92439892","wem/bandit_party_1","A3UIDRGBV9NJWR","either","7","1443","","","","","","","0","0","1","0.3259049121","","0.6","0.8","0.4","0.2","","","","","0.06235362297","0.3259049121","0.1791004868","0.2607009345","","","","","","","","","","74","J","1","","","56","main_expt",""
"","bandit","136","1088091","0.0-98.0-0.0","92439892","wem/bandit_party_1","A3UIDRGBV9NJWR","either","7","269","","","","","","","1","0","0","0.3687904078","","0.6","0.8","0.4","0.2","","","","","0.04639461243","0.3687904078","0.2182265394","0.2565854794","","","","","","","","","","74","J","1","","","57","main_expt",""
"","bandit","137","1090223","0.0-99.0-0.0","92439892","wem/bandit_party_1","A3UIDRGBV9NJWR","either","7","623","","","","","","","1","0","0","0.3422038875","","0.6","0.8","0.4","0.2","","","","","0.08954448139","0.3422038875","0.2970860181","0.319121847","","","","","","","","","","74","J","1","","","58","main_expt",""
"","bandit","138","1092434","0.0-100.0-0.0","92439892","wem/bandit_party_1","A3UIDRGBV9NJWR","either","7","699","","","","","","","1","0","0","0.3771421139","","0.6","0.8","0.4","0.2","","","","","0.07390342289","0.3771421139","0.3249685468","0.3269923399","","","","","","","","","","74","J","1","","","59","main_expt",""
"","bandit","139","1095357","0.0-101.0-0.0","92439892","wem/bandit_party_1","A3UIDRGBV9NJWR","either","7","1413","","","","","","","0","0","1","0.3620124399","","0.6","0.8","0.4","0.2","","","","","0.05801548519","0.3620124399","0.2931470039","0.3150968823","","","","","","","","","","74","J","1","","","60","main_expt",""
"","bandit","140","1098067","0.0-102.0-0.0","92439892","wem/bandit_party_1","A3UIDRGBV9NJWR","either","7","1197","","","","","","","0","0","1","0.3958116198","","0.6","0.8","0.4","0.2","","","","","0.07333263924","0.3958116198","0.2646536279","0.324539239","","","","","","","","","","74","J","1","","","61","main_expt",""
"","bandit","141","1100218","0.0-103.0-0.0","92439892","wem/bandit_party_1","A3UIDRGBV9NJWR","either","7","642","","","","","","","0","0","1","","0.3615218546","0.6","0.8","0.4","0.2","0.07563430262","0.3615218546","0.242461968","0.3066306166","","","","","","","","","","","","","","74","J","1","","","62","main_expt",""
"","bandit","142","1102874","0.0-104.0-0.0","92439892","wem/bandit_party_1","A3UIDRGBV9NJWR","either","7","1148","","","","","","","0","1","0","","0.3574266064","0.6","0.8","0.4","0.2","0.06826526778","0.3574266064","0.2206683029","0.3068900116","","","","","","","","","","","","","","74","J","1","","","63","main_expt",""
"","bandit","143","1104643","0.0-105.0-0.0","92439892","wem/bandit_party_1","A3UIDRGBV9NJWR","either","7","262","","","","","","","0","0","1","0.2288959862","","0.6","0.8","0.4","0.2","","","","","0.1175271989","0.3541915859","0.2288959862","0.2936494982","","","","","","","","","","75","K","2","","","64","main_expt",""
"","bandit","144","1106707","0.0-106.0-0.0","92439892","wem/bandit_party_1","A3UIDRGBV9NJWR","either","7","554","","","","","","","0","1","0","","0.290236101","0.6","0.8","0.4","0.2","0.1273865191","0.3339820985","0.2346523549","0.290236101","","","","","","","","","","","","","","76","L","3","","","65","main_expt",""
"","bandit","145","1108892","0.0-107.0-0.0","92439892","wem/bandit_party_1","A3UIDRGBV9NJWR","either","7","675","","","","","","","0","0","1","","0.2512036594","0.6","0.8","0.4","0.2","0.09075088943","0.3195467083","0.1881688105","0.2512036594","","","","","","","","","","","","","","76","L","3","","","66","main_expt",""
"","bandit","146","1110669","0.0-108.0-0.0","92439892","wem/bandit_party_1","A3UIDRGBV9NJWR","either","7","263","","","","","","","0","0","1","","0.263747572","0.6","0.8","0.4","0.2","0.08077075725","0.3477383846","0.231043846","0.263747572","","","","","","","","","","","","","","76","L","3","","","67","main_expt",""
"","bandit","147","1113146","0.0-109.0-0.0","92439892","wem/bandit_party_1","A3UIDRGBV9NJWR","either","7","967","","","","","","","0","0","1","","0.2892519303","0.6","0.8","0.4","0.2","0.08810311296","0.3365352069","0.2576664243","0.2892519303","","","","","","","","","","","","","","76","L","3","","","68","main_expt",""
"","bandit","148","1116140","0.0-110.0-0.0","92439892","wem/bandit_party_1","A3UIDRGBV9NJWR","either","7","1485","","","","","","","0","0","1","","0.2383664846","0.6","0.8","0.4","0.2","0.1260156682","0.3148812039","0.2183283259","0.2383664846","","","","","","","","","","","","","","76","L","3","","","69","main_expt",""
"","bandit","149","1117931","0.0-111.0-0.0","92439892","wem/bandit_party_1","A3UIDRGBV9NJWR","either","7","280","","","","","","","0","0","1","","0.2260484764","0.6","0.8","0.4","0.2","0.08773951932","0.3154014692","0.2260484764","0.2497111545","","","","","","","","","","","","","","75","K","2","","","70","main_expt",""
"","bandit","150","1119771","0.0-112.0-0.0","92439892","wem/bandit_party_1","A3UIDRGBV9NJWR","either","7","334","","","","","","","0","1","0","","0.3196469567","0.6","0.8","0.4","0.2","0.1154304285","0.219815459","0.3196469567","0.2095843002","","","","","","","","","","","","","","75","K","2","","","71","main_expt",""
"","bandit","151","1121962","0.0-113.0-0.0","92439892","wem/bandit_party_1","A3UIDRGBV9NJWR","either","7","684","","","","","","","0","0","1","","0.3644141189","0.6","0.8","0.4","0.2","0.10097247","0.2623730272","0.3644141189","0.1972488467","","","","","","","","","","","","","","75","K","2","","","72","main_expt",""
"","bandit","152","1123779","0.0-114.0-0.0","92439892","wem/bandit_party_1","A3UIDRGBV9NJWR","either","7","309","","","","","","","0","1","0","","0.4081842109","0.6","0.8","0.4","0.2","0.0746930591","0.2639805735","0.4081842109","0.15494396","","","","","","","","","","","","","","75","K","2","","","73","main_expt",""
"","bandit","153","1125763","0.0-115.0-0.0","92439892","wem/bandit_party_1","A3UIDRGBV9NJWR","either","7","468","","","","","","","0","0","1","","0.4506698749","0.6","0.8","0.4","0.2","0.1124392477","0.2770925356","0.4506698749","0.1324790415","","","","","","","","","","","","","","75","K","2","","","74","main_expt",""
"","bandit","154","1127451","0.0-116.0-0.0","92439892","wem/bandit_party_1","A3UIDRGBV9NJWR","either","7","178","","","","","","","0","0","1","0.2796652475","","0.6","0.8","0.4","0.2","","","","","0.113494578","0.2796652475","0.454520075","0.179195356","","","","","","","","","","74","J","1","","","75","main_expt",""
"","bandit","155","1129154","0.0-117.0-0.0","92439892","wem/bandit_party_1","A3UIDRGBV9NJWR","either","7","195","","","","","","","0","0","1","","0.1469344428","0.6","0.8","0.4","0.2","0.1469344428","0.3153427244","0.466199952","0.215808919","","","","","","","","","","","","","","72","H","0","img/none_selected.jpg","","76","main_expt",""
"","bandit","156","1130943","0.0-118.0-0.0","92439892","wem/bandit_party_1","A3UIDRGBV9NJWR","either","7","274","","","","","","","0","0","1","","0.2312347408","0.6","0.8","0.4","0.2","0.2152215887","0.3676911864","0.4402141775","0.2312347408","","","","","","","","","","","","","","76","L","3","","","77","main_expt",""
"","bandit","157","1132867","0.0-119.0-0.0","92439892","wem/bandit_party_1","A3UIDRGBV9NJWR","either","7","416","","","","","","","0","0","1","0.2055177618","","0.6","0.8","0.4","0.2","","","","","0.2055177618","0.3434277392","0.4525957793","0.2197025874","","","","","","","","","","72","H","0","img/none_selected.jpg","","78","main_expt",""
"","bandit","158","1134626","0.0-120.0-0.0","92439892","wem/bandit_party_1","A3UIDRGBV9NJWR","either","7","254","","","","","","","0","0","1","","0.3758616161","0.6","0.8","0.4","0.2","0.222262525","0.3758616161","0.4630799716","0.2227420924","","","","","","","","","","","","","","74","J","1","","","79","main_expt",""
"","bandit","159","1136348","0.0-121.0-0.0","92439892","wem/bandit_party_1","A3UIDRGBV9NJWR","either","7","211","","","","","","","0","0","1","0.423693353","","0.6","0.8","0.4","0.2","","","","","0.2700860438","0.3862393514","0.423693353","0.2283057493","","","","","","","","","","75","K","2","","","80","main_expt",""
"","bandit","160","1138195","0.0-122.0-0.0","92439892","wem/bandit_party_1","A3UIDRGBV9NJWR","either","7","331","","","","","","","0","0","1","0.2721525977","","0.6","0.8","0.4","0.2","","","","","0.2642688004","0.3593770893","0.4319112677","0.2721525977","","","","","","","","","","76","L","3","","","81","main_expt",""
"","bandit","161","1140101","0.0-123.0-0.0","92439892","wem/bandit_party_1","A3UIDRGBV9NJWR","either","7","389","","","","","","","0","1","0","","0.441827487","0.6","0.8","0.4","0.2","0.2824164754","0.4035110645","0.441827487","0.2850237184","","","","","","","","","","","","","","75","K","2","","","82","main_expt",""
"","bandit","162","1141828","0.0-124.0-0.0","92439892","wem/bandit_party_1","A3UIDRGBV9NJWR","either","7","216","","","","","","","0","0","1","","0.4288861504","0.6","0.8","0.4","0.2","0.2819095575","0.3719627038","0.4288861504","0.3236436683","","","","","","","","","","","","","","75","K","2","","","83","main_expt",""
"","bandit","163","1143394","0.0-125.0-0.0","92439892","wem/bandit_party_1","A3UIDRGBV9NJWR","either","7","58","","","","","","","0","1","0","","0.4350385517","0.6","0.8","0.4","0.2","0.2589745902","0.3349288927","0.4350385517","0.3339638593","","","","","","","","","","","","","","75","K","2","","","84","main_expt",""
"","bandit","164","1145260","0.0-126.0-0.0","92439892","wem/bandit_party_1","A3UIDRGBV9NJWR","either","7","356","","","","","","","0","0","1","0.4255505645","","0.6","0.8","0.4","0.2","","","","","0.3626504113","0.3247899262","0.4255505645","0.3795022601","","","","","","","","","","75","K","2","","","85","main_expt",""
"","bandit","165","1146914","0.0-127.0-0.0","92439892","wem/bandit_party_1","A3UIDRGBV9NJWR","either","7","147","","","","","","","1","0","0","0.4330938692","","0.6","0.8","0.4","0.2","","","","","0.3598915268","0.3443557019","0.4330938692","0.3835523064","","","","","","","","","","75","K","2","","","86","main_expt",""
"","bandit","166","1148754","0.0-128.0-0.0","92439892","wem/bandit_party_1","A3UIDRGBV9NJWR","either","7","334","","","","","","","0","0","1","","0.4548398529","0.6","0.8","0.4","0.2","0.3433052933","0.3648776167","0.4548398529","0.3772514457","","","","","","","","","","","","","","75","K","2","","","87","main_expt",""
"","bandit","167","1150572","0.0-129.0-0.0","92439892","wem/bandit_party_1","A3UIDRGBV9NJWR","either","7","304","","","","","","","0","0","1","","0.4493124031","0.6","0.8","0.4","0.2","0.4022938878","0.3609631839","0.4493124031","0.3766830519","","","","","","","","","","","","","","75","K","2","","","88","main_expt",""
"","bandit","168","1152350","0.0-130.0-0.0","92439892","wem/bandit_party_1","A3UIDRGBV9NJWR","either","7","261","","","","","","","0","0","1","0.3636167192","","0.6","0.8","0.4","0.2","","","","","0.4141493151","0.3636167192","0.4161110063","0.3537755119","","","","","","","","","","74","J","1","","","89","main_expt",""
"","bandit","169","1153874","0.0-131.0-0.0","92439892","wem/bandit_party_1","A3UIDRGBV9NJWR","either","7","17","","","","","","","0","0","1","0.3563441379","","0.6","0.8","0.4","0.2","","","","","0.4136124289","0.3563441379","0.405260856","0.3014761449","","","","","","","","","","74","J","1","","","90","main_expt",""
"","bandit","170","1155573","0.0-132.0-0.0","92439892","wem/bandit_party_1","A3UIDRGBV9NJWR","either","7","191","","","","","","","0","0","1","0.4184852842","","0.6","0.8","0.4","0.2","","","","","0.4184852842","0.3389138503","0.3827048226","0.2694038268","","","","","","","","","","72","H","0","img/none_selected.jpg","","91","main_expt",""
"","bandit","171","1157491","0.0-133.0-0.0","92439892","wem/bandit_party_1","A3UIDRGBV9NJWR","either","7","405","","","","","","","1","0","0","0.4456808576","","0.6","0.8","0.4","0.2","","","","","0.4456808576","0.3263360165","0.3552182969","0.2651536323","","","","","","","","","","72","H","0","img/none_selected.jpg","","92","main_expt",""
"","bandit","172","1159332","0.0-134.0-0.0","92439892","wem/bandit_party_1","A3UIDRGBV9NJWR","either","7","321","","","","","","","0","0","1","","0.4355219805","0.6","0.8","0.4","0.2","0.4355219805","0.2844131911","0.3286897504","0.1997208586","","","","","","","","","","","","","","72","H","0","img/none_selected.jpg","","93","main_expt",""
"","bandit","173","1161180","0.0-135.0-0.0","92439892","wem/bandit_party_1","A3UIDRGBV9NJWR","either","7","339","","","","","","","1","0","0","0.4609821192","","0.6","0.8","0.4","0.2","","","","","0.4609821192","0.2978465223","0.3422490236","0.2442555344","","","","","","","","","","72","H","0","img/none_selected.jpg","","94","main_expt",""
"","bandit","174","1163263","0.0-136.0-0.0","92439892","wem/bandit_party_1","A3UIDRGBV9NJWR","either","7","572","","","","","","","0","1","0","","0.4419374505","0.6","0.8","0.4","0.2","0.4419374505","0.2638723705","0.3160161054","0.2638839348","","","","","","","","","","","","","","72","H","0","img/none_selected.jpg","","95","main_expt",""
"","bandit","175","1164996","0.0-137.0-0.0","92439892","wem/bandit_party_1","A3UIDRGBV9NJWR","either","7","219","","","","","","","0","0","1","","0.39438674","0.6","0.8","0.4","0.2","0.39438674","0.2276010735","0.2945538732","0.2265245807","","","","","","","","","","","","","","72","H","0","img/none_selected.jpg","","96","main_expt",""
"","bandit","176","1167362","0.0-138.0-0.0","92439892","wem/bandit_party_1","A3UIDRGBV9NJWR","either","7","858","","","","","","","0","1","0","","0.3617668419","0.6","0.8","0.4","0.2","0.3617668419","0.2045446072","0.393563827","0.1969189177","","","","","","","","","","","","","","72","H","0","img/none_selected.jpg","","97","main_expt",""
"","bandit","177","1169322","0.0-139.0-0.0","92439892","wem/bandit_party_1","A3UIDRGBV9NJWR","either","7","453","","","","","","","1","0","0","0.3737913853","","0.6","0.8","0.4","0.2","","","","","0.3737913853","0.2436418828","0.4046254927","0.1761144245","","","","","","","","","","72","H","0","img/none_selected.jpg","","98","main_expt",""
"","bandit","178","1171307","0.0-140.0-0.0","92439892","wem/bandit_party_1","A3UIDRGBV9NJWR","either","7","479","","","","","","","0","0","1","0.4221129479","","0.6","0.8","0.4","0.2","","","","","0.4221129479","0.2473144087","0.3659012549","0.1211630765","","","","","","","","","","72","H","0","img/none_selected.jpg","","99","main_expt",""
"","bandit","179","1173412","0.0-141.0-0.0","92439892","wem/bandit_party_1","A3UIDRGBV9NJWR","either","7","596","","","","","","","0","0","1","","0.3857893684","0.6","0.8","0.4","0.2","0.3857893684","0.2707360286","0.400368336","0.1257326749","","","","","","","","","","","","","","72","H","0","img/none_selected.jpg","","100","main_expt",""
"","bandit","180","1175026","0.0-142.0-0.0","92439892","wem/bandit_party_1","A3UIDRGBV9NJWR","either","7","103","","","","","","","0","0","1","","0.09975532208","0.6","0.8","0.4","0.2","0.3635527264","0.3250409822","0.4367931528","0.09975532208","","","","","","","","","","","","","","76","L","3","","","101","main_expt",""
"","bandit","181","1176780","0.0-143.0-0.0","92439892","wem/bandit_party_1","A3UIDRGBV9NJWR","either","7","246","","","","","","","0","1","0","","0.4371155326","0.6","0.8","0.4","0.2","0.3738375489","0.3088580598","0.4371155326","0.1127414424","","","","","","","","","","","","","","75","K","2","","","102","main_expt",""
"","bandit","182","1178732","0.0-144.0-0.0","92439892","wem/bandit_party_1","A3UIDRGBV9NJWR","either","7","435","","","","","","","0","1","0","","0.388648264","0.6","0.8","0.4","0.2","0.3860163181","0.2901001995","0.388648264","0.1232600734","","","","","","","","","","","","","","75","K","2","","","103","main_expt",""
"","bandit","183","1182002","0.0-145.0-0.0","92439892","wem/bandit_party_1","A3UIDRGBV9NJWR","either","7","1755","","","","","","","1","0","0","0.3718469433","","0.6","0.8","0.4","0.2","","","","","0.390692362","0.309645936","0.3718469433","0.08156843846","","","","","","","","","","75","K","2","","","104","main_expt",""
"","bandit","184","1183995","0.0-146.0-0.0","92439892","wem/bandit_party_1","A3UIDRGBV9NJWR","either","7","480","","","","","","","0","0","1","","0.3920304628","0.6","0.8","0.4","0.2","0.4139082553","0.3386062745","0.3920304628","0.08245659199","","","","","","","","","","","","","","75","K","2","","","105","main_expt",""
"","bandit","185","1185810","0.0-147.0-0.0","92439892","wem/bandit_party_1","A3UIDRGBV9NJWR","either","7","306","","","","","","","0","0","1","0.3733497125","","0.6","0.8","0.4","0.2","","","","","0.3295275825","0.3827539061","0.3733497125","0.1276639339","","","","","","","","","","75","K","2","","","106","main_expt",""
"","bandit","186","1187604","0.0-148.0-0.0","92439892","wem/bandit_party_1","A3UIDRGBV9NJWR","either","7","281","","","","","","","0","0","1","0.3878439861","","0.6","0.8","0.4","0.2","","","","","0.3499712774","0.3401355396","0.3878439861","0.1812689745","","","","","","","","","","75","K","2","","","107","main_expt",""
"","bandit","187","1189307","0.0-149.0-0.0","92439892","wem/bandit_party_1","A3UIDRGBV9NJWR","either","7","195","","","","","","","0","0","1","0.3258039352","","0.6","0.8","0.4","0.2","","","","","0.2666891207","0.3258039352","0.3529013302","0.2187982558","","","","","","","","","","74","J","1","","","108","main_expt",""
"","bandit","188","1197160","0.0-150.0-0.0","92439892","wem/bandit_party_1","A3UIDRGBV9NJWR","either","7","6341","","","","","","","1","0","0","0.374919859","","0.6","0.8","0.4","0.2","","","","","0.2575067634","0.374919859","0.3457683734","0.2201216928","","","","","","","","","","74","J","1","","","109","main_expt",""
"","bandit","189","1198987","0.0-151.0-0.0","92439892","wem/bandit_party_1","A3UIDRGBV9NJWR","either","7","311","","","","","","","0","0","1","0.3656186065","","0.6","0.8","0.4","0.2","","","","","0.2664913793","0.3656186065","0.3316873257","0.1789817232","","","","","","","","","","74","J","1","","","110","main_expt",""
"","bandit","190","1200586","0.0-152.0-0.0","92439892","wem/bandit_party_1","A3UIDRGBV9NJWR","either","7","91","","","","","","","0","0","1","0.3649701027","","0.6","0.8","0.4","0.2","","","","","0.2233446911","0.3649701027","0.3434945318","0.2404947452","","","","","","","","","","74","J","1","","","111","main_expt",""
"","bandit","191","1202482","0.0-153.0-0.0","92439892","wem/bandit_party_1","A3UIDRGBV9NJWR","either","7","388","","","","","","","0","0","1","0.3371716456","","0.6","0.8","0.4","0.2","","","","","0.2170082082","0.3371716456","0.2729480053","0.2959558532","","","","","","","","","","74","J","1","","","112","main_expt",""
"","bandit","192","1203996","0.0-154.0-0.0","92439892","wem/bandit_party_1","A3UIDRGBV9NJWR","either","7","2","","","","","","","0","0","1","0.1912277411","","0.6","0.8","0.4","0.2","","","","","0.1912277411","0.2587224119","0.2579672073","0.2966985553","","","","","","","","","","72","H","0","img/none_selected.jpg","","113","main_expt",""
"","bandit","193","1205670","0.0-155.0-0.0","92439892","wem/bandit_party_1","A3UIDRGBV9NJWR","either","7","153","","","","","","","0","1","0","","0.3289730608","0.6","0.8","0.4","0.2","0.1691995451","0.2384324947","0.24654084","0.3289730608","","","","","","","","","","","","","","76","L","3","","","114","main_expt",""
"","bandit","194","1207508","0.0-156.0-0.0","92439892","wem/bandit_party_1","A3UIDRGBV9NJWR","either","7","314","","","","","","","0","0","1","","0.2783705844","0.6","0.8","0.4","0.2","0.1263730162","0.2705755989","0.246649757","0.2783705844","","","","","","","","","","","","","","76","L","3","","","115","main_expt",""
"","bandit","195","1209034","0.0-157.0-0.0","92439892","wem/bandit_party_1","A3UIDRGBV9NJWR","either","7","19","","","","","","","0","0","1","","0.2990421824","0.6","0.8","0.4","0.2","0.1130092975","0.2666822","0.2190482835","0.2990421824","","","","","","","","","","","","","","76","L","3","","","116","main_expt",""
"","bandit","196","1210914","0.0-158.0-0.0","92439892","wem/bandit_party_1","A3UIDRGBV9NJWR","either","7","373","","","","","","","0","0","1","0.3214730448","","0.6","0.8","0.4","0.2","","","","","0.1317362661","0.2664749026","0.1860086181","0.3214730448","","","","","","","","","","76","L","3","","","117","main_expt",""
"","bandit","197","1212554","0.0-159.0-0.0","92439892","wem/bandit_party_1","A3UIDRGBV9NJWR","either","7","129","","","","","","","0","0","1","0.1765749983","","0.6","0.8","0.4","0.2","","","","","0.08460291254","0.285497096","0.1765749983","0.3996160597","","","","","","","","","","75","K","2","","","118","main_expt",""
"","bandit","198","1214114","0.0-160.0-0.0","92439892","wem/bandit_party_1","A3UIDRGBV9NJWR","either","7","50","","","","","","","0","0","1","0.3004427434","","0.6","0.8","0.4","0.2","","","","","0.09168363065","0.3004427434","0.1840588368","0.4143362638","","","","","","","","","","74","J","1","","","119","main_expt",""
"","bandit","199","1215834","0.0-161.0-0.0","92439892","wem/bandit_party_1","A3UIDRGBV9NJWR","either","7","214","","","","","","","0","0","1","0.06729372802","","0.6","0.8","0.4","0.2","","","","","0.06729372802","0.2419855731","0.1988357929","0.372340151","","","","","","","","","","72","H","0","img/none_selected.jpg","","120","main_expt",""
"","bandit","200","1217717","0.0-162.0-0.0","92439892","wem/bandit_party_1","A3UIDRGBV9NJWR","either","7","373","","","","","","","0","0","1","","0.08346408207","0.6","0.8","0.4","0.2","0.08346408207","0.3054132847","0.2315674","0.3910424524","","","","","","","","","","","","","","72","H","0","img/none_selected.jpg","","121","main_expt",""
"","bandit","201","1219586","0.0-163.0-0.0","92439892","wem/bandit_party_1","A3UIDRGBV9NJWR","either","7","362","","","","","","","0","0","1","0.05632743158","","0.6","0.8","0.4","0.2","","","","","0.05632743158","0.2473202095","0.2041322171","0.3813410711","","","","","","","","","","72","H","0","img/none_selected.jpg","","122","main_expt",""
"","bandit","202","1221180","0.0-164.0-0.0","92439892","wem/bandit_party_1","A3UIDRGBV9NJWR","either","7","85","","","","","","","1","0","0","0.2909195989","","0.6","0.8","0.4","0.2","","","","","0.05516745574","0.2909195989","0.1945268209","0.4247291795","","","","","","","","","","74","J","1","","","123","main_expt",""
"","bandit","203","1222930","0.0-165.0-0.0","92439892","wem/bandit_party_1","A3UIDRGBV9NJWR","either","7","235","","","","","","","0","0","1","","0.3493750294","0.6","0.8","0.4","0.2","0.05528311039","0.3493750294","0.2206749142","0.4311179713","","","","","","","","","","","","","","74","J","1","","","124","main_expt",""
"","bandit","204","1224482","0.0-166.0-0.0","92439892","wem/bandit_party_1","A3UIDRGBV9NJWR","either","7","45","","","","","","","0","0","1","","0.3883668019","0.6","0.8","0.4","0.2","0.07149807259","0.3883668019","0.212012295","0.4085782939","","","","","","","","","","","","","","74","J","1","","","125","main_expt",""
"","bandit","205","1226171","0.0-167.0-0.0","92439892","wem/bandit_party_1","A3UIDRGBV9NJWR","either","7","178","","","","","","","0","0","1","0.1656684785","","0.6","0.8","0.4","0.2","","","","","0.1137803622","0.3888129637","0.1656684785","0.4110861309","","","","","","","","","","75","K","2","","","126","main_expt",""
"","bandit","206","1227788","0.0-168.0-0.0","92439892","wem/bandit_party_1","A3UIDRGBV9NJWR","either","7","109","","","","","","","0","0","1","","0.1685301808","0.6","0.8","0.4","0.2","0.1003054442","0.3659195129","0.1685301808","0.4214671818","","","","","","","","","","","","","","75","K","2","","","127","main_expt",""
"","bandit","207","1229379","0.0-169.0-0.0","92439892","wem/bandit_party_1","A3UIDRGBV9NJWR","either","7","83","","","","","","","0","1","0","","0.36889317","0.6","0.8","0.4","0.2","0.1378169536","0.3689954399","0.1703551811","0.36889317","","","","","","","","","","","","","","76","L","3","","","128","main_expt",""
"","bandit","208","1231122","0.0-170.0-0.0","92439892","wem/bandit_party_1","A3UIDRGBV9NJWR","either","7","236","","","","","","","0","1","0","","0.3840267129","0.6","0.8","0.4","0.2","0.1333081235","0.3600340942","0.1624753709","0.3840267129","","","","","","","","","","","","","","76","L","3","","","129","main_expt",""
"","bandit","209","1232883","0.0-171.0-0.0","92439892","wem/bandit_party_1","A3UIDRGBV9NJWR","either","7","252","","","","","","","0","0","1","","0.3809677701","0.6","0.8","0.4","0.2","0.1682212827","0.3580797835","0.2335662737","0.3809677701","","","","","","","","","","","","","","76","L","3","","","130","main_expt",""
"","bandit","210","1234658","0.0-172.0-0.0","92439892","wem/bandit_party_1","A3UIDRGBV9NJWR","either","7","268","","","","","","","0","0","1","","0.3681933818","0.6","0.8","0.4","0.2","0.2193829955","0.3785893338","0.240441026","0.3681933818","","","","","","","","","","","","","","76","L","3","","","131","main_expt",""
"","bandit","211","1236350","0.0-173.0-0.0","92439892","wem/bandit_party_1","A3UIDRGBV9NJWR","either","7","175","","","","","","","0","0","1","","0.3664045944","0.6","0.8","0.4","0.2","0.2693349046","0.3764735404","0.2266699971","0.3664045944","","","","","","","","","","","","","","76","L","3","","","132","main_expt",""
"","bandit","212","1238181","0.0-174.0-0.0","92439892","wem/bandit_party_1","A3UIDRGBV9NJWR","either","7","314","","","","","","","0","0","1","","0.1994193025","0.6","0.8","0.4","0.2","0.2576546077","0.3433534211","0.1994193025","0.4046437197","","","","","","","","","","","","","","75","K","2","","","133","main_expt",""
"","bandit","213","1239715","0.0-175.0-0.0","92439892","wem/bandit_party_1","A3UIDRGBV9NJWR","either","7","17","","","","","","","0","0","1","0.1891464922","","0.6","0.8","0.4","0.2","","","","","0.2412372273","0.3606247271","0.1891464922","0.364490756","","","","","","","","","","75","K","2","","","134","main_expt",""
"","bandit","214","1241299","0.0-176.0-0.0","92439892","wem/bandit_party_1","A3UIDRGBV9NJWR","either","7","74","","","","","","","1","0","0","0.1614798668","","0.6","0.8","0.4","0.2","","","","","0.2198641054","0.3268624306","0.1614798668","0.311914316","","","","","","","","","","75","K","2","","","135","main_expt",""
"","bandit","215","1243083","0.0-177.0-0.0","92439892","wem/bandit_party_1","A3UIDRGBV9NJWR","either","7","266","","","","","","","1","0","0","0.1880386222","","0.6","0.8","0.4","0.2","","","","","0.2504132697","0.2854606769","0.1880386222","0.2653901568","","","","","","","","","","75","K","2","","","136","main_expt",""
"","bandit","216","1245209","0.0-178.0-0.0","92439892","wem/bandit_party_1","A3UIDRGBV9NJWR","either","7","620","","","","","","","0","0","1","0.1961818793","","0.6","0.8","0.4","0.2","","","","","0.1912230989","0.3311747399","0.1961818793","0.2413295316","","","","","","","","","","75","K","2","","","137","main_expt",""
"","bandit","217","1247379","0.0-179.0-0.0","92439892","wem/bandit_party_1","A3UIDRGBV9NJWR","either","7","659","","","","","","","1","0","0","0.2857678963","","0.6","0.8","0.4","0.2","","","","","0.1576256809","0.2570785188","0.2857678963","0.2060295423","","","","","","","","","","75","K","2","","","138","main_expt",""
"","bandit","218","1249052","0.0-180.0-0.0","92439892","wem/bandit_party_1","A3UIDRGBV9NJWR","either","7","158","","","","","","","0","1","0","","0.3449131854","0.6","0.8","0.4","0.2","0.1019788138","0.2858060749","0.3449131854","0.1809645164","","","","","","","","","","","","","","75","K","2","","","139","main_expt",""
"","bandit","219","1250916","0.0-181.0-0.0","92439892","wem/bandit_party_1","A3UIDRGBV9NJWR","either","7","356","","","","","","","0","0","1","","0.2537716732","0.6","0.8","0.4","0.2","0.07754087054","0.2975559752","0.2537716732","0.1843216893","","","","","","","","","","","","","","75","K","2","","","140","main_expt",""
"","bandit","220","1252547","0.0-182.0-0.0","92439892","wem/bandit_party_1","A3UIDRGBV9NJWR","either","7","121","","","","","","","0","0","1","","0.2858111263","0.6","0.8","0.4","0.2","0.09489610577","0.2802168405","0.2858111263","0.1651876155","","","","","","","","","","","","","","75","K","2","","","141","main_expt",""
"","bandit","221","1257502","0.0-183.0-0.0","92439892","wem/bandit_party_1","A3UIDRGBV9NJWR","either","7","3440","","","","","","","1","0","0","0.303049367","","0.6","0.8","0.4","0.2","","","","","0.09601428546","0.2231986748","0.303049367","0.1536427928","","","","","","","","","","75","K","2","","","142","main_expt",""
"","bandit","222","1260179","0.0-184.0-0.0","92439892","wem/bandit_party_1","A3UIDRGBV9NJWR","either","7","1172","","","","","","","1","0","0","0.2969419413","","0.6","0.8","0.4","0.2","","","","","0.08301142993","0.2032880393","0.2969419413","0.1546140226","","","","","","","","","","75","K","2","","","143","main_expt",""
"","bandit","223","1261996","0.0-185.0-0.0","92439892","wem/bandit_party_1","A3UIDRGBV9NJWR","either","7","306","","","","","","","0","1","0","","0.3128690494","0.6","0.8","0.4","0.2","0.09599686985","0.1967741464","0.3128690494","0.1746031107","","","","","","","","","","","","","","75","K","2","","","144","main_expt",""
"","bandit","224","1263875","0.0-186.0-0.0","92439892","wem/bandit_party_1","A3UIDRGBV9NJWR","either","7","371","","","","","","","0","0","1","","0.2991796355","0.6","0.8","0.4","0.2","0.07499383622","0.2283154954","0.2991796355","0.2021387556","","","","","","","","","","","","","","75","K","2","","","145","main_expt",""
"","bandit","225","1265499","0.0-187.0-0.0","92439892","wem/bandit_party_1","A3UIDRGBV9NJWR","either","7","113","","","","","","","0","0","1","","0.3163763193","0.6","0.8","0.4","0.2","0.09566861","0.2118700154","0.3163763193","0.2504344391","","","","","","","","","","","","","","75","K","2","","","146","main_expt",""
"","bandit","226","1267050","0.0-188.0-0.0","92439892","wem/bandit_party_1","A3UIDRGBV9NJWR","either","7","42","","","","","","","0","0","1","0.210437557","","0.6","0.8","0.4","0.2","","","","","0.08578591382","0.210437557","0.3198025905","0.2437718569","","","","","","","","","","74","J","1","","","147","main_expt",""
"","bandit","227","1268724","0.0-189.0-0.0","92439892","wem/bandit_party_1","A3UIDRGBV9NJWR","either","7","162","","","","","","","0","0","1","","0.1147887709","0.6","0.8","0.4","0.2","0.1147887709","0.2370661354","0.2588245921","0.2446677265","","","","","","","","","","","","","","72","H","0","img/none_selected.jpg","","148","main_expt",""
"","bandit","228","1270503","0.0-190.0-0.0","92439892","wem/bandit_party_1","A3UIDRGBV9NJWR","either","7","271","","","","","","","0","0","1","","0.2911002833","0.6","0.8","0.4","0.2","0.1378203382","0.2430363771","0.248712437","0.2911002833","","","","","","","","","","","","","","76","L","3","","","149","main_expt",""
"","bandit","229","1272147","0.0-191.0-0.0","92439892","wem/bandit_party_1","A3UIDRGBV9NJWR","either","7","134","","","","","","","0","0","1","","0.179144869","0.6","0.8","0.4","0.2","0.1414499273","0.2242182381","0.179144869","0.3529655025","","","","","","","","","","","","","","75","K","2","","","150","main_expt",""
"","bandit","230","1273738","0.0-192.0-0.0","92439892","wem/bandit_party_1","A3UIDRGBV9NJWR","either","7","84","","","","","","","0","0","1","0.1997145133","","0.6","0.8","0.4","0.2","","","","","0.07852348772","0.1997145133","0.1545669956","0.3885741111","","","","","","","","","","74","J","1","","","151","main_expt",""
"","bandit","231","1275899","0.0-193.0-0.0","92439892","wem/bandit_party_1","A3UIDRGBV9NJWR","either","7","647","","","","","","","1","0","0","0.2195927633","","0.6","0.8","0.4","0.2","","","","","0.08485793113","0.2195927633","0.1651714415","0.3690499696","","","","","","","","","","74","J","1","","","152","main_expt",""
"","bandit","232","1277955","0.0-194.0-0.0","92439892","wem/bandit_party_1","A3UIDRGBV9NJWR","either","7","545","","","","","","","1","0","0","0.2121816628","","0.6","0.8","0.4","0.2","","","","","0.1083789561","0.2121816628","0.2396245514","0.3710492515","","","","","","","","","","74","J","1","","","153","main_expt",""
"","bandit","233","1279866","0.0-195.0-0.0","92439892","wem/bandit_party_1","A3UIDRGBV9NJWR","either","7","403","","","","","","","0","0","1","0.1830588608","","0.6","0.8","0.4","0.2","","","","","0.109098481","0.1830588608","0.2085838567","0.3483335413","","","","","","","","","","74","J","1","","","154","main_expt",""
"","bandit","234","1281900","0.0-196.0-0.0","92439892","wem/bandit_party_1","A3UIDRGBV9NJWR","either","7","525","","","","","","","0","0","1","0.2031423662","","0.6","0.8","0.4","0.2","","","","","0.1758262092","0.2031423662","0.1864274254","0.3343760247","","","","","","","","","","74","J","1","","","155","main_expt",""
"","bandit","235","1283683","0.0-197.0-0.0","92439892","wem/bandit_party_1","A3UIDRGBV9NJWR","either","7","273","","","","","","","1","0","0","0.2022731065","","0.6","0.8","0.4","0.2","","","","","0.2046597001","0.2022731065","0.1750870897","0.3742013553","","","","","","","","","","74","J","1","","","156","main_expt",""
"","bandit","236","1285842","0.0-198.0-0.0","92439892","wem/bandit_party_1","A3UIDRGBV9NJWR","either","7","653","","","","","","","0","0","1","0.1826661219","","0.6","0.8","0.4","0.2","","","","","0.1774751899","0.1826661219","0.1321985386","0.3620366094","","","","","","","","","","74","J","1","","","157","main_expt",""
"","bandit","237","1288476","0.0-199.0-0.0","92439892","wem/bandit_party_1","A3UIDRGBV9NJWR","either","7","1119","","","","","","","0","0","1","","0.1658993888","0.6","0.8","0.4","0.2","0.1612033886","0.1658993888","0.1341899746","0.3671714071","","","","","","","","","","","","","","74","J","1","","","158","main_expt",""
"","bandit","238","1290589","0.0-200.0-0.0","92439892","wem/bandit_party_1","A3UIDRGBV9NJWR","either","7","592","","","","","","","0","0","1","","0.1567784951","0.6","0.8","0.4","0.2","0.1586838935","0.1620079643","0.1567784951","0.4015988616","","","","","","","","","","","","","","75","K","2","","","159","main_expt",""
"","bandit","239","1292133","0.0-201.0-0.0","92439892","wem/bandit_party_1","A3UIDRGBV9NJWR","either","7","26","","","","","","","1","0","0","0.4004877553","","0.6","0.8","0.4","0.2","","","","","0.2159944071","0.2453635642","0.1615549635","0.4004877553","","","","","","","","","","76","L","3","","","160","main_expt",""
"","bandit","240","1294126","0.0-202.0-0.0","92439892","wem/bandit_party_1","A3UIDRGBV9NJWR","either","7","478","","","","","","","0","0","1","","0.4095849454","0.6","0.8","0.4","0.2","0.2105769377","0.2456373749","0.1854631015","0.4095849454","","","","","","","","","","","","","","76","L","3","","","161","main_expt",""
"","bandit","241","1295915","0.0-203.0-0.0","92439892","wem/bandit_party_1","A3UIDRGBV9NJWR","either","7","282","","","","","","","0","1","0","","0.3978002783","0.6","0.8","0.4","0.2","0.2006925765","0.2460125232","0.21229469","0.3978002783","","","","","","","","","","","","","","76","L","3","","","162","main_expt",""
"","bandit","242","1307356","0.0-204.0-0.0","92439892","wem/bandit_party_1","A3UIDRGBV9NJWR","either","7","9930","","","","","","","0","0","1","","0.4180552148","0.6","0.8","0.4","0.2","0.2365124807","0.2013568893","0.162194177","0.4180552148","","","","","","","","","","","","","","76","L","3","","","163","main_expt",""
"","bandit","243","1309261","0.0-205.0-0.0","92439892","wem/bandit_party_1","A3UIDRGBV9NJWR","either","7","392","","","","","","","0","0","1","","0.1535707797","0.6","0.8","0.4","0.2","0.2157370886","0.1933595846","0.1535707797","0.4407560021","","","","","","","","","","","","","","75","K","2","","","164","main_expt",""
"","bandit","244","1311186","0.0-206.0-0.0","92439892","wem/bandit_party_1","A3UIDRGBV9NJWR","either","7","418","","","","","","","0","0","1","0.4582960521","","0.6","0.8","0.4","0.2","","","","","0.2166787898","0.167552211","0.2315934193","0.4582960521","","","","","","","","","","76","L","3","","","165","main_expt",""
"","bandit","245","1313116","0.0-207.0-0.0","92439892","wem/bandit_party_1","A3UIDRGBV9NJWR","either","7","422","","","","","","","1","0","0","0.1311237951","","0.6","0.8","0.4","0.2","","","","","0.1846262972","0.1311237951","0.2579087381","0.4337500892","","","","","","","","","","74","J","1","","","166","main_expt",""
"","bandit","246","1314899","0.0-208.0-0.0","92439892","wem/bandit_party_1","A3UIDRGBV9NJWR","either","7","275","","","","","","","0","0","1","0.1714029316","","0.6","0.8","0.4","0.2","","","","","0.1888750078","0.1714029316","0.2496457694","0.4537582576","","","","","","","","","","74","J","1","","","167","main_expt",""
"","bandit","247","1316684","0.0-209.0-0.0","92439892","wem/bandit_party_1","A3UIDRGBV9NJWR","either","7","272","","","","","","","0","0","1","0.2315683769","","0.6","0.8","0.4","0.2","","","","","0.2315683769","0.1494402723","0.234558796","0.4473485534","","","","","","","","","","72","H","0","img/none_selected.jpg","","168","main_expt",""
"","bandit","248","1318356","0.0-210.0-0.0","92439892","wem/bandit_party_1","A3UIDRGBV9NJWR","either","7","160","","","","","","","0","1","0","","0.1819888556","0.6","0.8","0.4","0.2","0.2018123945","0.1819888556","0.2458600006","0.4471591033","","","","","","","","","","","","","","74","J","1","","","169","main_expt",""
"","bandit","249","1320011","0.0-211.0-0.0","92439892","wem/bandit_party_1","A3UIDRGBV9NJWR","either","7","142","","","","","","","0","0","1","","0.2329206984","0.6","0.8","0.4","0.2","0.139238222","0.2329206984","0.2214583157","0.4581839475","","","","","","","","","","","","","","74","J","1","","","170","main_expt",""
"","bandit","250","1321621","0.0-212.0-0.0","92439892","wem/bandit_party_1","A3UIDRGBV9NJWR","either","7","99","","","","","","","0","0","1","","0.2000607923","0.6","0.8","0.4","0.2","0.1466511374","0.2000607923","0.296208115","0.4674995421","","","","","","","","","","","","","","74","J","1","","","171","main_expt",""
"","bandit","251","1323388","0.0-213.0-0.0","92439892","wem/bandit_party_1","A3UIDRGBV9NJWR","either","7","251","","","","","","","0","0","1","","0.3062379281","0.6","0.8","0.4","0.2","0.1348290388","0.2342957318","0.3062379281","0.4455620345","","","","","","","","","","","","","","75","K","2","","","172","main_expt",""
"","bandit","252","1324924","0.0-214.0-0.0","92439892","wem/bandit_party_1","A3UIDRGBV9NJWR","either","7","27","","","","","","","0","1","0","","0.4471610379","0.6","0.8","0.4","0.2","0.1521691919","0.2189308077","0.2498067723","0.4471610379","","","","","","","","","","","","","","76","L","3","","","173","main_expt",""
"","bandit","253","1326835","0.0-215.0-0.0","92439892","wem/bandit_party_1","A3UIDRGBV9NJWR","either","7","397","","","","","","","0","1","0","","0.4496576915","0.6","0.8","0.4","0.2","0.2191935525","0.2373932689","0.1803522277","0.4496576915","","","","","","","","","","","","","","76","L","3","","","174","main_expt",""
"","bandit","254","1328677","0.0-216.0-0.0","92439892","wem/bandit_party_1","A3UIDRGBV9NJWR","either","7","329","","","","","","","0","0","1","","0.4715297358","0.6","0.8","0.4","0.2","0.219961305","0.2160264752","0.2014319342","0.4715297358","","","","","","","","","","","","","","76","L","3","","","175","main_expt",""
"","bandit","255","1330779","0.0-217.0-0.0","92439892","wem/bandit_party_1","A3UIDRGBV9NJWR","either","7","587","","","","","","","0","0","1","","0.477956151","0.6","0.8","0.4","0.2","0.1882485239","0.1990604306","0.2122003168","0.477956151","","","","","","","","","","","","","","76","L","3","","","176","main_expt",""
"","bandit","256","1332756","0.0-218.0-0.0","92439892","wem/bandit_party_1","A3UIDRGBV9NJWR","either","7","461","","","","","","","0","1","0","","0.4563721206","0.6","0.8","0.4","0.2","0.1644902553","0.1729978196","0.2629069455","0.4563721206","","","","","","","","","","","","","","76","L","3","","","177","main_expt",""
"","bandit","257","1334573","0.0-219.0-0.0","92439892","wem/bandit_party_1","A3UIDRGBV9NJWR","either","7","304","","","","","","","0","0","1","","0.4409869931","0.6","0.8","0.4","0.2","0.1713669852","0.1633080779","0.2336104206","0.4409869931","","","","","","","","","","","","","","76","L","3","","","178","main_expt",""
"","bandit","258","1336460","0.0-220.0-0.0","92439892","wem/bandit_party_1","A3UIDRGBV9NJWR","either","7","372","","","","","","","0","0","1","","0.4243126063","0.6","0.8","0.4","0.2","0.2263400462","0.1243251356","0.1887504226","0.4243126063","","","","","","","","","","","","","","76","L","3","","","179","main_expt",""
"","bandit","259","1338476","0.0-221.0-0.0","92439892","wem/bandit_party_1","A3UIDRGBV9NJWR","either","7","496","","","","","","","1","0","0","0.4312830743","","0.6","0.8","0.4","0.2","","","","","0.2036870175","0.1150149055","0.138376641","0.4312830743","","","","","","","","","","76","L","3","","","180","main_expt",""
"","bandit","260","1340244","0.0-222.0-0.0","92439892","wem/bandit_party_1","A3UIDRGBV9NJWR","either","7","246","","","","","","","0","0","1","","0.4433127893","0.6","0.8","0.4","0.2","0.1934599198","0.1407924877","0.1883992559","0.4433127893","","","","","","","","","","","","","","76","L","3","","","181","main_expt",""
"","bandit","261","1341892","0.0-223.0-0.0","92439892","wem/bandit_party_1","A3UIDRGBV9NJWR","either","7","129","","","","","","","0","1","0","","0.440136403","0.6","0.8","0.4","0.2","0.2424515525","0.09672650852","0.128889003","0.440136403","","","","","","","","","","","","","","76","L","3","","","182","main_expt",""
"","bandit","262","1344011","0.0-224.0-0.0","92439892","wem/bandit_party_1","A3UIDRGBV9NJWR","either","7","610","","","","","","","0","0","1","","0.4347693449","0.6","0.8","0.4","0.2","0.1961777535","0.09888002855","0.1748769843","0.4347693449","","","","","","","","","","","","","","76","L","3","","","183","main_expt",""
"","bandit","263","1346394","0.0-225.0-0.0","92439892","wem/bandit_party_1","A3UIDRGBV9NJWR","either","7","864","","","","","","","0","0","1","","0.4277130926","0.6","0.8","0.4","0.2","0.1489283113","0.07200145298","0.1945994373","0.4277130926","","","","","","","","","","","","","","76","L","3","","","184","main_expt",""
"","bandit","264","1347970","0.0-226.0-0.0","92439892","wem/bandit_party_1","A3UIDRGBV9NJWR","either","7","52","","","","","","","0","0","1","","0.1644748654","0.6","0.8","0.4","0.2","0.1499965078","0.09476413333","0.1644748654","0.3956248437","","","","","","","","","","","","","","75","K","2","","","185","main_expt",""
"","bandit","265","1349635","0.0-227.0-0.0","92439892","wem/bandit_party_1","A3UIDRGBV9NJWR","either","7","156","","","","","","","0","0","1","0.06556422103","","0.6","0.8","0.4","0.2","","","","","0.2169832988","0.06556422103","0.1504635592","0.3748928266","","","","","","","","","","74","J","1","","","186","main_expt",""
"","bandit","266","1351453","0.0-228.0-0.0","92439892","wem/bandit_party_1","A3UIDRGBV9NJWR","either","7","309","","","","","","","0","1","0","","0.2655186329","0.6","0.8","0.4","0.2","0.2655186329","0.08901149072","0.1760039214","0.3848139325","","","","","","","","","","","","","","72","H","0","img/none_selected.jpg","","187","main_expt",""
"","bandit","267","1353227","0.0-229.0-0.0","92439892","wem/bandit_party_1","A3UIDRGBV9NJWR","either","7","256","","","","","","","0","1","0","","0.2738785118","0.6","0.8","0.4","0.2","0.2738785118","0.09471428588","0.1203267588","0.3990176401","","","","","","","","","","","","","","72","H","0","img/none_selected.jpg","","188","main_expt",""
"","bandit","268","1355026","0.0-230.0-0.0","92439892","wem/bandit_party_1","A3UIDRGBV9NJWR","either","7","290","","","","","","","1","0","0","0.3041874674","","0.6","0.8","0.4","0.2","","","","","0.3041874674","0.05118235823","0.1171540391","0.3581396838","","","","","","","","","","72","H","0","img/none_selected.jpg","","189","main_expt",""
"","bandit","269","1356676","0.0-231.0-0.0","92439892","wem/bandit_party_1","A3UIDRGBV9NJWR","either","7","133","","","","","","","0","0","1","","0.3229453735","0.6","0.8","0.4","0.2","0.3229453735","0.05788318751","0.1535230761","0.2882972244","","","","","","","","","","","","","","72","H","0","img/none_selected.jpg","","190","main_expt",""
"","bandit","270","1358364","0.0-232.0-0.0","92439892","wem/bandit_party_1","A3UIDRGBV9NJWR","either","7","175","","","","","","","1","0","0","0.3818249757","","0.6","0.8","0.4","0.2","","","","","0.3818249757","0.08736915481","0.1372750947","0.3145326233","","","","","","","","","","72","H","0","img/none_selected.jpg","","191","main_expt",""
"","bandit","271","1359908","0.0-233.0-0.0","92439892","wem/bandit_party_1","A3UIDRGBV9NJWR","either","7","32","","","","","","","0","0","1","0.4157726243","","0.6","0.8","0.4","0.2","","","","","0.4157726243","0.08251019118","0.1047771501","0.3270603702","","","","","","","","","","72","H","0","img/none_selected.jpg","","192","main_expt",""
"","bandit","272","1361645","0.0-234.0-0.0","92439892","wem/bandit_party_1","A3UIDRGBV9NJWR","either","7","224","","","","","","","0","0","1","","0.4611608212","0.6","0.8","0.4","0.2","0.4611608212","0.06897628064","0.1100845432","0.3604030797","","","","","","","","","","","","","","72","H","0","img/none_selected.jpg","","193","main_expt",""
"","bandit","273","1363795","0.0-235.0-0.0","92439892","wem/bandit_party_1","A3UIDRGBV9NJWR","either","7","642","","","","","","","0","0","1","","0.4508818777","0.6","0.8","0.4","0.2","0.4508818777","0.06801266305","0.1468163818","0.357423186","","","","","","","","","","","","","","72","H","0","img/none_selected.jpg","","194","main_expt",""
"","bandit","274","1366173","0.0-236.0-0.0","92439892","wem/bandit_party_1","A3UIDRGBV9NJWR","either","7","867","","","","","","","1","0","0","0.4278921451","","0.6","0.8","0.4","0.2","","","","","0.4278921451","0.09923709358","0.1495594621","0.3697779856","","","","","","","","","","72","H","0","img/none_selected.jpg","","195","main_expt",""
"","bandit","275","1368052","0.0-237.0-0.0","92439892","wem/bandit_party_1","A3UIDRGBV9NJWR","either","7","365","","","","","","","0","0","1","0.4256293003","","0.6","0.8","0.4","0.2","","","","","0.4256293003","0.1103063831","0.2263220537","0.3617177512","","","","","","","","","","72","H","0","img/none_selected.jpg","","196","main_expt",""
"","bandit","276","1369586","0.0-238.0-0.0","92439892","wem/bandit_party_1","A3UIDRGBV9NJWR","either","7","27","","","","","","","0","0","1","0.4476975038","","0.6","0.8","0.4","0.2","","","","","0.4476975038","0.07377144043","0.2204718804","0.3775990084","","","","","","","","","","72","H","0","img/none_selected.jpg","","197","main_expt",""
"","bandit","277","1371171","0.0-239.0-0.0","92439892","wem/bandit_party_1","A3UIDRGBV9NJWR","either","7","72","","","","","","","0","0","1","","0.08863448313","0.6","0.8","0.4","0.2","0.4434357272","0.08863448313","0.2401118457","0.4144042571","","","","","","","","","","","","","","74","J","1","","","198","main_expt",""
"","bandit","278","1372902","0.0-240.0-0.0","92439892","wem/bandit_party_1","A3UIDRGBV9NJWR","either","7","209","","","","","","","0","0","1","0.4245114622","","0.6","0.8","0.4","0.2","","","","","0.4245114622","0.1082179128","0.2673724497","0.4081775392","","","","","","","","","","72","H","0","img/none_selected.jpg","","199","main_expt",""
"","bandit","279","1374572","0.0-241.0-0.0","92439892","wem/bandit_party_1","A3UIDRGBV9NJWR","either","7","161","","","","","","","0","0","1","","0.3125307902","0.6","0.8","0.4","0.2","0.4087100315","0.09350688576","0.3125307902","0.4166156547","","","","","","","","","","","","","","75","K","2","","","200","main_expt",""
"","bandit","280","1376444","0.0-242.0-0.0","92439892","wem/bandit_party_1","A3UIDRGBV9NJWR","either","7","356","","","","","","","0","0","1","","0.4306537176","0.6","0.8","0.4","0.2","0.4361521275","0.1036625099","0.2914574258","0.4306537176","","","","","","","","","","","","","","76","L","3","","","201","main_expt",""
"","bandit","281","1378277","0.0-243.0-0.0","92439892","wem/bandit_party_1","A3UIDRGBV9NJWR","either","7","315","","","","","","","0","0","1","0.449382563","","0.6","0.8","0.4","0.2","","","","","0.3332596158","0.1216733889","0.2550600684","0.449382563","","","","","","","","","","76","L","3","","","202","main_expt",""
"","bandit","282","1380201","0.0-244.0-0.0","92439892","wem/bandit_party_1","A3UIDRGBV9NJWR","either","7","408","","","","","","","0","0","1","","0.4506576586","0.6","0.8","0.4","0.2","0.3581848779","0.120655788","0.2769745997","0.4506576586","","","","","","","","","","","","","","76","L","3","","","203","main_expt",""
"","bandit","283","1382338","0.0-245.0-0.0","92439892","wem/bandit_party_1","A3UIDRGBV9NJWR","either","7","626","","","","","","","0","0","1","","0.2752990059","0.6","0.8","0.4","0.2","0.3597133043","0.1082970726","0.2752990059","0.454839243","","","","","","","","","","","","","","75","K","2","","","204","main_expt",""
"","bandit","284","1384232","0.0-246.0-0.0","92439892","wem/bandit_party_1","A3UIDRGBV9NJWR","either","7","379","","","","","","","0","1","0","","0.2901512169","0.6","0.8","0.4","0.2","0.3630183988","0.09143681274","0.2901512169","0.4512889682","","","","","","","","","","","","","","75","K","2","","","205","main_expt",""
"","bandit","285","1386554","0.0-247.0-0.0","92439892","wem/bandit_party_1","A3UIDRGBV9NJWR","either","7","797","","","","","","","0","0","1","0.2823763913","","0.6","0.8","0.4","0.2","","","","","0.3737494834","0.08377413986","0.2823763913","0.4591490044","","","","","","","","","","75","K","2","","","206","main_expt",""
"","bandit","286","1388484","0.0-248.0-0.0","92439892","wem/bandit_party_1","A3UIDRGBV9NJWR","either","7","419","","","","","","","0","0","1","","0.2708062506","0.6","0.8","0.4","0.2","0.3668784438","0.1585073664","0.2708062506","0.4650593633","","","","","","","","","","","","","","75","K","2","","","207","main_expt",""
"","bandit","287","1389993","0.0-249.0-0.0","92439892","wem/bandit_party_1","A3UIDRGBV9NJWR","either","7","0","","","","","","","0","1","0","","0.2641553663","0.6","0.8","0.4","0.2","0.4045351895","0.162299901","0.2641553663","0.4641513068","","","","","","","","","","","","","","75","K","2","","","208","main_expt",""
"","bandit","288","1393011","0.0-250.0-0.0","92439892","wem/bandit_party_1","A3UIDRGBV9NJWR","either","7","1506","","","","","","","0","0","1","","0.2704675845","0.6","0.8","0.4","0.2","0.4402386934","0.1542266077","0.2704675845","0.4567807332","","","","","","","","","","","","","","75","K","2","","","209","main_expt",""
"","bandit","289","1395635","0.0-251.0-0.0","92439892","wem/bandit_party_1","A3UIDRGBV9NJWR","either","7","1117","","","","","","","1","0","0","0.3420868926","","0.6","0.8","0.4","0.2","","","","","0.4483623408","0.1890415559","0.3420868926","0.428253188","","","","","","","","","","75","K","2","","","210","main_expt",""
"","bandit","290","1397411","0.0-252.0-0.0","92439892","wem/bandit_party_1","A3UIDRGBV9NJWR","either","7","264","","","","","","","0","0","1","0.3069688952","","0.6","0.8","0.4","0.2","","","","","0.4471415093","0.1818133019","0.3069688952","0.410271385","","","","","","","","","","75","K","2","","","211","main_expt",""
"","bandit","291","1399555","0.0-253.0-0.0","92439892","wem/bandit_party_1","A3UIDRGBV9NJWR","either","7","635","","","","","","","0","0","1","0.3005379093","","0.6","0.8","0.4","0.2","","","","","0.4374655127","0.1782747956","0.3005379093","0.4065587724","","","","","","","","","","75","K","2","","","212","main_expt",""
"","bandit","292","1401275","0.0-254.0-0.0","92439892","wem/bandit_party_1","A3UIDRGBV9NJWR","either","7","212","","","","","","","0","0","1","","0.213882915","0.6","0.8","0.4","0.2","0.4381457257","0.1935195711","0.213882915","0.4007116542","","","","","","","","","","","","","","75","K","2","","","213","main_expt",""
"","bandit","293","1403110","0.0-255.0-0.0","92439892","wem/bandit_party_1","A3UIDRGBV9NJWR","either","7","324","","","","","","","0","0","1","","0.2138557204","0.6","0.8","0.4","0.2","0.4643769008","0.2421176173","0.2138557204","0.4246209323","","","","","","","","","","","","","","75","K","2","","","214","main_expt",""
"","bandit","294","1404685","0.0-256.0-0.0","92439892","wem/bandit_party_1","A3UIDRGBV9NJWR","either","7","55","","","","","","","0","0","1","0.2629876012","","0.6","0.8","0.4","0.2","","","","","0.4328812357","0.2629876012","0.2142566612","0.3993057066","","","","","","","","","","74","J","1","","","215","main_expt",""
"","bandit","295","1406419","0.0-257.0-0.0","92439892","wem/bandit_party_1","A3UIDRGBV9NJWR","either","7","228","","","","","","","1","0","0","0.4064507999","","0.6","0.8","0.4","0.2","","","","","0.4064507999","0.2977714141","0.1900351118","0.3987772474","","","","","","","","","","72","H","0","img/none_selected.jpg","","216","main_expt",""
"","bandit","296","1408397","0.0-258.0-0.0","92439892","wem/bandit_party_1","A3UIDRGBV9NJWR","either","7","466","","","","","","","0","1","0","","0.4197961641","0.6","0.8","0.4","0.2","0.4197961641","0.3017601552","0.2185169477","0.4101433534","","","","","","","","","","","","","","72","H","0","img/none_selected.jpg","","217","main_expt",""
"","bandit","297","1410178","0.0-259.0-0.0","92439892","wem/bandit_party_1","A3UIDRGBV9NJWR","either","7","272","","","","","","","0","1","0","","0.4167397569","0.6","0.8","0.4","0.2","0.4167397569","0.2888566207","0.2240895604","0.4448029092","","","","","","","","","","","","","","72","H","0","img/none_selected.jpg","","218","main_expt",""
"","bandit","298","1411962","0.0-260.0-0.0","92439892","wem/bandit_party_1","A3UIDRGBV9NJWR","either","7","273","","","","","","","0","0","1","","0.4250944588","0.6","0.8","0.4","0.2","0.4250944588","0.2844008008","0.1990808675","0.4454766299","","","","","","","","","","","","","","72","H","0","img/none_selected.jpg","","219","main_expt",""
"","bandit","299","1414284","0.0-261.0-0.0","92439892","wem/bandit_party_1","A3UIDRGBV9NJWR","either","7","813","","","","","","","0","0","1","0.4173336587","","0.6","0.8","0.4","0.2","","","","","0.4173336587","0.2225062479","0.266602996","0.4610997771","","","","","","","","","","72","H","0","img/none_selected.jpg","","220","main_expt",""
"","bandit","300","1416165","0.0-262.0-0.0","92439892","wem/bandit_party_1","A3UIDRGBV9NJWR","either","7","359","","","","","","","0","0","1","0.3944711005","","0.6","0.8","0.4","0.2","","","","","0.3944711005","0.2409900116","0.2443661227","0.4642289789","","","","","","","","","","72","H","0","img/none_selected.jpg","","221","main_expt",""
"","bandit","301","1417876","0.0-263.0-0.0","92439892","wem/bandit_party_1","A3UIDRGBV9NJWR","either","7","199","","","","","","","0","0","1","","0.1989678636","0.6","0.8","0.4","0.2","0.3619306912","0.1989678636","0.2205922116","0.4641270597","","","","","","","","","","","","","","74","J","1","","","222","main_expt",""
"","bandit","302","1419818","0.0-264.0-0.0","92439892","wem/bandit_party_1","A3UIDRGBV9NJWR","either","7","433","","","","","","","1","0","0","0.4697433819","","0.6","0.8","0.4","0.2","","","","","0.4117842179","0.1902867071","0.1861223506","0.4697433819","","","","","","","","","","76","L","3","","","223","main_expt",""
"","bandit","303","1422255","0.0-265.0-0.0","92439892","wem/bandit_party_1","A3UIDRGBV9NJWR","either","7","921","","","","","","","0","0","1","","0.460898083","0.6","0.8","0.4","0.2","0.3965092367","0.2076415522","0.1668884863","0.460898083","","","","","","","","","","","","","","76","L","3","","","224","main_expt",""
"","bandit","304","1424556","0.0-266.0-0.0","92439892","wem/bandit_party_1","A3UIDRGBV9NJWR","either","7","784","","","","","","","0","1","0","","0.4394890665","0.6","0.8","0.4","0.2","0.4084477862","0.2393469174","0.1481472712","0.4394890665","","","","","","","","","","","","","","76","L","3","","","225","main_expt",""
"","bandit","305","1427092","0.0-267.0-0.0","92439892","wem/bandit_party_1","A3UIDRGBV9NJWR","either","7","1024","","","","","","","0","0","1","","0.4520955237","0.6","0.8","0.4","0.2","0.4104601526","0.2425440376","0.1140846591","0.4520955237","","","","","","","","","","","","","","76","L","3","","","226","main_expt",""
"","bandit","306","1429199","0.0-268.0-0.0","92439892","wem/bandit_party_1","A3UIDRGBV9NJWR","either","7","596","","","","","","","0","0","1","0.4324220164","","0.6","0.8","0.4","0.2","","","","","0.3899733519","0.2365603363","0.1074218354","0.4324220164","","","","","","","","","","76","L","3","","","227","main_expt",""
"","bandit","307","1430972","0.0-269.0-0.0","92439892","wem/bandit_party_1","A3UIDRGBV9NJWR","either","7","256","","","","","","","0","0","1","","0.08065165665","0.6","0.8","0.4","0.2","0.3796730737","0.2127958296","0.08065165665","0.4220482421","","","","","","","","","","","","","","75","K","2","","","228","main_expt",""
"","bandit","308","1433706","0.0-270.0-0.0","92439892","wem/bandit_party_1","A3UIDRGBV9NJWR","either","7","1226","","","","","","","0","0","1","","0.2207861463","0.6","0.8","0.4","0.2","0.4046866514","0.2207861463","0.07774059362","0.3885749154","","","","","","","","","","","","","","74","J","1","","","229","main_expt",""
"","bandit","309","1435556","0.0-271.0-0.0","92439892","wem/bandit_party_1","A3UIDRGBV9NJWR","either","7","338","","","","","","","0","0","1","","0.4023755806","0.6","0.8","0.4","0.2","0.3988793555","0.2589226453","0.1109483114","0.4023755806","","","","","","","","","","","","","","76","L","3","","","230","main_expt",""
"","bandit","310","1437346","0.0-272.0-0.0","92439892","wem/bandit_party_1","A3UIDRGBV9NJWR","either","7","275","","","","","","","0","0","1","0.3981898202","","0.6","0.8","0.4","0.2","","","","","0.3981898202","0.2956158432","0.05902300203","0.3768725222","","","","","","","","","","72","H","0","img/none_selected.jpg","","231","main_expt",""
"","bandit","311","1438874","0.0-273.0-0.0","92439892","wem/bandit_party_1","A3UIDRGBV9NJWR","either","7","14","","","","","","","1","0","0","0.3202484073","","0.6","0.8","0.4","0.2","","","","","0.4411941832","0.3202484073","0.06675855664","0.3619917427","","","","","","","","","","74","J","1","","","232","main_expt",""
"","bandit","312","1440893","0.0-274.0-0.0","92439892","wem/bandit_party_1","A3UIDRGBV9NJWR","either","7","506","","","","","","","0","0","1","0.2933644042","","0.6","0.8","0.4","0.2","","","","","0.42967461","0.2933644042","0.06703699679","0.3833578816","","","","","","","","","","74","J","1","","","233","main_expt",""
"","bandit","313","1442876","0.0-275.0-0.0","92439892","wem/bandit_party_1","A3UIDRGBV9NJWR","either","7","467","","","","","","","1","0","0","0.3106154811","","0.6","0.8","0.4","0.2","","","","","0.4242798354","0.3106154811","0.05331023031","0.3552131768","","","","","","","","","","74","J","1","","","234","main_expt",""
"","bandit","314","1444581","0.0-276.0-0.0","92439892","wem/bandit_party_1","A3UIDRGBV9NJWR","either","7","181","","","","","","","1","0","0","0.3158990995","","0.6","0.8","0.4","0.2","","","","","0.4617388459","0.3158990995","0.05187545802","0.3135084543","","","","","","","","","","74","J","1","","","235","main_expt",""
"","bandit","315","1446589","0.0-277.0-0.0","92439892","wem/bandit_party_1","A3UIDRGBV9NJWR","either","7","494","","","","","","","0","0","1","0.3036927748","","0.6","0.8","0.4","0.2","","","","","0.4619510484","0.3036927748","0.06939909985","0.244945467","","","","","","","","","","74","J","1","","","236","main_expt",""
"","bandit","316","1448202","0.0-278.0-0.0","92439892","wem/bandit_party_1","A3UIDRGBV9NJWR","either","7","103","","","","","","","0","0","1","0.1210409879","","0.6","0.8","0.4","0.2","","","","","0.4482398789","0.3491021326","0.1210409879","0.1823839079","","","","","","","","","","75","K","2","","","237","main_expt",""
