"consent","trial_type","trial_index","time_elapsed","internal_node_id","subjID","study","MID","cond","drift","rt","responses","button_pressed","key_press","like","value","connected","gems","bombs","no_reward","GemPrChosen","BombPrChosen","GainOverPainPr_0","GainOverPainPr_1","GainOverPainPr_2","GainOverPainPr_3","LosePr_0","LosePr_1","LosePr_2","LosePr_3","WinPr_0","WinPr_1","WinPr_2","WinPr_3","Q0","Q1","Q2","gender","age","ethnicity","label","expt_phase","target","respCharCode","respKey","respChoiceNum","respChoice","practice","trial_counter","trial_label","Q0_index"
"GDM/GDM_behavioral_consent_30min_online.html","consent","0","84694","0.0-0.0","92643990","wem/bandit_party_1","A13JDX06ZXN4KJ","either","3","","","","","","","","","","","","","","","","","","","","","","","","","","","","","","","","","","","","","","","","",""
"","survey-text","1","89967","0.0-1.0","92643990","wem/bandit_party_1","A13JDX06ZXN4KJ","either","3","4261","{""Q0"":""A13JDX06ZXN4KJ""}","","","","","","","","","","","","","","","","","","","","","","","","","","","","","","","","","","","","","","",""
"","button-response","2","92652","0.0-2.0","92643990","wem/bandit_party_1","A13JDX06ZXN4KJ","either","3","1679","","1","","","","","","","","","","","","","","","","","","","","","","","","","","","","","","","","","","","","","",""
"","text-replacement","3","104837","0.0-3.0","92643990","wem/bandit_party_1","A13JDX06ZXN4KJ","either","3","11178","","","32","","","","","","","","","","","","","","","","","","","","","","","","","","","","","","","","","","","","",""
"","text-replacement","4","112760","0.0-4.0","92643990","wem/bandit_party_1","A13JDX06ZXN4KJ","either","3","7920","","","32","","","","","","","","","","","","","","","","","","","","","","","","","","","","","","","","","","","","",""
"","identification","5","119606","0.0-6.0-0.0","92643990","wem/bandit_party_1","A13JDX06ZXN4KJ","either","3","6828","","","","0","0","0","","","","","","","","","","","","","","","","","","","","","","","","pre","identification_pre","the Republican party","","","","","","","",""
"","identification","6","125037","0.0-6.0-1.0","92643990","wem/bandit_party_1","A13JDX06ZXN4KJ","either","3","4406","","","","3","3","3","","","","","","","","","","","","","","","","","","","","","","","","pre","identification_pre","the Democratic Party","","","","","","","",""
"","text-replacement","7","132990","0.0-7.0","92643990","wem/bandit_party_1","A13JDX06ZXN4KJ","either","3","6950","","","32","","","","","","","","","","","","","","","","","","","","","","","","","","","","","","","","","","","","",""
"","text-replacement","8","137583","0.0-8.0","92643990","wem/bandit_party_1","A13JDX06ZXN4KJ","either","3","4591","","","32","","","","","","","","","","","","","","","","","","","","","","","","","","","","","","","","","","","","",""
"","text-replacement","9","146695","0.0-9.0","92643990","wem/bandit_party_1","A13JDX06ZXN4KJ","either","3","9109","","","32","","","","","","","","","","","","","","","","","","","","","","","","","","","","","","","","","","","","",""
"","text-replacement","10","149953","0.0-10.0","92643990","wem/bandit_party_1","A13JDX06ZXN4KJ","either","3","3255","","","32","","","","","","","","","","","","","","","","","","","","","","","","","","","","","","","","","","","","",""
"","text-replacement","11","155502","0.0-11.0","92643990","wem/bandit_party_1","A13JDX06ZXN4KJ","either","3","5547","","","32","","","","","","","","","","","","","","","","","","","","","","","","","","","","","","","","","","","","",""
"","bandit","12","158984","0.0-12.0-0.0","92643990","wem/bandit_party_1","A13JDX06ZXN4KJ","either","3","1969","","","","","","","0","0","1","0","0","","","","","0","","","","0","","","","","","","","","","","","","74","J","0","img/none_selected_demo.jpg","true","0","",""
"","bandit","13","161366","0.0-13.0-0.0","92643990","wem/bandit_party_1","A13JDX06ZXN4KJ","either","3","871","","","","","","","0","0","1","0","0","","","","","0","","","","0","","","","","","","","","","","","","75","K","0","img/none_selected_demo.jpg","true","0","",""
"","text-replacement","14","167739","0.0-14.0","92643990","wem/bandit_party_1","A13JDX06ZXN4KJ","either","3","6371","","","32","","","","","","","","","","","","","","","","","","","","","","","","","","","","","","","","","","","","",""
"","text-replacement","15","172540","0.0-15.0","92643990","wem/bandit_party_1","A13JDX06ZXN4KJ","either","3","4800","","","32","","","","","","","","","","","","","","","","","","","","","","","","","","","","","","","","","","","","",""
"","text-replacement","16","177293","0.0-16.0","92643990","wem/bandit_party_1","A13JDX06ZXN4KJ","either","3","4752","","","32","","","","","","","","","","","","","","","","","","","","","","","","","","","","","","","","","","","","",""
"","text-replacement","17","180509","0.0-17.0","92643990","wem/bandit_party_1","A13JDX06ZXN4KJ","either","3","3213","","","32","","","","","","","","","","","","","","","","","","","","","","","","","","","","","","","","","","","","",""
"","bandit","18","182895","0.0-18.0-0.0","92643990","wem/bandit_party_1","A13JDX06ZXN4KJ","either","3","878","","","","","","","0","0","1","","0.2","0.5","0.5","","","0.8","0.2","","","","","","","","","","","","","","","","75","K","1","","true","0","80_20_practice",""
"","bandit","19","185441","0.0-18.0-1.0","92643990","wem/bandit_party_1","A13JDX06ZXN4KJ","either","3","1037","","","","","","","0","1","0","","0.8","0.5","0.5","","","0.8","0.2","","","","","","","","","","","","","","","","74","J","0","img/none_selected_demo.jpg","true","0","80_20_practice",""
"","bandit","20","187581","0.0-18.0-2.0","92643990","wem/bandit_party_1","A13JDX06ZXN4KJ","either","3","629","","","","","","","1","0","0","0.8","","0.5","0.5","","","","","","","0.8","0.2","","","","","","","","","","","","74","J","0","img/none_selected_demo.jpg","true","0","80_20_practice",""
"","bandit","21","189632","0.0-18.0-3.0","92643990","wem/bandit_party_1","A13JDX06ZXN4KJ","either","3","544","","","","","","","0","0","1","0.8","","0.5","0.5","","","","","","","0.8","0.2","","","","","","","","","","","","74","J","0","img/none_selected_demo.jpg","true","0","80_20_practice",""
"","bandit","22","191637","0.0-18.0-4.0","92643990","wem/bandit_party_1","A13JDX06ZXN4KJ","either","3","496","","","","","","","0","1","0","","0.8","0.5","0.5","","","0.8","0.2","","","","","","","","","","","","","","","","74","J","0","img/none_selected_demo.jpg","true","0","80_20_practice",""
"","bandit","23","193688","0.0-18.0-5.0","92643990","wem/bandit_party_1","A13JDX06ZXN4KJ","either","3","541","","","","","","","0","0","1","","0.2","0.5","0.5","","","0.8","0.2","","","","","","","","","","","","","","","","75","K","1","","true","0","80_20_practice",""
"","bandit","24","195618","0.0-18.0-6.0","92643990","wem/bandit_party_1","A13JDX06ZXN4KJ","either","3","422","","","","","","","0","1","0","","0.8","0.5","0.5","","","0.8","0.2","","","","","","","","","","","","","","","","74","J","0","img/none_selected_demo.jpg","true","0","80_20_practice",""
"","bandit","25","197459","0.0-18.0-7.0","92643990","wem/bandit_party_1","A13JDX06ZXN4KJ","either","3","335","","","","","","","0","1","0","","0.8","0.5","0.5","","","0.8","0.2","","","","","","","","","","","","","","","","74","J","0","img/none_selected_demo.jpg","true","0","80_20_practice",""
"","bandit","26","199289","0.0-18.0-8.0","92643990","wem/bandit_party_1","A13JDX06ZXN4KJ","either","3","322","","","","","","","0","1","0","","0.8","0.5","0.5","","","0.8","0.2","","","","","","","","","","","","","","","","74","J","0","img/none_selected_demo.jpg","true","0","80_20_practice",""
"","bandit","27","201544","0.0-18.0-9.0","92643990","wem/bandit_party_1","A13JDX06ZXN4KJ","either","3","750","","","","","","","0","1","0","","0.8","0.5","0.5","","","0.8","0.2","","","","","","","","","","","","","","","","74","J","0","img/none_selected_demo.jpg","true","0","80_20_practice",""
"","bandit","28","203501","0.0-18.0-10.0","92643990","wem/bandit_party_1","A13JDX06ZXN4KJ","either","3","449","","","","","","","0","1","0","","0.8","0.5","0.5","","","0.8","0.2","","","","","","","","","","","","","","","","74","J","0","img/none_selected_demo.jpg","true","0","80_20_practice",""
"","bandit","29","205434","0.0-18.0-11.0","92643990","wem/bandit_party_1","A13JDX06ZXN4KJ","either","3","426","","","","","","","0","1","0","","0.8","0.5","0.5","","","0.8","0.2","","","","","","","","","","","","","","","","74","J","0","img/none_selected_demo.jpg","true","0","80_20_practice",""
"","bandit","30","207405","0.0-18.0-12.0","92643990","wem/bandit_party_1","A13JDX06ZXN4KJ","either","3","463","","","","","","","0","1","0","","0.8","0.5","0.5","","","0.8","0.2","","","","","","","","","","","","","","","","74","J","0","img/none_selected_demo.jpg","true","0","80_20_practice",""
"","bandit","31","209313","0.0-18.0-13.0","92643990","wem/bandit_party_1","A13JDX06ZXN4KJ","either","3","399","","","","","","","1","0","0","0.8","","0.5","0.5","","","","","","","0.8","0.2","","","","","","","","","","","","74","J","0","img/none_selected_demo.jpg","true","0","80_20_practice",""
"","bandit","32","210833","0.0-18.0-14.0","92643990","wem/bandit_party_1","A13JDX06ZXN4KJ","either","3","8","","","","","","","0","1","0","","0.8","0.5","0.5","","","0.8","0.2","","","","","","","","","","","","","","","","74","J","0","img/none_selected_demo.jpg","true","0","80_20_practice",""
"","bandit","33","214439","0.0-18.0-15.0","92643990","wem/bandit_party_1","A13JDX06ZXN4KJ","either","3","2099","","","","","","","0","1","0","","0.8","0.5","0.5","","","0.8","0.2","","","","","","","","","","","","","","","","74","J","0","img/none_selected_demo.jpg","true","0","80_20_practice",""
"","bandit","34","216325","0.0-18.0-16.0","92643990","wem/bandit_party_1","A13JDX06ZXN4KJ","either","3","377","","","","","","","0","1","0","","0.8","0.5","0.5","","","0.8","0.2","","","","","","","","","","","","","","","","74","J","0","img/none_selected_demo.jpg","true","0","80_20_practice",""
"","bandit","35","218175","0.0-18.0-17.0","92643990","wem/bandit_party_1","A13JDX06ZXN4KJ","either","3","338","","","","","","","0","0","1","0.8","","0.5","0.5","","","","","","","0.8","0.2","","","","","","","","","","","","74","J","0","img/none_selected_demo.jpg","true","0","80_20_practice",""
"","bandit","36","220125","0.0-18.0-18.0","92643990","wem/bandit_party_1","A13JDX06ZXN4KJ","either","3","439","","","","","","","0","1","0","","0.8","0.5","0.5","","","0.8","0.2","","","","","","","","","","","","","","","","74","J","0","img/none_selected_demo.jpg","true","0","80_20_practice",""
"","bandit","37","222050","0.0-18.0-19.0","92643990","wem/bandit_party_1","A13JDX06ZXN4KJ","either","3","418","","","","","","","1","0","0","0.8","","0.5","0.5","","","","","","","0.8","0.2","","","","","","","","","","","","74","J","0","img/none_selected_demo.jpg","true","0","80_20_practice",""
"","text-replacement","38","228386","0.0-19.0","92643990","wem/bandit_party_1","A13JDX06ZXN4KJ","either","3","6334","","","32","","","","","","","","","","","","","","","","","","","","","","","","","","","","","","","","","","","","",""
"","bandit","39","232016","0.0-20.0-0.0","92643990","wem/bandit_party_1","A13JDX06ZXN4KJ","either","3","2121","","","","","","","1","0","0","1","0","","","","","0","1","","","1","0","","","","","","","","","","","","74","J","0","img/none_selected_demo.jpg","true","0","",""
"","text-replacement","40","237516","0.0-21.0","92643990","wem/bandit_party_1","A13JDX06ZXN4KJ","either","3","5495","","","32","","","","","","","","","","","","","","","","","","","","","","","","","","","","","","","","","","","","",""
"","text-replacement","41","240821","0.0-22.0","92643990","wem/bandit_party_1","A13JDX06ZXN4KJ","either","3","3302","","","32","","","","","","","","","","","","","","","","","","","","","","","","","","","","","","","","","","","","",""
"","text-replacement","42","243654","0.0-23.0","92643990","wem/bandit_party_1","A13JDX06ZXN4KJ","either","3","2828","","","32","","","","","","","","","","","","","","","","","","","","","","","","","","","","","","","","","","","","",""
"","text-replacement","43","246082","0.0-24.0","92643990","wem/bandit_party_1","A13JDX06ZXN4KJ","either","3","2424","","","32","","","","","","","","","","","","","","","","","","","","","","","","","","","","","","","","","","","","",""
"","text-replacement","44","251569","0.0-25.0","92643990","wem/bandit_party_1","A13JDX06ZXN4KJ","either","3","5485","","","32","","","","","","","","","","","","","","","","","","","","","","","","","","","","","","","","","","","","",""
"","text-replacement","45","254014","0.0-26.0","92643990","wem/bandit_party_1","A13JDX06ZXN4KJ","either","3","2442","","","32","","","","","","","","","","","","","","","","","","","","","","","","","","","","","","","","","","","","",""
"","text-replacement","46","257823","0.0-27.0","92643990","wem/bandit_party_1","A13JDX06ZXN4KJ","either","3","3805","","","32","","","","","","","","","","","","","","","","","","","","","","","","","","","","","","","","","","","","",""
"","text-replacement","47","260958","0.0-28.0","92643990","wem/bandit_party_1","A13JDX06ZXN4KJ","either","3","3133","","","32","","","","","","","","","","","","","","","","","","","","","","","","","","","","","","","","","","","","",""
"","text-replacement","48","266809","0.0-29.0","92643990","wem/bandit_party_1","A13JDX06ZXN4KJ","either","3","5848","","","32","","","","","","","","","","","","","","","","","","","","","","","","","","","","","","","","","","","","",""
"","text-replacement","49","268417","0.0-30.0","92643990","wem/bandit_party_1","A13JDX06ZXN4KJ","either","3","1605","","","32","","","","","","","","","","","","","","","","","","","","","","","","","","","","","","","","","","","","",""
"","text-replacement","50","272496","0.0-31.0","92643990","wem/bandit_party_1","A13JDX06ZXN4KJ","either","3","4076","","","32","","","","","","","","","","","","","","","","","","","","","","","","","","","","","","","","","","","","",""
"","bandit","51","274680","0.0-32.0-0.0","92643990","wem/bandit_party_1","A13JDX06ZXN4KJ","either","3","675","","","","","","","0","0","1","0.8","","0.5","0.5","0.5","0.5","","","","","0.8","0.2","0.6","0.2","","","","","","","","","","72","H","0","img/none_selected.jpg","true","0","full_practice",""
"","bandit","52","276646","0.0-32.0-1.0","92643990","wem/bandit_party_1","A13JDX06ZXN4KJ","either","3","457","","","","","","","0","0","1","0.2","","0.5","0.5","0.5","0.5","","","","","0.8","0.2","0.6","0.2","","","","","","","","","","74","J","1","","true","0","full_practice",""
"","bandit","53","279458","0.0-32.0-2.0","92643990","wem/bandit_party_1","A13JDX06ZXN4KJ","either","3","1303","","","","","","","0","0","1","","0.6","0.5","0.5","0.5","0.5","0.8","0.2","0.6","0.2","","","","","","","","","","","","","","75","K","2","","true","0","full_practice",""
"","bandit","54","281307","0.0-32.0-3.0","92643990","wem/bandit_party_1","A13JDX06ZXN4KJ","either","3","340","","","","","","","0","0","1","","0.2","0.5","0.5","0.5","0.5","0.8","0.2","0.6","0.2","","","","","","","","","","","","","","76","L","3","","true","0","full_practice",""
"","bandit","55","283399","0.0-32.0-4.0","92643990","wem/bandit_party_1","A13JDX06ZXN4KJ","either","3","584","","","","","","","0","0","1","0.2","","0.5","0.5","0.5","0.5","","","","","0.8","0.2","0.6","0.2","","","","","","","","","","76","L","3","","true","0","full_practice",""
"","bandit","56","285695","0.0-32.0-5.0","92643990","wem/bandit_party_1","A13JDX06ZXN4KJ","either","3","787","","","","","","","0","0","1","0.6","","0.5","0.5","0.5","0.5","","","","","0.8","0.2","0.6","0.2","","","","","","","","","","75","K","2","","true","0","full_practice",""
"","bandit","57","287808","0.0-32.0-6.0","92643990","wem/bandit_party_1","A13JDX06ZXN4KJ","either","3","603","","","","","","","0","0","1","0.2","","0.5","0.5","0.5","0.5","","","","","0.8","0.2","0.6","0.2","","","","","","","","","","74","J","1","","true","0","full_practice",""
"","bandit","58","289522","0.0-32.0-7.0","92643990","wem/bandit_party_1","A13JDX06ZXN4KJ","either","3","206","","","","","","","1","0","0","0.8","","0.5","0.5","0.5","0.5","","","","","0.8","0.2","0.6","0.2","","","","","","","","","","72","H","0","img/none_selected.jpg","true","0","full_practice",""
"","bandit","59","291519","0.0-32.0-8.0","92643990","wem/bandit_party_1","A13JDX06ZXN4KJ","either","3","487","","","","","","","0","1","0","","0.8","0.5","0.5","0.5","0.5","0.8","0.2","0.6","0.2","","","","","","","","","","","","","","72","H","0","img/none_selected.jpg","true","0","full_practice",""
"","bandit","60","293402","0.0-32.0-9.0","92643990","wem/bandit_party_1","A13JDX06ZXN4KJ","either","3","375","","","","","","","0","1","0","","0.8","0.5","0.5","0.5","0.5","0.8","0.2","0.6","0.2","","","","","","","","","","","","","","72","H","0","img/none_selected.jpg","true","0","full_practice",""
"","bandit","61","295409","0.0-32.0-10.0","92643990","wem/bandit_party_1","A13JDX06ZXN4KJ","either","3","501","","","","","","","1","0","0","0.8","","0.5","0.5","0.5","0.5","","","","","0.8","0.2","0.6","0.2","","","","","","","","","","72","H","0","img/none_selected.jpg","true","0","full_practice",""
"","bandit","62","297396","0.0-32.0-11.0","92643990","wem/bandit_party_1","A13JDX06ZXN4KJ","either","3","477","","","","","","","0","1","0","","0.8","0.5","0.5","0.5","0.5","0.8","0.2","0.6","0.2","","","","","","","","","","","","","","72","H","0","img/none_selected.jpg","true","0","full_practice",""
"","bandit","63","299315","0.0-32.0-12.0","92643990","wem/bandit_party_1","A13JDX06ZXN4KJ","either","3","412","","","","","","","1","0","0","0.8","","0.5","0.5","0.5","0.5","","","","","0.8","0.2","0.6","0.2","","","","","","","","","","72","H","0","img/none_selected.jpg","true","0","full_practice",""
"","bandit","64","301288","0.0-32.0-13.0","92643990","wem/bandit_party_1","A13JDX06ZXN4KJ","either","3","464","","","","","","","1","0","0","0.8","","0.5","0.5","0.5","0.5","","","","","0.8","0.2","0.6","0.2","","","","","","","","","","72","H","0","img/none_selected.jpg","true","0","full_practice",""
"","bandit","65","303119","0.0-32.0-14.0","92643990","wem/bandit_party_1","A13JDX06ZXN4KJ","either","3","323","","","","","","","0","0","1","0.8","","0.5","0.5","0.5","0.5","","","","","0.8","0.2","0.6","0.2","","","","","","","","","","72","H","0","img/none_selected.jpg","true","0","full_practice",""
"","bandit","66","305026","0.0-32.0-15.0","92643990","wem/bandit_party_1","A13JDX06ZXN4KJ","either","3","399","","","","","","","0","0","1","0.2","","0.5","0.5","0.5","0.5","","","","","0.8","0.2","0.6","0.2","","","","","","","","","","74","J","1","","true","0","full_practice",""
"","bandit","67","307350","0.0-32.0-16.0","92643990","wem/bandit_party_1","A13JDX06ZXN4KJ","either","3","814","","","","","","","0","1","0","","0.6","0.5","0.5","0.5","0.5","0.8","0.2","0.6","0.2","","","","","","","","","","","","","","75","K","2","","true","0","full_practice",""
"","bandit","68","309204","0.0-32.0-17.0","92643990","wem/bandit_party_1","A13JDX06ZXN4KJ","either","3","345","","","","","","","1","0","0","0.6","","0.5","0.5","0.5","0.5","","","","","0.8","0.2","0.6","0.2","","","","","","","","","","75","K","2","","true","0","full_practice",""
"","bandit","69","311102","0.0-32.0-18.0","92643990","wem/bandit_party_1","A13JDX06ZXN4KJ","either","3","389","","","","","","","0","0","1","","0.6","0.5","0.5","0.5","0.5","0.8","0.2","0.6","0.2","","","","","","","","","","","","","","75","K","2","","true","0","full_practice",""
"","bandit","70","312968","0.0-32.0-19.0","92643990","wem/bandit_party_1","A13JDX06ZXN4KJ","either","3","355","","","","","","","0","0","1","","0.6","0.5","0.5","0.5","0.5","0.8","0.2","0.6","0.2","","","","","","","","","","","","","","75","K","2","","true","0","full_practice",""
"","text","71","316063","0.0-33.0","92643990","wem/bandit_party_1","A13JDX06ZXN4KJ","either","3","3078","","","32","","","","","","","","","","","","","","","","","","","","","","","","","","","","","","","","","","","","",""
"","text-replacement","72","326321","0.0-34.0","92643990","wem/bandit_party_1","A13JDX06ZXN4KJ","either","3","9254","","","32","","","","","","","","","","","","","","","","","","","","","","","","","","","","","","","","","","","","",""
"","text-replacement","73","339967","0.0-35.0","92643990","wem/bandit_party_1","A13JDX06ZXN4KJ","either","3","13643","","","32","","","","","","","","","","","","","","","","","","","","","","","","","","","","","","","","","","","","",""
"","text-replacement","74","367795","0.0-36.0","92643990","wem/bandit_party_1","A13JDX06ZXN4KJ","either","3","27823","","","32","","","","","","","","","","","","","","","","","","","","","","","","","","","","","","","","","","","","",""
"","text-replacement","75","370525","0.0-37.0","92643990","wem/bandit_party_1","A13JDX06ZXN4KJ","either","3","2727","","","32","","","","","","","","","","","","","","","","","","","","","","","","","","","","","","","","","","","","",""
"","text-replacement","76","372886","0.0-38.0","92643990","wem/bandit_party_1","A13JDX06ZXN4KJ","either","3","2358","","","32","","","","","","","","","","","","","","","","","","","","","","","","","","","","","","","","","","","","",""
"","survey-multi-choice-replacement","77","377149","0.0-39.0-0.0","92643990","wem/bandit_party_1","A13JDX06ZXN4KJ","either","3","4252","","","","","","","","","","","","","","","","","","","","","","","","Money will be added to the pool for <span style='color:blue;'>DEMOCRATS</span>","","","","","","","attn_check","","","","","","","","","0"
"","survey-multi-choice-replacement","78","384667","0.0-40.0-0.0","92643990","wem/bandit_party_1","A13JDX06ZXN4KJ","either","3","6503","","","","","","","","","","","","","","","","","","","","","","","","Equal amounts of money will be added to the pool for <span style='color:blue;'>DEMOCRATS</span> and subtracted from the pool for <span style='color:red;'>REPUBLICANS</span>","","","","","","","attn_check","","","","","","","","","2"
"","survey-multi-choice-replacement","79","387923","0.0-41.0-0.0","92643990","wem/bandit_party_1","A13JDX06ZXN4KJ","either","3","2241","","","","","","","","","","","","","","","","","","","","","","","","No money will be added to either pool","","","","","","","attn_check","","","","","","","","","3"
"","bandit","80","395786","0.0-42.0-0.0","92643990","wem/bandit_party_1","A13JDX06ZXN4KJ","either","3","5343","","","","","","","0","0","1","","0.1646489015","0.2","0.8","0.4","0.6","0.1646489015","0.4870892339","0.07685641067","0.1426046982","","","","","","","","","","","","","","72","H","0","img/none_selected.jpg","","1","main_expt",""
"","bandit","81","398140","0.0-43.0-0.0","92643990","wem/bandit_party_1","A13JDX06ZXN4KJ","either","3","845","","","","","","","1","0","0","0.4875162112","","0.2","0.8","0.4","0.6","","","","","0.2180431119","0.4875162112","0.08388143876","0.1597004976","","","","","","","","","","74","J","1","","","2","main_expt",""
"","bandit","82","400132","0.0-44.0-0.0","92643990","wem/bandit_party_1","A13JDX06ZXN4KJ","either","3","484","","","","","","","1","0","0","0.4909945117","","0.2","0.8","0.4","0.6","","","","","0.2294217256","0.4909945117","0.06528774038","0.1381850853","","","","","","","","","","74","J","1","","","3","main_expt",""
"","bandit","83","402400","0.0-45.0-0.0","92643990","wem/bandit_party_1","A13JDX06ZXN4KJ","either","3","758","","","","","","","1","0","0","0.482579304","","0.2","0.8","0.4","0.6","","","","","0.2162119515","0.482579304","0.07987899881","0.1787932262","","","","","","","","","","74","J","1","","","4","main_expt",""
"","bandit","84","404327","0.0-46.0-0.0","92643990","wem/bandit_party_1","A13JDX06ZXN4KJ","either","3","419","","","","","","","0","0","1","0.4887913002","","0.2","0.8","0.4","0.6","","","","","0.2246316054","0.4887913002","0.0432391811","0.1795032464","","","","","","","","","","74","J","1","","","5","main_expt",""
"","bandit","85","406421","0.0-47.0-0.0","92643990","wem/bandit_party_1","A13JDX06ZXN4KJ","either","3","585","","","","","","","1","0","0","0.4887860333","","0.2","0.8","0.4","0.6","","","","","0.2061018479","0.4887860333","0.03467601655","0.164375756","","","","","","","","","","74","J","1","","","6","main_expt",""
"","bandit","86","408445","0.0-48.0-0.0","92643990","wem/bandit_party_1","A13JDX06ZXN4KJ","either","3","516","","","","","","","1","0","0","0.4901971563","","0.2","0.8","0.4","0.6","","","","","0.1795347326","0.4901971563","0.05033951668","0.204957223","","","","","","","","","","74","J","1","","","7","main_expt",""
"","bandit","87","410443","0.0-49.0-0.0","92643990","wem/bandit_party_1","A13JDX06ZXN4KJ","either","3","488","","","","","","","1","0","0","0.4862230721","","0.2","0.8","0.4","0.6","","","","","0.1290452752","0.4862230721","0.07676355645","0.2162036531","","","","","","","","","","74","J","1","","","8","main_expt",""
"","bandit","88","412418","0.0-50.0-0.0","92643990","wem/bandit_party_1","A13JDX06ZXN4KJ","either","3","464","","","","","","","1","0","0","0.4759730645","","0.2","0.8","0.4","0.6","","","","","0.1559184374","0.4759730645","0.08620859221","0.2167418122","","","","","","","","","","74","J","1","","","9","main_expt",""
"","bandit","89","414407","0.0-51.0-0.0","92643990","wem/bandit_party_1","A13JDX06ZXN4KJ","either","3","481","","","","","","","0","0","1","0.4560980466","","0.2","0.8","0.4","0.6","","","","","0.1381514788","0.4560980466","0.1103839657","0.1607923637","","","","","","","","","","74","J","1","","","10","main_expt",""
"","bandit","90","416440","0.0-52.0-0.0","92643990","wem/bandit_party_1","A13JDX06ZXN4KJ","either","3","523","","","","","","","0","0","1","0.4775116046","","0.2","0.8","0.4","0.6","","","","","0.1271140015","0.4775116046","0.1334948588","0.1386410957","","","","","","","","","","74","J","1","","","11","main_expt",""
"","bandit","91","418585","0.0-53.0-0.0","92643990","wem/bandit_party_1","A13JDX06ZXN4KJ","either","3","636","","","","","","","0","1","0","","0.4705073552","0.2","0.8","0.4","0.6","0.1854664659","0.4705073552","0.1535602519","0.1718380738","","","","","","","","","","","","","","74","J","1","","","12","main_expt",""
"","bandit","92","420568","0.0-54.0-0.0","92643990","wem/bandit_party_1","A13JDX06ZXN4KJ","either","3","471","","","","","","","0","0","1","0.4851887342","","0.2","0.8","0.4","0.6","","","","","0.1869952656","0.4851887342","0.127854239","0.1686303413","","","","","","","","","","74","J","1","","","13","main_expt",""
"","bandit","93","422465","0.0-55.0-0.0","92643990","wem/bandit_party_1","A13JDX06ZXN4KJ","either","3","385","","","","","","","0","0","1","","0.1460019496","0.2","0.8","0.4","0.6","0.2035171393","0.4731273917","0.1507911491","0.1460019496","","","","","","","","","","","","","","76","L","3","","","14","main_expt",""
"","bandit","94","426493","0.0-56.0-0.0","92643990","wem/bandit_party_1","A13JDX06ZXN4KJ","either","3","2506","","","","","","","0","0","1","0.1667614464","","0.2","0.8","0.4","0.6","","","","","0.2800299461","0.4585867004","0.1741212098","0.1667614464","","","","","","","","","","76","L","3","","","15","main_expt",""
"","bandit","95","428906","0.0-57.0-0.0","92643990","wem/bandit_party_1","A13JDX06ZXN4KJ","either","3","904","","","","","","","0","0","1","","0.4366533258","0.2","0.8","0.4","0.6","0.2725454461","0.4366533258","0.1918308831","0.1973644546","","","","","","","","","","","","","","74","J","1","","","16","main_expt",""
"","bandit","96","430943","0.0-58.0-0.0","92643990","wem/bandit_party_1","A13JDX06ZXN4KJ","either","3","527","","","","","","","0","0","1","","0.1570621471","0.2","0.8","0.4","0.6","0.1570621471","0.4405228744","0.1950212473","0.1873415792","","","","","","","","","","","","","","72","H","0","img/none_selected.jpg","","17","main_expt",""
"","bandit","97","432812","0.0-59.0-0.0","92643990","wem/bandit_party_1","A13JDX06ZXN4KJ","either","3","360","","","","","","","0","0","1","","0.1968188506","0.2","0.8","0.4","0.6","0.1968188506","0.4678551263","0.2094813194","0.1875860444","","","","","","","","","","","","","","72","H","0","img/none_selected.jpg","","18","main_expt",""
"","bandit","98","434908","0.0-60.0-0.0","92643990","wem/bandit_party_1","A13JDX06ZXN4KJ","either","3","589","","","","","","","0","0","1","0.466140525","","0.2","0.8","0.4","0.6","","","","","0.2439518204","0.466140525","0.2628959394","0.1988439388","","","","","","","","","","74","J","1","","","19","main_expt",""
"","bandit","99","436819","0.0-61.0-0.0","92643990","wem/bandit_party_1","A13JDX06ZXN4KJ","either","3","402","","","","","","","0","0","1","0.4094087999","","0.2","0.8","0.4","0.6","","","","","0.2806117898","0.4094087999","0.2116504525","0.1813993393","","","","","","","","","","74","J","1","","","20","main_expt",""
"","bandit","100","438708","0.0-62.0-0.0","92643990","wem/bandit_party_1","A13JDX06ZXN4KJ","either","3","377","","","","","","","0","0","1","0.1904426465","","0.2","0.8","0.4","0.6","","","","","0.2658005831","0.4386974508","0.1904426465","0.2012004452","","","","","","","","","","75","K","2","","","21","main_expt",""
"","bandit","101","440644","0.0-63.0-0.0","92643990","wem/bandit_party_1","A13JDX06ZXN4KJ","either","3","430","","","","","","","0","0","1","","0.1581796968","0.2","0.8","0.4","0.6","0.2774390086","0.4505723784","0.1581796968","0.1958646163","","","","","","","","","","","","","","75","K","2","","","22","main_expt",""
"","bandit","102","442529","0.0-64.0-0.0","92643990","wem/bandit_party_1","A13JDX06ZXN4KJ","either","3","376","","","","","","","0","0","1","","0.2626819079","0.2","0.8","0.4","0.6","0.2795917474","0.4568000239","0.2039009352","0.2626819079","","","","","","","","","","","","","","76","L","3","","","23","main_expt",""
"","bandit","103","444403","0.0-65.0-0.0","92643990","wem/bandit_party_1","A13JDX06ZXN4KJ","either","3","363","","","","","","","0","0","1","","0.2906682881","0.2","0.8","0.4","0.6","0.2981059477","0.4518339256","0.228339491","0.2906682881","","","","","","","","","","","","","","76","L","3","","","24","main_expt",""
"","bandit","104","446269","0.0-66.0-0.0","92643990","wem/bandit_party_1","A13JDX06ZXN4KJ","either","3","328","","","","","","","0","0","1","","0.3270173502","0.2","0.8","0.4","0.6","0.3272059922","0.4120159309","0.2602465224","0.3270173502","","","","","","","","","","","","","","76","L","3","","","25","main_expt",""
"","bandit","105","448128","0.0-67.0-0.0","92643990","wem/bandit_party_1","A13JDX06ZXN4KJ","either","3","349","","","","","","","0","0","1","0.2951289915","","0.2","0.8","0.4","0.6","","","","","0.3369826645","0.4134154185","0.1939420306","0.2951289915","","","","","","","","","","76","L","3","","","26","main_expt",""
"","bandit","106","450010","0.0-68.0-0.0","92643990","wem/bandit_party_1","A13JDX06ZXN4KJ","either","3","374","","","","","","","0","0","1","0.2387331149","","0.2","0.8","0.4","0.6","","","","","0.2531212506","0.4031068294","0.2387331149","0.3520126272","","","","","","","","","","75","K","2","","","27","main_expt",""
"","bandit","107","451914","0.0-69.0-0.0","92643990","wem/bandit_party_1","A13JDX06ZXN4KJ","either","3","372","","","","","","","0","0","1","0.2183458617","","0.2","0.8","0.4","0.6","","","","","0.2170461037","0.4305883772","0.2183458617","0.3369287003","","","","","","","","","","75","K","2","","","28","main_expt",""
"","bandit","108","453792","0.0-70.0-0.0","92643990","wem/bandit_party_1","A13JDX06ZXN4KJ","either","3","369","","","","","","","1","0","0","0.4383329838","","0.2","0.8","0.4","0.6","","","","","0.2346211465","0.4383329838","0.2151501268","0.3591799128","","","","","","","","","","74","J","1","","","29","main_expt",""
"","bandit","109","455709","0.0-71.0-0.0","92643990","wem/bandit_party_1","A13JDX06ZXN4KJ","either","3","406","","","","","","","1","0","0","0.4233276099","","0.2","0.8","0.4","0.6","","","","","0.2450860663","0.4233276099","0.2267233056","0.3324285477","","","","","","","","","","74","J","1","","","30","main_expt",""
"","bandit","110","457644","0.0-72.0-0.0","92643990","wem/bandit_party_1","A13JDX06ZXN4KJ","either","3","424","","","","","","","0","0","1","0.4016185005","","0.2","0.8","0.4","0.6","","","","","0.2141169407","0.4016185005","0.2663701676","0.327032362","","","","","","","","","","74","J","1","","","31","main_expt",""
"","bandit","111","459529","0.0-73.0-0.0","92643990","wem/bandit_party_1","A13JDX06ZXN4KJ","either","3","378","","","","","","","0","0","1","0.4134940178","","0.2","0.8","0.4","0.6","","","","","0.2347854155","0.4134940178","0.275969473","0.3230905041","","","","","","","","","","74","J","1","","","32","main_expt",""
"","bandit","112","461424","0.0-74.0-0.0","92643990","wem/bandit_party_1","A13JDX06ZXN4KJ","either","3","385","","","","","","","0","0","1","0.4331174495","","0.2","0.8","0.4","0.6","","","","","0.246596708","0.4331174495","0.3365270118","0.2969008969","","","","","","","","","","74","J","1","","","33","main_expt",""
"","bandit","113","463271","0.0-75.0-0.0","92643990","wem/bandit_party_1","A13JDX06ZXN4KJ","either","3","336","","","","","","","0","0","1","","0.4454497031","0.2","0.8","0.4","0.6","0.1914370393","0.4454497031","0.2916301021","0.2536392951","","","","","","","","","","","","","","74","J","1","","","34","main_expt",""
"","bandit","114","465133","0.0-76.0-0.0","92643990","wem/bandit_party_1","A13JDX06ZXN4KJ","either","3","352","","","","","","","0","0","1","","0.1408207185","0.2","0.8","0.4","0.6","0.1408207185","0.4419706984","0.3236538836","0.2336030597","","","","","","","","","","","","","","72","H","0","img/none_selected.jpg","","35","main_expt",""
"","bandit","115","466971","0.0-77.0-0.0","92643990","wem/bandit_party_1","A13JDX06ZXN4KJ","either","3","326","","","","","","","0","0","1","0.09539735145","","0.2","0.8","0.4","0.6","","","","","0.09539735145","0.4205940312","0.3317439785","0.3110392291","","","","","","","","","","72","H","0","img/none_selected.jpg","","36","main_expt",""
"","bandit","116","468844","0.0-78.0-0.0","92643990","wem/bandit_party_1","A13JDX06ZXN4KJ","either","3","360","","","","","","","0","0","1","","0.08867332122","0.2","0.8","0.4","0.6","0.08867332122","0.4227305347","0.3620900841","0.3354302382","","","","","","","","","","","","","","72","H","0","img/none_selected.jpg","","37","main_expt",""
"","bandit","117","470680","0.0-79.0-0.0","92643990","wem/bandit_party_1","A13JDX06ZXN4KJ","either","3","328","","","","","","","0","0","1","","0.3904174821","0.2","0.8","0.4","0.6","0.0804097964","0.3904174821","0.3649119955","0.3359947902","","","","","","","","","","","","","","74","J","1","","","38","main_expt",""
"","bandit","118","472543","0.0-80.0-0.0","92643990","wem/bandit_party_1","A13JDX06ZXN4KJ","either","3","355","","","","","","","0","0","1","0.3993258453","","0.2","0.8","0.4","0.6","","","","","0.1092906338","0.3704092514","0.3993258453","0.3719467902","","","","","","","","","","75","K","2","","","39","main_expt",""
"","bandit","119","474393","0.0-81.0-0.0","92643990","wem/bandit_party_1","A13JDX06ZXN4KJ","either","3","341","","","","","","","0","0","1","0.3250394812","","0.2","0.8","0.4","0.6","","","","","0.08771014895","0.3250394812","0.43145226","0.37180955","","","","","","","","","","74","J","1","","","40","main_expt",""
"","bandit","120","476211","0.0-82.0-0.0","92643990","wem/bandit_party_1","A13JDX06ZXN4KJ","either","3","311","","","","","","","0","0","1","0.3633775572","","0.2","0.8","0.4","0.6","","","","","0.1065106481","0.3633775572","0.3925837484","0.3972707938","","","","","","","","","","74","J","1","","","41","main_expt",""
"","bandit","121","478059","0.0-83.0-0.0","92643990","wem/bandit_party_1","A13JDX06ZXN4KJ","either","3","338","","","","","","","0","0","1","0.3708570881","","0.2","0.8","0.4","0.6","","","","","0.0926848955","0.3708570881","0.4020613291","0.3981555674","","","","","","","","","","74","J","1","","","42","main_expt",""
"","bandit","122","479907","0.0-84.0-0.0","92643990","wem/bandit_party_1","A13JDX06ZXN4KJ","either","3","340","","","","","","","0","0","1","","0.3698022864","0.2","0.8","0.4","0.6","0.09213729174","0.3852030547","0.4199094288","0.3698022864","","","","","","","","","","","","","","76","L","3","","","43","main_expt",""
"","bandit","123","481676","0.0-85.0-0.0","92643990","wem/bandit_party_1","A13JDX06ZXN4KJ","either","3","262","","","","","","","0","0","1","","0.3278340923","0.2","0.8","0.4","0.6","0.0950319608","0.3653477133","0.4362917367","0.3278340923","","","","","","","","","","","","","","76","L","3","","","44","main_expt",""
"","bandit","124","483546","0.0-86.0-0.0","92643990","wem/bandit_party_1","A13JDX06ZXN4KJ","either","3","360","","","","","","","0","0","1","0.4004869948","","0.2","0.8","0.4","0.6","","","","","0.07917944011","0.3423722135","0.4310393502","0.4004869948","","","","","","","","","","76","L","3","","","45","main_expt",""
"","bandit","125","485420","0.0-87.0-0.0","92643990","wem/bandit_party_1","A13JDX06ZXN4KJ","either","3","363","","","","","","","1","0","0","0.4389658195","","0.2","0.8","0.4","0.6","","","","","0.08528552535","0.2713785315","0.4301719659","0.4389658195","","","","","","","","","","76","L","3","","","46","main_expt",""
"","bandit","126","487296","0.0-88.0-0.0","92643990","wem/bandit_party_1","A13JDX06ZXN4KJ","either","3","366","","","","","","","1","0","0","0.4294918489","","0.2","0.8","0.4","0.6","","","","","0.08303267599","0.2675382036","0.4274268526","0.4294918489","","","","","","","","","","76","L","3","","","47","main_expt",""
"","bandit","127","489134","0.0-89.0-0.0","92643990","wem/bandit_party_1","A13JDX06ZXN4KJ","either","3","329","","","","","","","0","0","1","","0.3948346084","0.2","0.8","0.4","0.6","0.1183490009","0.3006553151","0.4559220927","0.3948346084","","","","","","","","","","","","","","76","L","3","","","48","main_expt",""
"","bandit","128","490953","0.0-90.0-0.0","92643990","wem/bandit_party_1","A13JDX06ZXN4KJ","either","3","308","","","","","","","0","1","0","","0.4226663974","0.2","0.8","0.4","0.6","0.09831357925","0.2865645246","0.4362936898","0.4226663974","","","","","","","","","","","","","","76","L","3","","","49","main_expt",""
"","bandit","129","492789","0.0-91.0-0.0","92643990","wem/bandit_party_1","A13JDX06ZXN4KJ","either","3","327","","","","","","","0","0","1","0.3943232949","","0.2","0.8","0.4","0.6","","","","","0.0896163698","0.2842330123","0.4001593617","0.3943232949","","","","","","","","","","76","L","3","","","50","main_expt",""
"","bandit","130","494607","0.0-92.0-0.0","92643990","wem/bandit_party_1","A13JDX06ZXN4KJ","either","3","305","","","","","","","1","0","0","0.3911898034","","0.2","0.8","0.4","0.6","","","","","0.08239790895","0.2933637591","0.3737598101","0.3911898034","","","","","","","","","","76","L","3","","","51","main_expt",""
"","bandit","131","496419","0.0-93.0-0.0","92643990","wem/bandit_party_1","A13JDX06ZXN4KJ","either","3","299","","","","","","","0","0","1","","0.3897106723","0.2","0.8","0.4","0.6","0.06509061927","0.2802127762","0.3490564905","0.3897106723","","","","","","","","","","","","","","76","L","3","","","52","main_expt",""
"","bandit","132","498238","0.0-94.0-0.0","92643990","wem/bandit_party_1","A13JDX06ZXN4KJ","either","3","310","","","","","","","0","0","1","0.3977919118","","0.2","0.8","0.4","0.6","","","","","0.05503049918","0.2567133084","0.3606416198","0.3977919118","","","","","","","","","","76","L","3","","","53","main_expt",""
"","bandit","133","500026","0.0-95.0-0.0","92643990","wem/bandit_party_1","A13JDX06ZXN4KJ","either","3","278","","","","","","","0","0","1","0.3803623479","","0.2","0.8","0.4","0.6","","","","","0.06606451817","0.304436262","0.3920172378","0.3803623479","","","","","","","","","","76","L","3","","","54","main_expt",""
"","bandit","134","501853","0.0-96.0-0.0","92643990","wem/bandit_party_1","A13JDX06ZXN4KJ","either","3","317","","","","","","","0","0","1","","0.3898030924","0.2","0.8","0.4","0.6","0.0812436444","0.3050376594","0.3841867886","0.3898030924","","","","","","","","","","","","","","76","L","3","","","55","main_expt",""
"","bandit","135","503707","0.0-97.0-0.0","92643990","wem/bandit_party_1","A13JDX06ZXN4KJ","either","3","345","","","","","","","1","0","0","0.4332266089","","0.2","0.8","0.4","0.6","","","","","0.05752214818","0.2874076515","0.3752679739","0.4332266089","","","","","","","","","","76","L","3","","","56","main_expt",""
"","bandit","136","505549","0.0-98.0-0.0","92643990","wem/bandit_party_1","A13JDX06ZXN4KJ","either","3","332","","","","","","","0","0","1","","0.4598680415","0.2","0.8","0.4","0.6","0.05957573693","0.2633226407","0.3595388075","0.4598680415","","","","","","","","","","","","","","76","L","3","","","57","main_expt",""
"","bandit","137","507405","0.0-99.0-0.0","92643990","wem/bandit_party_1","A13JDX06ZXN4KJ","either","3","345","","","","","","","0","0","1","0.4510058242","","0.2","0.8","0.4","0.6","","","","","0.08347810371","0.282557186","0.2926617498","0.4510058242","","","","","","","","","","76","L","3","","","58","main_expt",""
"","bandit","138","509293","0.0-100.0-0.0","92643990","wem/bandit_party_1","A13JDX06ZXN4KJ","either","3","380","","","","","","","1","0","0","0.2854140482","","0.2","0.8","0.4","0.6","","","","","0.1166757522","0.2675679041","0.2854140482","0.4587464736","","","","","","","","","","75","K","2","","","59","main_expt",""
"","bandit","139","511129","0.0-101.0-0.0","92643990","wem/bandit_party_1","A13JDX06ZXN4KJ","either","3","326","","","","","","","1","0","0","0.2767785787","","0.2","0.8","0.4","0.6","","","","","0.1223048521","0.2654645802","0.2767785787","0.4534111386","","","","","","","","","","75","K","2","","","60","main_expt",""
"","bandit","140","512947","0.0-102.0-0.0","92643990","wem/bandit_party_1","A13JDX06ZXN4KJ","either","3","308","","","","","","","0","1","0","","0.3110110239","0.2","0.8","0.4","0.6","0.1341525672","0.2326588137","0.3110110239","0.4581751116","","","","","","","","","","","","","","75","K","2","","","61","main_expt",""
"","bandit","141","514767","0.0-103.0-0.0","92643990","wem/bandit_party_1","A13JDX06ZXN4KJ","either","3","309","","","","","","","0","0","1","0.2739379344","","0.2","0.8","0.4","0.6","","","","","0.1748443247","0.2430345153","0.2739379344","0.4447189615","","","","","","","","","","75","K","2","","","62","main_expt",""
"","bandit","142","516535","0.0-104.0-0.0","92643990","wem/bandit_party_1","A13JDX06ZXN4KJ","either","3","259","","","","","","","0","1","0","","0.2518438402","0.2","0.8","0.4","0.6","0.1872250423","0.2682261916","0.2518438402","0.4351057758","","","","","","","","","","","","","","75","K","2","","","63","main_expt",""
"","bandit","143","518315","0.0-105.0-0.0","92643990","wem/bandit_party_1","A13JDX06ZXN4KJ","either","3","271","","","","","","","0","0","1","","0.216118181","0.2","0.8","0.4","0.6","0.1592276408","0.3136585585","0.216118181","0.4559228662","","","","","","","","","","","","","","75","K","2","","","64","main_expt",""
"","bandit","144","520153","0.0-106.0-0.0","92643990","wem/bandit_party_1","A13JDX06ZXN4KJ","either","3","329","","","","","","","0","0","1","0.1961712117","","0.2","0.8","0.4","0.6","","","","","0.1881419285","0.3208042698","0.1961712117","0.4526438492","","","","","","","","","","75","K","2","","","65","main_expt",""
"","bandit","145","522010","0.0-107.0-0.0","92643990","wem/bandit_party_1","A13JDX06ZXN4KJ","either","3","339","","","","","","","0","0","1","","0.1821057022","0.2","0.8","0.4","0.6","0.2075830042","0.3550213758","0.1821057022","0.4604690516","","","","","","","","","","","","","","75","K","2","","","66","main_expt",""
"","bandit","146","523845","0.0-108.0-0.0","92643990","wem/bandit_party_1","A13JDX06ZXN4KJ","either","3","315","","","","","","","0","0","1","","0.2221692745","0.2","0.8","0.4","0.6","0.210321401","0.2883445083","0.2221692745","0.4479534522","","","","","","","","","","","","","","75","K","2","","","67","main_expt",""
"","bandit","147","525614","0.0-109.0-0.0","92643990","wem/bandit_party_1","A13JDX06ZXN4KJ","either","3","261","","","","","","","0","0","1","","0.2385328342","0.2","0.8","0.4","0.6","0.1740681144","0.2492112051","0.2385328342","0.4420076102","","","","","","","","","","","","","","75","K","2","","","68","main_expt",""
"","bandit","148","527442","0.0-110.0-0.0","92643990","wem/bandit_party_1","A13JDX06ZXN4KJ","either","3","319","","","","","","","0","0","1","0.1725364023","","0.2","0.8","0.4","0.6","","","","","0.1495678232","0.1725364023","0.2693988132","0.3840886122","","","","","","","","","","74","J","1","","","69","main_expt",""
"","bandit","149","529185","0.0-111.0-0.0","92643990","wem/bandit_party_1","A13JDX06ZXN4KJ","either","3","235","","","","","","","1","0","0","0.2081322216","","0.2","0.8","0.4","0.6","","","","","0.1594524764","0.2081322216","0.2633889128","0.3764426572","","","","","","","","","","74","J","1","","","70","main_expt",""
"","bandit","150","530942","0.0-112.0-0.0","92643990","wem/bandit_party_1","A13JDX06ZXN4KJ","either","3","244","","","","","","","0","0","1","0.2222096595","","0.2","0.8","0.4","0.6","","","","","0.1308665948","0.2222096595","0.2881785301","0.3925575972","","","","","","","","","","74","J","1","","","71","main_expt",""
"","bandit","151","532612","0.0-113.0-0.0","92643990","wem/bandit_party_1","A13JDX06ZXN4KJ","either","3","160","","","","","","","0","0","1","","0.2276413934","0.2","0.8","0.4","0.6","0.1413665491","0.2276413934","0.3496752211","0.4055717031","","","","","","","","","","","","","","74","J","1","","","72","main_expt",""
"","bandit","152","534349","0.0-114.0-0.0","92643990","wem/bandit_party_1","A13JDX06ZXN4KJ","either","3","228","","","","","","","0","0","1","0.202726327","","0.2","0.8","0.4","0.6","","","","","0.1562096843","0.202726327","0.3662649551","0.4313753627","","","","","","","","","","74","J","1","","","73","main_expt",""
"","bandit","153","536043","0.0-115.0-0.0","92643990","wem/bandit_party_1","A13JDX06ZXN4KJ","either","3","186","","","","","","","0","0","1","0.2465356434","","0.2","0.8","0.4","0.6","","","","","0.1601549975","0.2465356434","0.3318597218","0.4294283137","","","","","","","","","","74","J","1","","","74","main_expt",""
"","bandit","154","537825","0.0-116.0-0.0","92643990","wem/bandit_party_1","A13JDX06ZXN4KJ","either","3","273","","","","","","","0","1","0","","0.3129946244","0.2","0.8","0.4","0.6","0.1962365409","0.2780880013","0.3129946244","0.4114775526","","","","","","","","","","","","","","75","K","2","","","75","main_expt",""
"","bandit","155","539642","0.0-117.0-0.0","92643990","wem/bandit_party_1","A13JDX06ZXN4KJ","either","3","306","","","","","","","0","0","1","","0.3299880354","0.2","0.8","0.4","0.6","0.2315068675","0.230570622","0.3299880354","0.4038916894","","","","","","","","","","","","","","75","K","2","","","76","main_expt",""
"","bandit","156","541436","0.0-118.0-0.0","92643990","wem/bandit_party_1","A13JDX06ZXN4KJ","either","3","285","","","","","","","0","1","0","","0.2704336052","0.2","0.8","0.4","0.6","0.1749603823","0.1747897532","0.2704336052","0.4028298088","","","","","","","","","","","","","","75","K","2","","","77","main_expt",""
"","bandit","157","543211","0.0-119.0-0.0","92643990","wem/bandit_party_1","A13JDX06ZXN4KJ","either","3","266","","","","","","","0","0","1","0.2489008917","","0.2","0.8","0.4","0.6","","","","","0.2091975686","0.2009150394","0.2489008917","0.4004321452","","","","","","","","","","75","K","2","","","78","main_expt",""
"","bandit","158","544971","0.0-120.0-0.0","92643990","wem/bandit_party_1","A13JDX06ZXN4KJ","either","3","251","","","","","","","0","0","1","","0.2182462247","0.2","0.8","0.4","0.6","0.2699334682","0.2090883318","0.2182462247","0.3909827091","","","","","","","","","","","","","","75","K","2","","","79","main_expt",""
"","bandit","159","546764","0.0-121.0-0.0","92643990","wem/bandit_party_1","A13JDX06ZXN4KJ","either","3","267","","","","","","","0","0","1","","0.1591694045","0.2","0.8","0.4","0.6","0.2712134299","0.215522018","0.1591694045","0.4289339141","","","","","","","","","","","","","","75","K","2","","","80","main_expt",""
"","bandit","160","548575","0.0-122.0-0.0","92643990","wem/bandit_party_1","A13JDX06ZXN4KJ","either","3","302","","","","","","","0","0","1","0.1661146317","","0.2","0.8","0.4","0.6","","","","","0.2563236188","0.2655955182","0.1661146317","0.4256341571","","","","","","","","","","75","K","2","","","81","main_expt",""
"","bandit","161","550309","0.0-123.0-0.0","92643990","wem/bandit_party_1","A13JDX06ZXN4KJ","either","3","224","","","","","","","0","0","1","","0.2249160828","0.2","0.8","0.4","0.6","0.2474856626","0.2642342948","0.2249160828","0.4153375647","","","","","","","","","","","","","","75","K","2","","","82","main_expt",""
"","bandit","162","552047","0.0-124.0-0.0","92643990","wem/bandit_party_1","A13JDX06ZXN4KJ","either","3","230","","","","","","","0","0","1","0.2615040017","","0.2","0.8","0.4","0.6","","","","","0.2338037125","0.2615040017","0.2194800234","0.4239102097","","","","","","","","","","74","J","1","","","83","main_expt",""
"","bandit","163","553751","0.0-125.0-0.0","92643990","wem/bandit_party_1","A13JDX06ZXN4KJ","either","3","194","","","","","","","0","0","1","","0.2929655049","0.2","0.8","0.4","0.6","0.2929655049","0.3136368113","0.2020024956","0.4021041833","","","","","","","","","","","","","","72","H","0","img/none_selected.jpg","","84","main_expt",""
"","bandit","164","560656","0.0-126.0-0.0","92643990","wem/bandit_party_1","A13JDX06ZXN4KJ","either","3","5397","","","","","","","0","1","0","","0.1639230135","0.2","0.8","0.4","0.6","0.2755572306","0.2433538552","0.1639230135","0.4322374594","","","","","","","","","","","","","","75","K","2","","","85","main_expt",""
"","bandit","165","562348","0.0-127.0-0.0","92643990","wem/bandit_party_1","A13JDX06ZXN4KJ","either","3","180","","","","","","","0","0","1","","0.1423092638","0.2","0.8","0.4","0.6","0.2706615249","0.2583740773","0.1423092638","0.4247618508","","","","","","","","","","","","","","75","K","2","","","86","main_expt",""
"","bandit","166","564226","0.0-128.0-0.0","92643990","wem/bandit_party_1","A13JDX06ZXN4KJ","either","3","369","","","","","","","0","0","1","0.1623313408","","0.2","0.8","0.4","0.6","","","","","0.3259805539","0.2656778135","0.1623313408","0.4130492334","","","","","","","","","","75","K","2","","","87","main_expt",""
"","bandit","167","566011","0.0-129.0-0.0","92643990","wem/bandit_party_1","A13JDX06ZXN4KJ","either","3","273","","","","","","","0","0","1","0.1459946163","","0.2","0.8","0.4","0.6","","","","","0.3471137027","0.2565525481","0.1459946163","0.3883747858","","","","","","","","","","75","K","2","","","88","main_expt",""
"","bandit","168","567882","0.0-130.0-0.0","92643990","wem/bandit_party_1","A13JDX06ZXN4KJ","either","3","358","","","","","","","0","0","1","0.1684807643","","0.2","0.8","0.4","0.6","","","","","0.3715311126","0.2471999074","0.1684807643","0.3950807547","","","","","","","","","","75","K","2","","","89","main_expt",""
"","bandit","169","569495","0.0-131.0-0.0","92643990","wem/bandit_party_1","A13JDX06ZXN4KJ","either","3","104","","","","","","","0","0","1","0.420982679","","0.2","0.8","0.4","0.6","","","","","0.3571728809","0.2204199549","0.1937692241","0.420982679","","","","","","","","","","76","L","3","","","90","main_expt",""
"","bandit","170","571350","0.0-132.0-0.0","92643990","wem/bandit_party_1","A13JDX06ZXN4KJ","either","3","343","","","","","","","1","0","0","0.4012606491","","0.2","0.8","0.4","0.6","","","","","0.3348642023","0.2013548925","0.1670397906","0.4012606491","","","","","","","","","","76","L","3","","","91","main_expt",""
"","bandit","171","573763","0.0-133.0-0.0","92643990","wem/bandit_party_1","A13JDX06ZXN4KJ","either","3","903","","","","","","","0","0","1","0.3950870333","","0.2","0.8","0.4","0.6","","","","","0.3551195155","0.174921714","0.1936095216","0.3950870333","","","","","","","","","","76","L","3","","","92","main_expt",""
"","bandit","172","575810","0.0-134.0-0.0","92643990","wem/bandit_party_1","A13JDX06ZXN4KJ","either","3","536","","","","","","","1","0","0","0.3797372222","","0.2","0.8","0.4","0.6","","","","","0.3494458231","0.1972058505","0.2399824117","0.3797372222","","","","","","","","","","76","L","3","","","93","main_expt",""
"","bandit","173","577748","0.0-135.0-0.0","92643990","wem/bandit_party_1","A13JDX06ZXN4KJ","either","3","427","","","","","","","1","0","0","0.3346339076","","0.2","0.8","0.4","0.6","","","","","0.3759818745","0.2144007407","0.242536602","0.3346339076","","","","","","","","","","76","L","3","","","94","main_expt",""
"","bandit","174","579737","0.0-136.0-0.0","92643990","wem/bandit_party_1","A13JDX06ZXN4KJ","either","3","480","","","","","","","0","0","1","","0.3433005441","0.2","0.8","0.4","0.6","0.3467088588","0.2025691914","0.3081296623","0.3433005441","","","","","","","","","","","","","","76","L","3","","","95","main_expt",""
"","bandit","175","581606","0.0-137.0-0.0","92643990","wem/bandit_party_1","A13JDX06ZXN4KJ","either","3","360","","","","","","","1","0","0","0.2900415689","","0.2","0.8","0.4","0.6","","","","","0.3520186383","0.1750118246","0.371766452","0.2900415689","","","","","","","","","","76","L","3","","","96","main_expt",""
"","bandit","176","583295","0.0-138.0-0.0","92643990","wem/bandit_party_1","A13JDX06ZXN4KJ","either","3","178","","","","","","","0","1","0","","0.3136050561","0.2","0.8","0.4","0.6","0.342216001","0.2433812568","0.3737721809","0.3136050561","","","","","","","","","","","","","","76","L","3","","","97","main_expt",""
"","bandit","177","585361","0.0-139.0-0.0","92643990","wem/bandit_party_1","A13JDX06ZXN4KJ","either","3","556","","","","","","","0","1","0","","0.3236610102","0.2","0.8","0.4","0.6","0.3775958225","0.1834100281","0.3662625892","0.3236610102","","","","","","","","","","","","","","76","L","3","","","98","main_expt",""
"","bandit","178","588222","0.0-140.0-0.0","92643990","wem/bandit_party_1","A13JDX06ZXN4KJ","either","3","1353","","","","","","","0","0","1","0.3116662608","","0.2","0.8","0.4","0.6","","","","","0.3490624926","0.146161558","0.3912879072","0.3116662608","","","","","","","","","","76","L","3","","","99","main_expt",""
"","bandit","179","590339","0.0-141.0-0.0","92643990","wem/bandit_party_1","A13JDX06ZXN4KJ","either","3","608","","","","","","","0","0","1","0.3806420769","","0.2","0.8","0.4","0.6","","","","","0.3418910903","0.1186266926","0.3916888764","0.3806420769","","","","","","","","","","76","L","3","","","100","main_expt",""
"","bandit","180","592481","0.0-142.0-0.0","92643990","wem/bandit_party_1","A13JDX06ZXN4KJ","either","3","628","","","","","","","0","0","1","","0.3825052475","0.2","0.8","0.4","0.6","0.3544055354","0.1467879228","0.3803758031","0.3825052475","","","","","","","","","","","","","","76","L","3","","","101","main_expt",""
"","bandit","181","594239","0.0-143.0-0.0","92643990","wem/bandit_party_1","A13JDX06ZXN4KJ","either","3","248","","","","","","","0","0","1","0.3685266224","","0.2","0.8","0.4","0.6","","","","","0.3580864163","0.1336514036","0.3685266224","0.3799327693","","","","","","","","","","75","K","2","","","102","main_expt",""
"","bandit","182","596067","0.0-144.0-0.0","92643990","wem/bandit_party_1","A13JDX06ZXN4KJ","either","3","316","","","","","","","0","0","1","0.1325092095","","0.2","0.8","0.4","0.6","","","","","0.336528594","0.1325092095","0.3754978655","0.3502018886","","","","","","","","","","74","J","1","","","103","main_expt",""
"","bandit","183","598191","0.0-145.0-0.0","92643990","wem/bandit_party_1","A13JDX06ZXN4KJ","either","3","612","","","","","","","0","0","1","0.1162839287","","0.2","0.8","0.4","0.6","","","","","0.3190078166","0.1162839287","0.4033056484","0.3443431466","","","","","","","","","","74","J","1","","","104","main_expt",""
"","bandit","184","600090","0.0-146.0-0.0","92643990","wem/bandit_party_1","A13JDX06ZXN4KJ","either","3","390","","","","","","","0","0","1","0.115620258","","0.2","0.8","0.4","0.6","","","","","0.3100940773","0.115620258","0.3617388181","0.3551378046","","","","","","","","","","74","J","1","","","105","main_expt",""
"","bandit","185","601614","0.0-147.0-0.0","92643990","wem/bandit_party_1","A13JDX06ZXN4KJ","either","3","16","","","","","","","0","0","1","0.1102569517","","0.2","0.8","0.4","0.6","","","","","0.2964842485","0.1102569517","0.3656875331","0.3177956882","","","","","","","","","","74","J","1","","","106","main_expt",""
"","bandit","186","604716","0.0-148.0-0.0","92643990","wem/bandit_party_1","A13JDX06ZXN4KJ","either","3","1591","","","","","","","0","1","0","","0.3224579283","0.2","0.8","0.4","0.6","0.3224579283","0.110599846","0.3478183852","0.3463124521","","","","","","","","","","","","","","72","H","0","img/none_selected.jpg","","107","main_expt",""
"","bandit","187","607394","0.0-149.0-0.0","92643990","wem/bandit_party_1","A13JDX06ZXN4KJ","either","3","1167","","","","","","","0","0","1","","0.3365568187","0.2","0.8","0.4","0.6","0.3365568187","0.1647947233","0.3715517583","0.330790185","","","","","","","","","","","","","","72","H","0","img/none_selected.jpg","","108","main_expt",""
"","bandit","188","609067","0.0-150.0-0.0","92643990","wem/bandit_party_1","A13JDX06ZXN4KJ","either","3","163","","","","","","","0","0","1","0.3200824859","","0.2","0.8","0.4","0.6","","","","","0.3200824859","0.146095753","0.3713851569","0.3259779601","","","","","","","","","","72","H","0","img/none_selected.jpg","","109","main_expt",""
"","bandit","189","611038","0.0-151.0-0.0","92643990","wem/bandit_party_1","A13JDX06ZXN4KJ","either","3","460","","","","","","","1","0","0","0.3179471713","","0.2","0.8","0.4","0.6","","","","","0.3179471713","0.1691954855","0.3401672382","0.3169053314","","","","","","","","","","72","H","0","img/none_selected.jpg","","110","main_expt",""
"","bandit","190","612910","0.0-152.0-0.0","92643990","wem/bandit_party_1","A13JDX06ZXN4KJ","either","3","361","","","","","","","0","0","1","","0.3168158386","0.2","0.8","0.4","0.6","0.3168158386","0.1690298198","0.3242328008","0.342138516","","","","","","","","","","","","","","72","H","0","img/none_selected.jpg","","111","main_expt",""
"","bandit","191","614680","0.0-153.0-0.0","92643990","wem/bandit_party_1","A13JDX06ZXN4KJ","either","3","262","","","","","","","0","1","0","","0.3551606626","0.2","0.8","0.4","0.6","0.3551606626","0.2196992501","0.2991119965","0.3597886873","","","","","","","","","","","","","","72","H","0","img/none_selected.jpg","","112","main_expt",""
"","bandit","192","616500","0.0-154.0-0.0","92643990","wem/bandit_party_1","A13JDX06ZXN4KJ","either","3","310","","","","","","","0","0","1","","0.3615444015","0.2","0.8","0.4","0.6","0.3615444015","0.2723467559","0.3364281798","0.3580549124","","","","","","","","","","","","","","72","H","0","img/none_selected.jpg","","113","main_expt",""
"","bandit","193","618357","0.0-155.0-0.0","92643990","wem/bandit_party_1","A13JDX06ZXN4KJ","either","3","347","","","","","","","0","0","1","","0.4043222556","0.2","0.8","0.4","0.6","0.4043222556","0.2470985199","0.3495122724","0.3556181037","","","","","","","","","","","","","","72","H","0","img/none_selected.jpg","","114","main_expt",""
"","bandit","194","620348","0.0-156.0-0.0","92643990","wem/bandit_party_1","A13JDX06ZXN4KJ","either","3","479","","","","","","","0","1","0","","0.4179696435","0.2","0.8","0.4","0.6","0.4179696435","0.2482590513","0.324938203","0.3489042174","","","","","","","","","","","","","","72","H","0","img/none_selected.jpg","","115","main_expt",""
"","bandit","195","622221","0.0-157.0-0.0","92643990","wem/bandit_party_1","A13JDX06ZXN4KJ","either","3","363","","","","","","","0","1","0","","0.4324393975","0.2","0.8","0.4","0.6","0.4324393975","0.1992012358","0.3227512736","0.3466245191","","","","","","","","","","","","","","72","H","0","img/none_selected.jpg","","116","main_expt",""
"","bandit","196","624161","0.0-158.0-0.0","92643990","wem/bandit_party_1","A13JDX06ZXN4KJ","either","3","430","","","","","","","0","1","0","","0.4290779421","0.2","0.8","0.4","0.6","0.4290779421","0.216355905","0.2585209305","0.3581754781","","","","","","","","","","","","","","72","H","0","img/none_selected.jpg","","117","main_expt",""
"","bandit","197","626047","0.0-159.0-0.0","92643990","wem/bandit_party_1","A13JDX06ZXN4KJ","either","3","376","","","","","","","0","1","0","","0.4459264202","0.2","0.8","0.4","0.6","0.4459264202","0.1715453935","0.2817260076","0.283939031","","","","","","","","","","","","","","72","H","0","img/none_selected.jpg","","118","main_expt",""
"","bandit","198","627949","0.0-160.0-0.0","92643990","wem/bandit_party_1","A13JDX06ZXN4KJ","either","3","390","","","","","","","1","0","0","0.436995295","","0.2","0.8","0.4","0.6","","","","","0.436995295","0.1843456939","0.328214026","0.2992634423","","","","","","","","","","72","H","0","img/none_selected.jpg","","119","main_expt",""
"","bandit","199","629816","0.0-161.0-0.0","92643990","wem/bandit_party_1","A13JDX06ZXN4KJ","either","3","355","","","","","","","1","0","0","0.4151314625","","0.2","0.8","0.4","0.6","","","","","0.4151314625","0.1848061615","0.3355603121","0.1878150733","","","","","","","","","","72","H","0","img/none_selected.jpg","","120","main_expt",""
"","bandit","200","631623","0.0-162.0-0.0","92643990","wem/bandit_party_1","A13JDX06ZXN4KJ","either","3","297","","","","","","","0","0","1","0.4384064527","","0.2","0.8","0.4","0.6","","","","","0.4384064527","0.1679578636","0.3829587724","0.1447458933","","","","","","","","","","72","H","0","img/none_selected.jpg","","121","main_expt",""
"","bandit","201","633394","0.0-163.0-0.0","92643990","wem/bandit_party_1","A13JDX06ZXN4KJ","either","3","259","","","","","","","0","0","1","","0.4417589501","0.2","0.8","0.4","0.6","0.4417589501","0.197295971","0.3995678287","0.1176060398","","","","","","","","","","","","","","72","H","0","img/none_selected.jpg","","122","main_expt",""
"","bandit","202","635177","0.0-164.0-0.0","92643990","wem/bandit_party_1","A13JDX06ZXN4KJ","either","3","272","","","","","","","0","0","1","","0.4017154396","0.2","0.8","0.4","0.6","0.4017154396","0.2184653352","0.3656739583","0.1097677055","","","","","","","","","","","","","","72","H","0","img/none_selected.jpg","","123","main_expt",""
"","bandit","203","637031","0.0-165.0-0.0","92643990","wem/bandit_party_1","A13JDX06ZXN4KJ","either","3","344","","","","","","","0","0","1","0.3619070526","","0.2","0.8","0.4","0.6","","","","","0.3619070526","0.2147868977","0.3862549257","0.08048168986","","","","","","","","","","72","H","0","img/none_selected.jpg","","124","main_expt",""
"","bandit","204","639486","0.0-166.0-0.0","92643990","wem/bandit_party_1","A13JDX06ZXN4KJ","either","3","945","","","","","","","0","0","1","0.1667936559","","0.2","0.8","0.4","0.6","","","","","0.3567490645","0.1667936559","0.3593796239","0.07842900555","","","","","","","","","","74","J","1","","","125","main_expt",""
"","bandit","205","641284","0.0-167.0-0.0","92643990","wem/bandit_party_1","A13JDX06ZXN4KJ","either","3","288","","","","","","","0","0","1","0.1453295256","","0.2","0.8","0.4","0.6","","","","","0.3558473019","0.1453295256","0.3413194209","0.08318363027","","","","","","","","","","74","J","1","","","126","main_expt",""
"","bandit","206","643096","0.0-168.0-0.0","92643990","wem/bandit_party_1","A13JDX06ZXN4KJ","either","3","301","","","","","","","0","0","1","0.3369929262","","0.2","0.8","0.4","0.6","","","","","0.3543069734","0.1635755653","0.3369929262","0.06812438963","","","","","","","","","","75","K","2","","","127","main_expt",""
"","bandit","207","644882","0.0-169.0-0.0","92643990","wem/bandit_party_1","A13JDX06ZXN4KJ","either","3","276","","","","","","","0","0","1","","0.2922989636","0.2","0.8","0.4","0.6","0.3328374851","0.1872639566","0.2922989636","0.08303766286","","","","","","","","","","","","","","75","K","2","","","128","main_expt",""
"","bandit","208","646640","0.0-170.0-0.0","92643990","wem/bandit_party_1","A13JDX06ZXN4KJ","either","3","249","","","","","","","0","1","0","","0.3095146075","0.2","0.8","0.4","0.6","0.3238683282","0.2032718864","0.3095146075","0.09047360051","","","","","","","","","","","","","","75","K","2","","","129","main_expt",""
"","bandit","209","648429","0.0-171.0-0.0","92643990","wem/bandit_party_1","A13JDX06ZXN4KJ","either","3","278","","","","","","","0","0","1","0.3068425872","","0.2","0.8","0.4","0.6","","","","","0.2750329062","0.2025864764","0.3068425872","0.131542256","","","","","","","","","","75","K","2","","","130","main_expt",""
"","bandit","210","650138","0.0-172.0-0.0","92643990","wem/bandit_party_1","A13JDX06ZXN4KJ","either","3","198","","","","","","","0","0","1","","0.3112504131","0.2","0.8","0.4","0.6","0.2751886228","0.2158584071","0.3112504131","0.1492019489","","","","","","","","","","","","","","75","K","2","","","131","main_expt",""
"","bandit","211","651968","0.0-173.0-0.0","92643990","wem/bandit_party_1","A13JDX06ZXN4KJ","either","3","321","","","","","","","0","0","1","","0.3595653039","0.2","0.8","0.4","0.6","0.2729729886","0.2105840197","0.3595653039","0.1571188116","","","","","","","","","","","","","","75","K","2","","","132","main_expt",""
"","bandit","212","653794","0.0-174.0-0.0","92643990","wem/bandit_party_1","A13JDX06ZXN4KJ","either","3","315","","","","","","","0","0","1","0.2021073832","","0.2","0.8","0.4","0.6","","","","","0.3248088544","0.2328486735","0.3873527377","0.2021073832","","","","","","","","","","76","L","3","","","133","main_expt",""
"","bandit","213","655483","0.0-175.0-0.0","92643990","wem/bandit_party_1","A13JDX06ZXN4KJ","either","3","179","","","","","","","0","1","0","","0.2693148074","0.2","0.8","0.4","0.6","0.3596446835","0.2589092944","0.3973884711","0.2693148074","","","","","","","","","","","","","","76","L","3","","","134","main_expt",""
"","bandit","214","657264","0.0-176.0-0.0","92643990","wem/bandit_party_1","A13JDX06ZXN4KJ","either","3","268","","","","","","","0","0","1","0.2625780805","","0.2","0.8","0.4","0.6","","","","","0.318377279","0.2637326353","0.4080523157","0.2625780805","","","","","","","","","","76","L","3","","","135","main_expt",""
"","bandit","215","659133","0.0-177.0-0.0","92643990","wem/bandit_party_1","A13JDX06ZXN4KJ","either","3","360","","","","","","","0","0","1","0.2981707722","","0.2","0.8","0.4","0.6","","","","","0.3160887017","0.2718680576","0.4176503084","0.2981707722","","","","","","","","","","76","L","3","","","136","main_expt",""
"","bandit","216","660916","0.0-178.0-0.0","92643990","wem/bandit_party_1","A13JDX06ZXN4KJ","either","3","275","","","","","","","0","0","1","0.3148158286","","0.2","0.8","0.4","0.6","","","","","0.2883225013","0.2919957672","0.3859803947","0.3148158286","","","","","","","","","","76","L","3","","","137","main_expt",""
"","bandit","217","662733","0.0-179.0-0.0","92643990","wem/bandit_party_1","A13JDX06ZXN4KJ","either","3","304","","","","","","","0","0","1","0.3111523267","","0.2","0.8","0.4","0.6","","","","","0.3009152141","0.3193993407","0.358492916","0.3111523267","","","","","","","","","","76","L","3","","","138","main_expt",""
"","bandit","218","664535","0.0-180.0-0.0","92643990","wem/bandit_party_1","A13JDX06ZXN4KJ","either","3","293","","","","","","","0","1","0","","0.3034593298","0.2","0.8","0.4","0.6","0.293720077","0.3404434035","0.3608756281","0.3034593298","","","","","","","","","","","","","","76","L","3","","","139","main_expt",""
"","bandit","219","666145","0.0-181.0-0.0","92643990","wem/bandit_party_1","A13JDX06ZXN4KJ","either","3","96","","","","","","","1","0","0","0.2507495005","","0.2","0.8","0.4","0.6","","","","","0.286059761","0.3278052243","0.3421836092","0.2507495005","","","","","","","","","","76","L","3","","","140","main_expt",""
"","bandit","220","668010","0.0-182.0-0.0","92643990","wem/bandit_party_1","A13JDX06ZXN4KJ","either","3","354","","","","","","","0","0","1","0.2220694513","","0.2","0.8","0.4","0.6","","","","","0.2931724706","0.3038906839","0.3737340371","0.2220694513","","","","","","","","","","76","L","3","","","141","main_expt",""
"","bandit","221","669811","0.0-183.0-0.0","92643990","wem/bandit_party_1","A13JDX06ZXN4KJ","either","3","292","","","","","","","0","0","1","0.2119249064","","0.2","0.8","0.4","0.6","","","","","0.2182180164","0.2924195757","0.3461121542","0.2119249064","","","","","","","","","","76","L","3","","","142","main_expt",""
"","bandit","222","671652","0.0-184.0-0.0","92643990","wem/bandit_party_1","A13JDX06ZXN4KJ","either","3","329","","","","","","","0","0","1","","0.2665135591","0.2","0.8","0.4","0.6","0.2015475508","0.2816149275","0.3305931074","0.2665135591","","","","","","","","","","","","","","76","L","3","","","143","main_expt",""
"","bandit","223","673438","0.0-185.0-0.0","92643990","wem/bandit_party_1","A13JDX06ZXN4KJ","either","3","275","","","","","","","0","0","1","0.2854155153","","0.2","0.8","0.4","0.6","","","","","0.2074070562","0.2355525614","0.3561039987","0.2854155153","","","","","","","","","","76","L","3","","","144","main_expt",""
"","bandit","224","675220","0.0-186.0-0.0","92643990","wem/bandit_party_1","A13JDX06ZXN4KJ","either","3","272","","","","","","","0","0","1","0.2521048148","","0.2","0.8","0.4","0.6","","","","","0.1415368311","0.2185662272","0.3648023512","0.2521048148","","","","","","","","","","76","L","3","","","145","main_expt",""
"","bandit","225","676946","0.0-187.0-0.0","92643990","wem/bandit_party_1","A13JDX06ZXN4KJ","either","3","214","","","","","","","1","0","0","0.3450315","","0.2","0.8","0.4","0.6","","","","","0.1549520657","0.2209315791","0.3450315","0.2321266643","","","","","","","","","","75","K","2","","","146","main_expt",""
"","bandit","226","678764","0.0-188.0-0.0","92643990","wem/bandit_party_1","A13JDX06ZXN4KJ","either","3","308","","","","","","","0","0","1","","0.2720321141","0.2","0.8","0.4","0.6","0.1469310363","0.2889766311","0.2720321141","0.3159383216","","","","","","","","","","","","","","75","K","2","","","147","main_expt",""
"","bandit","227","680565","0.0-189.0-0.0","92643990","wem/bandit_party_1","A13JDX06ZXN4KJ","either","3","288","","","","","","","0","0","1","0.2598972664","","0.2","0.8","0.4","0.6","","","","","0.1332828417","0.2859466156","0.2598972664","0.2673485129","","","","","","","","","","75","K","2","","","148","main_expt",""
"","bandit","228","682306","0.0-190.0-0.0","92643990","wem/bandit_party_1","A13JDX06ZXN4KJ","either","3","228","","","","","","","0","0","1","0.2343157719","","0.2","0.8","0.4","0.6","","","","","0.1102010463","0.2588478233","0.2343157719","0.3348600541","","","","","","","","","","75","K","2","","","149","main_expt",""
"","bandit","229","683981","0.0-191.0-0.0","92643990","wem/bandit_party_1","A13JDX06ZXN4KJ","either","3","165","","","","","","","0","0","1","","0.2451363599","0.2","0.8","0.4","0.6","0.1356103494","0.2224653457","0.2451363599","0.3659656834","","","","","","","","","","","","","","75","K","2","","","150","main_expt",""
"","bandit","230","685786","0.0-192.0-0.0","92643990","wem/bandit_party_1","A13JDX06ZXN4KJ","either","3","292","","","","","","","0","0","1","","0.2053737132","0.2","0.8","0.4","0.6","0.1621229287","0.2387237716","0.2053737132","0.36397653","","","","","","","","","","","","","","75","K","2","","","151","main_expt",""
"","bandit","231","687650","0.0-193.0-0.0","92643990","wem/bandit_party_1","A13JDX06ZXN4KJ","either","3","354","","","","","","","0","0","1","","0.1412745606","0.2","0.8","0.4","0.6","0.1412745606","0.2519133504","0.2396242378","0.3710672623","","","","","","","","","","","","","","72","H","0","img/none_selected.jpg","","152","main_expt",""
"","bandit","232","689405","0.0-194.0-0.0","92643990","wem/bandit_party_1","A13JDX06ZXN4KJ","either","3","243","","","","","","","0","1","0","","0.1707580034","0.2","0.8","0.4","0.6","0.1707580034","0.3078499427","0.2923277395","0.3828607765","","","","","","","","","","","","","","72","H","0","img/none_selected.jpg","","153","main_expt",""
"","bandit","233","691202","0.0-195.0-0.0","92643990","wem/bandit_party_1","A13JDX06ZXN4KJ","either","3","287","","","","","","","0","0","1","","0.1717455462","0.2","0.8","0.4","0.6","0.1717455462","0.3283820497","0.3166515581","0.3526468527","","","","","","","","","","","","","","72","H","0","img/none_selected.jpg","","154","main_expt",""
"","bandit","234","692916","0.0-196.0-0.0","92643990","wem/bandit_party_1","A13JDX06ZXN4KJ","either","3","202","","","","","","","0","0","1","","0.1785539081","0.2","0.8","0.4","0.6","0.1785539081","0.3303057687","0.3194616596","0.3865981945","","","","","","","","","","","","","","72","H","0","img/none_selected.jpg","","155","main_expt",""
"","bandit","235","694667","0.0-197.0-0.0","92643990","wem/bandit_party_1","A13JDX06ZXN4KJ","either","3","241","","","","","","","0","0","1","","0.2175815231","0.2","0.8","0.4","0.6","0.2175815231","0.3178912443","0.3767011333","0.4328422877","","","","","","","","","","","","","","72","H","0","img/none_selected.jpg","","156","main_expt",""
"","bandit","236","696385","0.0-198.0-0.0","92643990","wem/bandit_party_1","A13JDX06ZXN4KJ","either","3","207","","","","","","","0","0","1","0.3236874272","","0.2","0.8","0.4","0.6","","","","","0.216674397","0.3236874272","0.3853144204","0.4224906378","","","","","","","","","","74","J","1","","","157","main_expt",""
"","bandit","237","698167","0.0-199.0-0.0","92643990","wem/bandit_party_1","A13JDX06ZXN4KJ","either","3","269","","","","","","","0","0","1","0.3731337511","","0.2","0.8","0.4","0.6","","","","","0.2184316938","0.3731337511","0.3519128793","0.4428847078","","","","","","","","","","74","J","1","","","158","main_expt",""
"","bandit","238","700035","0.0-200.0-0.0","92643990","wem/bandit_party_1","A13JDX06ZXN4KJ","either","3","358","","","","","","","0","1","0","","0.3758107074","0.2","0.8","0.4","0.6","0.2603966468","0.3758107074","0.3255157266","0.4498083842","","","","","","","","","","","","","","74","J","1","","","159","main_expt",""
"","bandit","239","701837","0.0-201.0-0.0","92643990","wem/bandit_party_1","A13JDX06ZXN4KJ","either","3","288","","","","","","","0","0","1","0.3494215766","","0.2","0.8","0.4","0.6","","","","","0.2242017374","0.3494215766","0.379238532","0.4319550234","","","","","","","","","","74","J","1","","","160","main_expt",""
"","bandit","240","703665","0.0-202.0-0.0","92643990","wem/bandit_party_1","A13JDX06ZXN4KJ","either","3","317","","","","","","","0","0","1","0.3327111917","","0.2","0.8","0.4","0.6","","","","","0.2014027125","0.3327111917","0.3776335756","0.4417514389","","","","","","","","","","74","J","1","","","161","main_expt",""
"","bandit","241","705977","0.0-203.0-0.0","92643990","wem/bandit_party_1","A13JDX06ZXN4KJ","either","3","800","","","","","","","0","0","1","","0.3171011618","0.2","0.8","0.4","0.6","0.2038621466","0.3171011618","0.2955751891","0.4081293495","","","","","","","","","","","","","","74","J","1","","","162","main_expt",""
"","bandit","242","707869","0.0-204.0-0.0","92643990","wem/bandit_party_1","A13JDX06ZXN4KJ","either","3","380","","","","","","","0","0","1","0.364183239","","0.2","0.8","0.4","0.6","","","","","0.1238136799","0.364183239","0.30851492","0.4265776113","","","","","","","","","","74","J","1","","","163","main_expt",""
"","bandit","243","709384","0.0-205.0-0.0","92643990","wem/bandit_party_1","A13JDX06ZXN4KJ","either","3","2","","","","","","","0","1","0","","0.3074756362","0.2","0.8","0.4","0.6","0.1104941302","0.3917374524","0.3074756362","0.427472809","","","","","","","","","","","","","","75","K","2","","","164","main_expt",""
"","bandit","244","711161","0.0-206.0-0.0","92643990","wem/bandit_party_1","A13JDX06ZXN4KJ","either","3","265","","","","","","","0","0","1","","0.2743039079","0.2","0.8","0.4","0.6","0.1099358877","0.3629360172","0.2743039079","0.4016343469","","","","","","","","","","","","","","75","K","2","","","165","main_expt",""
"","bandit","245","712944","0.0-207.0-0.0","92643990","wem/bandit_party_1","A13JDX06ZXN4KJ","either","3","273","","","","","","","0","0","1","","0.2900226329","0.2","0.8","0.4","0.6","0.08082918558","0.3697042915","0.2900226329","0.3578169927","","","","","","","","","","","","","","75","K","2","","","166","main_expt",""
"","bandit","246","714661","0.0-208.0-0.0","92643990","wem/bandit_party_1","A13JDX06ZXN4KJ","either","3","203","","","","","","","1","0","0","0.3444017494","","0.2","0.8","0.4","0.6","","","","","0.08539074978","0.3626443337","0.3444017494","0.3346076013","","","","","","","","","","75","K","2","","","167","main_expt",""
"","bandit","247","716607","0.0-209.0-0.0","92643990","wem/bandit_party_1","A13JDX06ZXN4KJ","either","3","434","","","","","","","1","0","0","0.3934904689","","0.2","0.8","0.4","0.6","","","","","0.1307687804","0.3488380128","0.3934904689","0.36326211","","","","","","","","","","75","K","2","","","168","main_expt",""
"","bandit","248","718365","0.0-210.0-0.0","92643990","wem/bandit_party_1","A13JDX06ZXN4KJ","either","3","247","","","","","","","0","1","0","","0.3712778229","0.2","0.8","0.4","0.6","0.09435724838","0.3338465455","0.3712778229","0.3389060657","","","","","","","","","","","","","","75","K","2","","","169","main_expt",""
"","bandit","249","720165","0.0-211.0-0.0","92643990","wem/bandit_party_1","A13JDX06ZXN4KJ","either","3","290","","","","","","","0","0","1","0.3348119161","","0.2","0.8","0.4","0.6","","","","","0.09371103674","0.3675902536","0.3348119161","0.3820287301","","","","","","","","","","75","K","2","","","170","main_expt",""
"","bandit","250","721849","0.0-212.0-0.0","92643990","wem/bandit_party_1","A13JDX06ZXN4KJ","either","3","172","","","","","","","0","0","1","","0.3697689907","0.2","0.8","0.4","0.6","0.0912992704","0.3663425941","0.3697689907","0.3738350687","","","","","","","","","","","","","","75","K","2","","","171","main_expt",""
"","bandit","251","723613","0.0-213.0-0.0","92643990","wem/bandit_party_1","A13JDX06ZXN4KJ","either","3","254","","","","","","","0","0","1","","0.3438364448","0.2","0.8","0.4","0.6","0.1053216192","0.3571019768","0.3438364448","0.3449486646","","","","","","","","","","","","","","75","K","2","","","172","main_expt",""
"","bandit","252","725415","0.0-214.0-0.0","92643990","wem/bandit_party_1","A13JDX06ZXN4KJ","either","3","287","","","","","","","0","1","0","","0.4064517123","0.2","0.8","0.4","0.6","0.1119971747","0.383943734","0.4064517123","0.3754463001","","","","","","","","","","","","","","75","K","2","","","173","main_expt",""
"","bandit","253","727221","0.0-215.0-0.0","92643990","wem/bandit_party_1","A13JDX06ZXN4KJ","either","3","295","","","","","","","0","0","1","","0.4266345201","0.2","0.8","0.4","0.6","0.1049574405","0.378453819","0.4266345201","0.3983783957","","","","","","","","","","","","","","75","K","2","","","174","main_expt",""
"","bandit","254","728988","0.0-216.0-0.0","92643990","wem/bandit_party_1","A13JDX06ZXN4KJ","either","3","254","","","","","","","0","1","0","","0.4413212306","0.2","0.8","0.4","0.6","0.07351671593","0.3577460836","0.4413212306","0.4176958341","","","","","","","","","","","","","","75","K","2","","","175","main_expt",""
"","bandit","255","730724","0.0-217.0-0.0","92643990","wem/bandit_party_1","A13JDX06ZXN4KJ","either","3","224","","","","","","","0","0","1","","0.438548454","0.2","0.8","0.4","0.6","0.06097876817","0.3346789668","0.438548454","0.4336280271","","","","","","","","","","","","","","75","K","2","","","176","main_expt",""
"","bandit","256","732443","0.0-218.0-0.0","92643990","wem/bandit_party_1","A13JDX06ZXN4KJ","either","3","207","","","","","","","0","1","0","","0.4350726265","0.2","0.8","0.4","0.6","0.05873143133","0.3720341948","0.4350726265","0.3863917124","","","","","","","","","","","","","","75","K","2","","","177","main_expt",""
"","bandit","257","734102","0.0-219.0-0.0","92643990","wem/bandit_party_1","A13JDX06ZXN4KJ","either","3","142","","","","","","","1","0","0","0.4029859975","","0.2","0.8","0.4","0.6","","","","","0.07829718294","0.4243236705","0.4029859975","0.3826512014","","","","","","","","","","75","K","2","","","178","main_expt",""
"","bandit","258","735796","0.0-220.0-0.0","92643990","wem/bandit_party_1","A13JDX06ZXN4KJ","either","3","179","","","","","","","0","0","1","0.3738585124","","0.2","0.8","0.4","0.6","","","","","0.05868413977","0.4396564102","0.3738585124","0.3681046487","","","","","","","","","","75","K","2","","","179","main_expt",""
"","bandit","259","737583","0.0-221.0-0.0","92643990","wem/bandit_party_1","A13JDX06ZXN4KJ","either","3","277","","","","","","","0","1","0","","0.3884150149","0.2","0.8","0.4","0.6","0.04540529238","0.4501825932","0.3884150149","0.374340785","","","","","","","","","","","","","","75","K","2","","","180","main_expt",""
"","bandit","260","739339","0.0-222.0-0.0","92643990","wem/bandit_party_1","A13JDX06ZXN4KJ","either","3","244","","","","","","","0","0","1","","0.3977335033","0.2","0.8","0.4","0.6","0.04810206047","0.4527537228","0.3977335033","0.3844034803","","","","","","","","","","","","","","75","K","2","","","181","main_expt",""
"","bandit","261","741102","0.0-223.0-0.0","92643990","wem/bandit_party_1","A13JDX06ZXN4KJ","either","3","251","","","","","","","0","0","1","","0.4194204302","0.2","0.8","0.4","0.6","0.0564969073","0.4733821952","0.4194204302","0.3569363444","","","","","","","","","","","","","","75","K","2","","","182","main_expt",""
"","bandit","262","742915","0.0-224.0-0.0","92643990","wem/bandit_party_1","A13JDX06ZXN4KJ","either","3","302","","","","","","","1","0","0","0.4050300101","","0.2","0.8","0.4","0.6","","","","","0.06674959941","0.4741352064","0.4050300101","0.3930074682","","","","","","","","","","75","K","2","","","183","main_expt",""
"","bandit","263","744750","0.0-225.0-0.0","92643990","wem/bandit_party_1","A13JDX06ZXN4KJ","either","3","313","","","","","","","1","0","0","0.4272992256","","0.2","0.8","0.4","0.6","","","","","0.05730522946","0.4835015011","0.4272992256","0.4105724965","","","","","","","","","","75","K","2","","","184","main_expt",""
"","bandit","264","746515","0.0-226.0-0.0","92643990","wem/bandit_party_1","A13JDX06ZXN4KJ","either","3","253","","","","","","","1","0","0","0.4213026748","","0.2","0.8","0.4","0.6","","","","","0.0759668512","0.4907566516","0.4213026748","0.4230276401","","","","","","","","","","75","K","2","","","185","main_expt",""
"","bandit","265","748309","0.0-227.0-0.0","92643990","wem/bandit_party_1","A13JDX06ZXN4KJ","either","3","281","","","","","","","0","0","1","0.3729626057","","0.2","0.8","0.4","0.6","","","","","0.0736669194","0.4777100538","0.3729626057","0.4243078066","","","","","","","","","","75","K","2","","","186","main_expt",""
"","bandit","266","750085","0.0-228.0-0.0","92643990","wem/bandit_party_1","A13JDX06ZXN4KJ","either","3","265","","","","","","","0","1","0","","0.4022080601","0.2","0.8","0.4","0.6","0.1020870739","0.4751658893","0.4022080601","0.419104652","","","","","","","","","","","","","","75","K","2","","","187","main_expt",""
"","bandit","267","751786","0.0-229.0-0.0","92643990","wem/bandit_party_1","A13JDX06ZXN4KJ","either","3","189","","","","","","","0","0","1","0.4218987807","","0.2","0.8","0.4","0.6","","","","","0.110066606","0.4711403756","0.4218987807","0.3917910895","","","","","","","","","","75","K","2","","","188","main_expt",""
"","bandit","268","753513","0.0-230.0-0.0","92643990","wem/bandit_party_1","A13JDX06ZXN4KJ","either","3","216","","","","","","","1","0","0","0.4284519853","","0.2","0.8","0.4","0.6","","","","","0.1616324423","0.4848283219","0.4284519853","0.3696037293","","","","","","","","","","75","K","2","","","189","main_expt",""
"","bandit","269","755320","0.0-231.0-0.0","92643990","wem/bandit_party_1","A13JDX06ZXN4KJ","either","3","294","","","","","","","0","0","1","","0.4104863902","0.2","0.8","0.4","0.6","0.1401199573","0.4906713727","0.4104863902","0.3722688899","","","","","","","","","","","","","","75","K","2","","","190","main_expt",""
"","bandit","270","757044","0.0-232.0-0.0","92643990","wem/bandit_party_1","A13JDX06ZXN4KJ","either","3","213","","","","","","","0","0","1","","0.4071825693","0.2","0.8","0.4","0.6","0.1782786715","0.4944082075","0.4071825693","0.3956575009","","","","","","","","","","","","","","75","K","2","","","191","main_expt",""
"","bandit","271","759276","0.0-233.0-0.0","92643990","wem/bandit_party_1","A13JDX06ZXN4KJ","either","3","720","","","","","","","0","1","0","","0.4172763132","0.2","0.8","0.4","0.6","0.203517815","0.4922337742","0.4172763132","0.3843500594","","","","","","","","","","","","","","75","K","2","","","192","main_expt",""
"","bandit","272","760895","0.0-234.0-0.0","92643990","wem/bandit_party_1","A13JDX06ZXN4KJ","either","3","107","","","","","","","1","0","0","0.3965334946","","0.2","0.8","0.4","0.6","","","","","0.172030281","0.4887356563","0.3965334946","0.3801723293","","","","","","","","","","75","K","2","","","193","main_expt",""
"","bandit","273","762674","0.0-235.0-0.0","92643990","wem/bandit_party_1","A13JDX06ZXN4KJ","either","3","267","","","","","","","0","0","1","0.383316574","","0.2","0.8","0.4","0.6","","","","","0.1813301739","0.4850955297","0.383316574","0.3871645121","","","","","","","","","","75","K","2","","","194","main_expt",""
"","bandit","274","764497","0.0-236.0-0.0","92643990","wem/bandit_party_1","A13JDX06ZXN4KJ","either","3","311","","","","","","","0","0","1","","0.3965345796","0.2","0.8","0.4","0.6","0.2284295163","0.4848341758","0.3965345796","0.3633903175","","","","","","","","","","","","","","75","K","2","","","195","main_expt",""
"","bandit","275","766296","0.0-237.0-0.0","92643990","wem/bandit_party_1","A13JDX06ZXN4KJ","either","3","287","","","","","","","0","0","1","","0.3978469093","0.2","0.8","0.4","0.6","0.2501246714","0.490049139","0.3978469093","0.3811675741","","","","","","","","","","","","","","75","K","2","","","196","main_expt",""
"","bandit","276","768116","0.0-238.0-0.0","92643990","wem/bandit_party_1","A13JDX06ZXN4KJ","either","3","309","","","","","","","0","0","1","0.3172926233","","0.2","0.8","0.4","0.6","","","","","0.3150809007","0.4912643012","0.3172926233","0.3487868089","","","","","","","","","","75","K","2","","","197","main_expt",""
"","bandit","277","769893","0.0-239.0-0.0","92643990","wem/bandit_party_1","A13JDX06ZXN4KJ","either","3","267","","","","","","","0","1","0","","0.2986771554","0.2","0.8","0.4","0.6","0.3442077965","0.4793615714","0.3113170709","0.2986771554","","","","","","","","","","","","","","76","L","3","","","198","main_expt",""
"","bandit","278","771601","0.0-240.0-0.0","92643990","wem/bandit_party_1","A13JDX06ZXN4KJ","either","3","195","","","","","","","1","0","0","0.3481418533","","0.2","0.8","0.4","0.6","","","","","0.3675051223","0.4661622676","0.3066116159","0.3481418533","","","","","","","","","","76","L","3","","","199","main_expt",""
"","bandit","279","773414","0.0-241.0-0.0","92643990","wem/bandit_party_1","A13JDX06ZXN4KJ","either","3","297","","","","","","","0","0","1","","0.353319573","0.2","0.8","0.4","0.6","0.3044821291","0.4479238565","0.2521122026","0.353319573","","","","","","","","","","","","","","76","L","3","","","200","main_expt",""
"","bandit","280","775284","0.0-242.0-0.0","92643990","wem/bandit_party_1","A13JDX06ZXN4KJ","either","3","358","","","","","","","1","0","0","0.3676338631","","0.2","0.8","0.4","0.6","","","","","0.3013824411","0.4429166455","0.2679963248","0.3676338631","","","","","","","","","","76","L","3","","","201","main_expt",""
"","bandit","281","777000","0.0-243.0-0.0","92643990","wem/bandit_party_1","A13JDX06ZXN4KJ","either","3","199","","","","","","","0","0","1","","0.311657493","0.2","0.8","0.4","0.6","0.3001954661","0.442820363","0.2076546236","0.311657493","","","","","","","","","","","","","","76","L","3","","","202","main_expt",""
"","bandit","282","778666","0.0-244.0-0.0","92643990","wem/bandit_party_1","A13JDX06ZXN4KJ","either","3","150","","","","","","","0","0","1","0.3364041998","","0.2","0.8","0.4","0.6","","","","","0.3189156814","0.4539008368","0.1881707852","0.3364041998","","","","","","","","","","76","L","3","","","203","main_expt",""
"","bandit","283","780434","0.0-245.0-0.0","92643990","wem/bandit_party_1","A13JDX06ZXN4KJ","either","3","257","","","","","","","0","0","1","0.3148670147","","0.2","0.8","0.4","0.6","","","","","0.3162062407","0.4163307037","0.2057853427","0.3148670147","","","","","","","","","","76","L","3","","","204","main_expt",""
"","bandit","284","782249","0.0-246.0-0.0","92643990","wem/bandit_party_1","A13JDX06ZXN4KJ","either","3","303","","","","","","","0","0","1","0.3293187519","","0.2","0.8","0.4","0.6","","","","","0.347278619","0.4045388199","0.2564451259","0.3293187519","","","","","","","","","","76","L","3","","","205","main_expt",""
"","bandit","285","783997","0.0-247.0-0.0","92643990","wem/bandit_party_1","A13JDX06ZXN4KJ","either","3","237","","","","","","","0","0","1","","0.2705077244","0.2","0.8","0.4","0.6","0.2970129147","0.4083422121","0.3082896296","0.2705077244","","","","","","","","","","","","","","76","L","3","","","206","main_expt",""
"","bandit","286","785790","0.0-248.0-0.0","92643990","wem/bandit_party_1","A13JDX06ZXN4KJ","either","3","281","","","","","","","0","0","1","0.3083591011","","0.2","0.8","0.4","0.6","","","","","0.3331481178","0.4033585138","0.3235103938","0.3083591011","","","","","","","","","","76","L","3","","","207","main_expt",""
"","bandit","287","787493","0.0-249.0-0.0","92643990","wem/bandit_party_1","A13JDX06ZXN4KJ","either","3","191","","","","","","","0","0","1","","0.3195917859","0.2","0.8","0.4","0.6","0.3195917859","0.3753320851","0.3563539536","0.2489273718","","","","","","","","","","","","","","72","H","0","img/none_selected.jpg","","208","main_expt",""
"","bandit","288","789290","0.0-250.0-0.0","92643990","wem/bandit_party_1","A13JDX06ZXN4KJ","either","3","286","","","","","","","0","0","1","0.3864970555","","0.2","0.8","0.4","0.6","","","","","0.3642345195","0.3864970555","0.3821305916","0.2224321457","","","","","","","","","","74","J","1","","","209","main_expt",""
"","bandit","289","791126","0.0-251.0-0.0","92643990","wem/bandit_party_1","A13JDX06ZXN4KJ","either","3","324","","","","","","","0","1","0","","0.3518797164","0.2","0.8","0.4","0.6","0.3518797164","0.3894881908","0.4067483812","0.2184729634","","","","","","","","","","","","","","72","H","0","img/none_selected.jpg","","210","main_expt",""
"","bandit","290","792851","0.0-252.0-0.0","92643990","wem/bandit_party_1","A13JDX06ZXN4KJ","either","3","213","","","","","","","0","1","0","","0.3781537602","0.2","0.8","0.4","0.6","0.3781537602","0.4052823736","0.376825818","0.2178464352","","","","","","","","","","","","","","72","H","0","img/none_selected.jpg","","211","main_expt",""
"","bandit","291","794599","0.0-253.0-0.0","92643990","wem/bandit_party_1","A13JDX06ZXN4KJ","either","3","235","","","","","","","0","0","1","0.3773353051","","0.2","0.8","0.4","0.6","","","","","0.3773353051","0.3783189977","0.3481764155","0.1644702768","","","","","","","","","","72","H","0","img/none_selected.jpg","","212","main_expt",""
"","bandit","292","796303","0.0-254.0-0.0","92643990","wem/bandit_party_1","A13JDX06ZXN4KJ","either","3","190","","","","","","","0","1","0","","0.3448860985","0.2","0.8","0.4","0.6","0.3448860985","0.3804187243","0.3239198888","0.1271660564","","","","","","","","","","","","","","72","H","0","img/none_selected.jpg","","213","main_expt",""
"","bandit","293","798095","0.0-255.0-0.0","92643990","wem/bandit_party_1","A13JDX06ZXN4KJ","either","3","280","","","","","","","0","0","1","","0.3622000499","0.2","0.8","0.4","0.6","0.3622000499","0.3964056757","0.3592643085","0.1368129038","","","","","","","","","","","","","","72","H","0","img/none_selected.jpg","","214","main_expt",""
"","bandit","294","799809","0.0-256.0-0.0","92643990","wem/bandit_party_1","A13JDX06ZXN4KJ","either","3","202","","","","","","","0","1","0","","0.3408682726","0.2","0.8","0.4","0.6","0.3408682726","0.3939862607","0.3482739819","0.07615368859","","","","","","","","","","","","","","72","H","0","img/none_selected.jpg","","215","main_expt",""
"","bandit","295","801583","0.0-257.0-0.0","92643990","wem/bandit_party_1","A13JDX06ZXN4KJ","either","3","258","","","","","","","0","0","1","","0.328819006","0.2","0.8","0.4","0.6","0.328819006","0.4062496234","0.2972527025","0.07711559412","","","","","","","","","","","","","","72","H","0","img/none_selected.jpg","","216","main_expt",""
"","bandit","296","803337","0.0-258.0-0.0","92643990","wem/bandit_party_1","A13JDX06ZXN4KJ","either","3","242","","","","","","","0","0","1","0.3229374792","","0.2","0.8","0.4","0.6","","","","","0.3229374792","0.3440498305","0.2850944341","0.07728173513","","","","","","","","","","72","H","0","img/none_selected.jpg","","217","main_expt",""
"","bandit","297","805068","0.0-259.0-0.0","92643990","wem/bandit_party_1","A13JDX06ZXN4KJ","either","3","217","","","","","","","0","0","1","","0.3616220652","0.2","0.8","0.4","0.6","0.3616220652","0.3198020565","0.2483413171","0.07919919155","","","","","","","","","","","","","","72","H","0","img/none_selected.jpg","","218","main_expt",""
"","bandit","298","807061","0.0-260.0-0.0","92643990","wem/bandit_party_1","A13JDX06ZXN4KJ","either","3","480","","","","","","","0","0","1","","0.3591176528","0.2","0.8","0.4","0.6","0.3591176528","0.3078290176","0.2680513607","0.1270410367","","","","","","","","","","","","","","72","H","0","img/none_selected.jpg","","219","main_expt",""
"","bandit","299","809563","0.0-261.0-0.0","92643990","wem/bandit_party_1","A13JDX06ZXN4KJ","either","3","986","","","","","","","0","1","0","","0.2758994579","0.2","0.8","0.4","0.6","0.2758994579","0.2961895162","0.304668496","0.1117499599","","","","","","","","","","","","","","72","H","0","img/none_selected.jpg","","220","main_expt",""
"","bandit","300","811153","0.0-262.0-0.0","92643990","wem/bandit_party_1","A13JDX06ZXN4KJ","either","3","78","","","","","","","0","0","1","","0.3119987931","0.2","0.8","0.4","0.6","0.3119987931","0.2658603678","0.2773284289","0.1186324211","","","","","","","","","","","","","","72","H","0","img/none_selected.jpg","","221","main_expt",""
"","bandit","301","813011","0.0-263.0-0.0","92643990","wem/bandit_party_1","A13JDX06ZXN4KJ","either","3","343","","","","","","","0","1","0","","0.3106374463","0.2","0.8","0.4","0.6","0.3106374463","0.274695037","0.2152506718","0.1141050397","","","","","","","","","","","","","","72","H","0","img/none_selected.jpg","","222","main_expt",""
"","bandit","302","814795","0.0-264.0-0.0","92643990","wem/bandit_party_1","A13JDX06ZXN4KJ","either","3","271","","","","","","","0","0","1","","0.3131570504","0.2","0.8","0.4","0.6","0.3131570504","0.2210940289","0.2445797097","0.1007228699","","","","","","","","","","","","","","72","H","0","img/none_selected.jpg","","223","main_expt",""
"","bandit","303","816606","0.0-265.0-0.0","92643990","wem/bandit_party_1","A13JDX06ZXN4KJ","either","3","297","","","","","","","0","0","1","0.3025994915","","0.2","0.8","0.4","0.6","","","","","0.3025994915","0.1843933297","0.2559263424","0.1380584308","","","","","","","","","","72","H","0","img/none_selected.jpg","","224","main_expt",""
"","bandit","304","818447","0.0-266.0-0.0","92643990","wem/bandit_party_1","A13JDX06ZXN4KJ","either","3","326","","","","","","","0","1","0","","0.2994132709","0.2","0.8","0.4","0.6","0.2994132709","0.212211923","0.2702522324","0.1393521225","","","","","","","","","","","","","","72","H","0","img/none_selected.jpg","","225","main_expt",""
"","bandit","305","820253","0.0-267.0-0.0","92643990","wem/bandit_party_1","A13JDX06ZXN4KJ","either","3","295","","","","","","","1","0","0","0.2866794375","","0.2","0.8","0.4","0.6","","","","","0.2866794375","0.2315036379","0.2646860425","0.2094269877","","","","","","","","","","72","H","0","img/none_selected.jpg","","226","main_expt",""
"","bandit","306","822056","0.0-268.0-0.0","92643990","wem/bandit_party_1","A13JDX06ZXN4KJ","either","3","291","","","","","","","1","0","0","0.2299222882","","0.2","0.8","0.4","0.6","","","","","0.2299222882","0.2646353212","0.269556559","0.2959232149","","","","","","","","","","72","H","0","img/none_selected.jpg","","227","main_expt",""
"","bandit","307","823934","0.0-269.0-0.0","92643990","wem/bandit_party_1","A13JDX06ZXN4KJ","either","3","366","","","","","","","0","0","1","","0.2991813551","0.2","0.8","0.4","0.6","0.2991813551","0.2443517867","0.2498152532","0.374355758","","","","","","","","","","","","","","72","H","0","img/none_selected.jpg","","228","main_expt",""
"","bandit","308","825744","0.0-270.0-0.0","92643990","wem/bandit_party_1","A13JDX06ZXN4KJ","either","3","297","","","","","","","0","0","1","","0.3295538921","0.2","0.8","0.4","0.6","0.3295538921","0.2569692975","0.2495566458","0.3876740502","","","","","","","","","","","","","","72","H","0","img/none_selected.jpg","","229","main_expt",""
"","bandit","309","827516","0.0-271.0-0.0","92643990","wem/bandit_party_1","A13JDX06ZXN4KJ","either","3","260","","","","","","","0","0","1","","0.2713593359","0.2","0.8","0.4","0.6","0.2713593359","0.2490290172","0.2134382902","0.3341674595","","","","","","","","","","","","","","72","H","0","img/none_selected.jpg","","230","main_expt",""
"","bandit","310","829329","0.0-272.0-0.0","92643990","wem/bandit_party_1","A13JDX06ZXN4KJ","either","3","303","","","","","","","0","0","1","","0.2746975787","0.2","0.8","0.4","0.6","0.2746975787","0.2368643707","0.2099205747","0.3558281537","","","","","","","","","","","","","","72","H","0","img/none_selected.jpg","","231","main_expt",""
"","bandit","311","831193","0.0-273.0-0.0","92643990","wem/bandit_party_1","A13JDX06ZXN4KJ","either","3","352","","","","","","","0","1","0","","0.2817934899","0.2","0.8","0.4","0.6","0.2817934899","0.2857324616","0.1598609145","0.3293076861","","","","","","","","","","","","","","72","H","0","img/none_selected.jpg","","232","main_expt",""
"","bandit","312","833003","0.0-274.0-0.0","92643990","wem/bandit_party_1","A13JDX06ZXN4KJ","either","3","299","","","","","","","0","0","1","","0.3139736629","0.2","0.8","0.4","0.6","0.3139736629","0.226619475","0.1472569172","0.3271309306","","","","","","","","","","","","","","72","H","0","img/none_selected.jpg","","233","main_expt",""
"","bandit","313","835006","0.0-275.0-0.0","92643990","wem/bandit_party_1","A13JDX06ZXN4KJ","either","3","490","","","","","","","1","0","0","0.3332560948","","0.2","0.8","0.4","0.6","","","","","0.3332560948","0.2448251662","0.1123375355","0.3510228885","","","","","","","","","","72","H","0","img/none_selected.jpg","","234","main_expt",""
"","bandit","314","836984","0.0-276.0-0.0","92643990","wem/bandit_party_1","A13JDX06ZXN4KJ","either","3","460","","","","","","","0","0","1","0.3475281657","","0.2","0.8","0.4","0.6","","","","","0.3475281657","0.2996798263","0.1562424728","0.3346663699","","","","","","","","","","72","H","0","img/none_selected.jpg","","235","main_expt",""
"","bandit","315","838742","0.0-277.0-0.0","92643990","wem/bandit_party_1","A13JDX06ZXN4KJ","either","3","245","","","","","","","0","0","1","","0.3170984437","0.2","0.8","0.4","0.6","0.3170984437","0.3220329496","0.1623269298","0.332043614","","","","","","","","","","","","","","72","H","0","img/none_selected.jpg","","236","main_expt",""
