"consent","trial_type","trial_index","time_elapsed","internal_node_id","subjID","study","MID","cond","drift","rt","responses","button_pressed","key_press","like","value","connected","gems","bombs","no_reward","GemPrChosen","BombPrChosen","GainOverPainPr_0","GainOverPainPr_1","GainOverPainPr_2","GainOverPainPr_3","LosePr_0","LosePr_1","LosePr_2","LosePr_3","WinPr_0","WinPr_1","WinPr_2","WinPr_3","Q0","Q1","Q2","gender","age","ethnicity","label","expt_phase","target","respCharCode","respKey","respChoiceNum","respChoice","practice","trial_counter","trial_label","Q0_index"
"GDM/GDM_behavioral_consent_30min_online.html","consent","0","7989","0.0-0.0","92678385","wem/bandit_party_1","ATUY1BTU5BQDE","either","3","","","","","","","","","","","","","","","","","","","","","","","","","","","","","","","","","","","","","","","","",""
"","survey-text","1","15558","0.0-1.0","92678385","wem/bandit_party_1","ATUY1BTU5BQDE","either","3","6561","{""Q0"":""ATUY1BTU5BQDE""}","","","","","","","","","","","","","","","","","","","","","","","","","","","","","","","","","","","","","","",""
"","button-response","2","17795","0.0-2.0","92678385","wem/bandit_party_1","ATUY1BTU5BQDE","either","3","1234","","1","","","","","","","","","","","","","","","","","","","","","","","","","","","","","","","","","","","","","",""
"","text-replacement","3","27755","0.0-3.0","92678385","wem/bandit_party_1","ATUY1BTU5BQDE","either","3","8956","","","32","","","","","","","","","","","","","","","","","","","","","","","","","","","","","","","","","","","","",""
"","text-replacement","4","33761","0.0-4.0","92678385","wem/bandit_party_1","ATUY1BTU5BQDE","either","3","6006","","","32","","","","","","","","","","","","","","","","","","","","","","","","","","","","","","","","","","","","",""
"","identification","5","44012","0.0-6.0-0.0","92678385","wem/bandit_party_1","ATUY1BTU5BQDE","either","3","10239","","","","5","5","4","","","","","","","","","","","","","","","","","","","","","","","","pre","identification_pre","the Democratic Party","","","","","","","",""
"","identification","6","49175","0.0-6.0-1.0","92678385","wem/bandit_party_1","ATUY1BTU5BQDE","either","3","4153","","","","1","1","0","","","","","","","","","","","","","","","","","","","","","","","","pre","identification_pre","the Republican party","","","","","","","",""
"","text-replacement","7","58400","0.0-7.0","92678385","wem/bandit_party_1","ATUY1BTU5BQDE","either","3","8225","","","32","","","","","","","","","","","","","","","","","","","","","","","","","","","","","","","","","","","","",""
"","text-replacement","8","61617","0.0-8.0","92678385","wem/bandit_party_1","ATUY1BTU5BQDE","either","3","3214","","","32","","","","","","","","","","","","","","","","","","","","","","","","","","","","","","","","","","","","",""
"","text-replacement","9","71250","0.0-9.0","92678385","wem/bandit_party_1","ATUY1BTU5BQDE","either","3","9632","","","32","","","","","","","","","","","","","","","","","","","","","","","","","","","","","","","","","","","","",""
"","text-replacement","10","73835","0.0-10.0","92678385","wem/bandit_party_1","ATUY1BTU5BQDE","either","3","2585","","","32","","","","","","","","","","","","","","","","","","","","","","","","","","","","","","","","","","","","",""
"","text-replacement","11","78719","0.0-11.0","92678385","wem/bandit_party_1","ATUY1BTU5BQDE","either","3","4882","","","32","","","","","","","","","","","","","","","","","","","","","","","","","","","","","","","","","","","","",""
"","bandit","12","82540","0.0-12.0-0.0","92678385","wem/bandit_party_1","ATUY1BTU5BQDE","either","3","2315","","","","","","","0","0","1","0","0","","","","","0","","","","0","","","","","","","","","","","","","74","J","0","img/none_selected_demo.jpg","true","0","",""
"","bandit","13","85463","0.0-13.0-0.0","92678385","wem/bandit_party_1","ATUY1BTU5BQDE","either","3","1420","","","","","","","0","0","1","0","0","","","","","0","","","","0","","","","","","","","","","","","","75","K","0","img/none_selected_demo.jpg","true","0","",""
"","text-replacement","14","94133","0.0-14.0","92678385","wem/bandit_party_1","ATUY1BTU5BQDE","either","3","8668","","","32","","","","","","","","","","","","","","","","","","","","","","","","","","","","","","","","","","","","",""
"","text-replacement","15","101820","0.0-15.0","92678385","wem/bandit_party_1","ATUY1BTU5BQDE","either","3","7685","","","32","","","","","","","","","","","","","","","","","","","","","","","","","","","","","","","","","","","","",""
"","text-replacement","16","107837","0.0-16.0","92678385","wem/bandit_party_1","ATUY1BTU5BQDE","either","3","6017","","","32","","","","","","","","","","","","","","","","","","","","","","","","","","","","","","","","","","","","",""
"","text-replacement","17","110619","0.0-17.0","92678385","wem/bandit_party_1","ATUY1BTU5BQDE","either","3","2781","","","32","","","","","","","","","","","","","","","","","","","","","","","","","","","","","","","","","","","","",""
"","bandit","18","112761","0.0-18.0-0.0","92678385","wem/bandit_party_1","ATUY1BTU5BQDE","either","3","636","","","","","","","1","0","0","0.8","","0.5","0.5","","","","","","","0.8","0.2","","","","","","","","","","","","74","J","0","img/none_selected_demo.jpg","true","0","80_20_practice",""
"","bandit","19","114542","0.0-18.0-1.0","92678385","wem/bandit_party_1","ATUY1BTU5BQDE","either","3","278","","","","","","","0","0","1","0.8","","0.5","0.5","","","","","","","0.8","0.2","","","","","","","","","","","","74","J","0","img/none_selected_demo.jpg","true","0","80_20_practice",""
"","bandit","20","116283","0.0-18.0-2.0","92678385","wem/bandit_party_1","ATUY1BTU5BQDE","either","3","236","","","","","","","1","0","0","0.8","","0.5","0.5","","","","","","","0.8","0.2","","","","","","","","","","","","74","J","0","img/none_selected_demo.jpg","true","0","80_20_practice",""
"","bandit","21","118001","0.0-18.0-3.0","92678385","wem/bandit_party_1","ATUY1BTU5BQDE","either","3","214","","","","","","","1","0","0","0.8","","0.5","0.5","","","","","","","0.8","0.2","","","","","","","","","","","","74","J","0","img/none_selected_demo.jpg","true","0","80_20_practice",""
"","bandit","22","119709","0.0-18.0-4.0","92678385","wem/bandit_party_1","ATUY1BTU5BQDE","either","3","203","","","","","","","0","0","1","","0.8","0.5","0.5","","","0.8","0.2","","","","","","","","","","","","","","","","74","J","0","img/none_selected_demo.jpg","true","0","80_20_practice",""
"","bandit","23","121338","0.0-18.0-5.0","92678385","wem/bandit_party_1","ATUY1BTU5BQDE","either","3","125","","","","","","","0","0","1","0.2","","0.5","0.5","","","","","","","0.8","0.2","","","","","","","","","","","","75","K","1","","true","0","80_20_practice",""
"","bandit","24","122890","0.0-18.0-6.0","92678385","wem/bandit_party_1","ATUY1BTU5BQDE","either","3","48","","","","","","","0","0","1","0.2","","0.5","0.5","","","","","","","0.8","0.2","","","","","","","","","","","","75","K","1","","true","0","80_20_practice",""
"","bandit","25","124575","0.0-18.0-7.0","92678385","wem/bandit_party_1","ATUY1BTU5BQDE","either","3","182","","","","","","","0","1","0","","0.2","0.5","0.5","","","0.8","0.2","","","","","","","","","","","","","","","","75","K","1","","true","0","80_20_practice",""
"","bandit","26","126143","0.0-18.0-8.0","92678385","wem/bandit_party_1","ATUY1BTU5BQDE","either","3","63","","","","","","","0","1","0","","0.2","0.5","0.5","","","0.8","0.2","","","","","","","","","","","","","","","","75","K","1","","true","0","80_20_practice",""
"","bandit","27","127771","0.0-18.0-9.0","92678385","wem/bandit_party_1","ATUY1BTU5BQDE","either","3","124","","","","","","","0","0","1","","0.2","0.5","0.5","","","0.8","0.2","","","","","","","","","","","","","","","","75","K","1","","true","0","80_20_practice",""
"","bandit","28","129455","0.0-18.0-10.0","92678385","wem/bandit_party_1","ATUY1BTU5BQDE","either","3","181","","","","","","","0","0","1","","0.2","0.5","0.5","","","0.8","0.2","","","","","","","","","","","","","","","","75","K","1","","true","0","80_20_practice",""
"","bandit","29","130974","0.0-18.0-11.0","92678385","wem/bandit_party_1","ATUY1BTU5BQDE","either","3","15","","","","","","","0","0","1","","0.8","0.5","0.5","","","0.8","0.2","","","","","","","","","","","","","","","","74","J","0","img/none_selected_demo.jpg","true","0","80_20_practice",""
"","bandit","30","132545","0.0-18.0-12.0","92678385","wem/bandit_party_1","ATUY1BTU5BQDE","either","3","68","","","","","","","0","1","0","","0.8","0.5","0.5","","","0.8","0.2","","","","","","","","","","","","","","","","74","J","0","img/none_selected_demo.jpg","true","0","80_20_practice",""
"","bandit","31","134250","0.0-18.0-13.0","92678385","wem/bandit_party_1","ATUY1BTU5BQDE","either","3","202","","","","","","","1","0","0","0.8","","0.5","0.5","","","","","","","0.8","0.2","","","","","","","","","","","","74","J","0","img/none_selected_demo.jpg","true","0","80_20_practice",""
"","bandit","32","135815","0.0-18.0-14.0","92678385","wem/bandit_party_1","ATUY1BTU5BQDE","either","3","60","","","","","","","0","0","1","","0.8","0.5","0.5","","","0.8","0.2","","","","","","","","","","","","","","","","74","J","0","img/none_selected_demo.jpg","true","0","80_20_practice",""
"","bandit","33","137647","0.0-18.0-15.0","92678385","wem/bandit_party_1","ATUY1BTU5BQDE","either","3","329","","","","","","","1","0","0","0.8","","0.5","0.5","","","","","","","0.8","0.2","","","","","","","","","","","","74","J","0","img/none_selected_demo.jpg","true","0","80_20_practice",""
"","bandit","34","139412","0.0-18.0-16.0","92678385","wem/bandit_party_1","ATUY1BTU5BQDE","either","3","261","","","","","","","0","1","0","","0.8","0.5","0.5","","","0.8","0.2","","","","","","","","","","","","","","","","74","J","0","img/none_selected_demo.jpg","true","0","80_20_practice",""
"","bandit","35","141140","0.0-18.0-17.0","92678385","wem/bandit_party_1","ATUY1BTU5BQDE","either","3","223","","","","","","","1","0","0","0.8","","0.5","0.5","","","","","","","0.8","0.2","","","","","","","","","","","","74","J","0","img/none_selected_demo.jpg","true","0","80_20_practice",""
"","bandit","36","142826","0.0-18.0-18.0","92678385","wem/bandit_party_1","ATUY1BTU5BQDE","either","3","183","","","","","","","1","0","0","0.8","","0.5","0.5","","","","","","","0.8","0.2","","","","","","","","","","","","74","J","0","img/none_selected_demo.jpg","true","0","80_20_practice",""
"","bandit","37","144487","0.0-18.0-19.0","92678385","wem/bandit_party_1","ATUY1BTU5BQDE","either","3","158","","","","","","","0","1","0","","0.8","0.5","0.5","","","0.8","0.2","","","","","","","","","","","","","","","","74","J","0","img/none_selected_demo.jpg","true","0","80_20_practice",""
"","text-replacement","38","148597","0.0-19.0","92678385","wem/bandit_party_1","ATUY1BTU5BQDE","either","3","4108","","","32","","","","","","","","","","","","","","","","","","","","","","","","","","","","","","","","","","","","",""
"","bandit","39","150990","0.0-20.0-0.0","92678385","wem/bandit_party_1","ATUY1BTU5BQDE","either","3","889","","","","","","","1","0","0","1","0","","","","","0","1","","","1","0","","","","","","","","","","","","74","J","0","img/none_selected_demo.jpg","true","0","",""
"","text-replacement","40","154427","0.0-21.0","92678385","wem/bandit_party_1","ATUY1BTU5BQDE","either","3","3436","","","32","","","","","","","","","","","","","","","","","","","","","","","","","","","","","","","","","","","","",""
"","text-replacement","41","157569","0.0-22.0","92678385","wem/bandit_party_1","ATUY1BTU5BQDE","either","3","3140","","","32","","","","","","","","","","","","","","","","","","","","","","","","","","","","","","","","","","","","",""
"","text-replacement","42","159820","0.0-23.0","92678385","wem/bandit_party_1","ATUY1BTU5BQDE","either","3","2250","","","32","","","","","","","","","","","","","","","","","","","","","","","","","","","","","","","","","","","","",""
"","text-replacement","43","162193","0.0-24.0","92678385","wem/bandit_party_1","ATUY1BTU5BQDE","either","3","2371","","","32","","","","","","","","","","","","","","","","","","","","","","","","","","","","","","","","","","","","",""
"","text-replacement","44","164153","0.0-25.0","92678385","wem/bandit_party_1","ATUY1BTU5BQDE","either","3","1959","","","32","","","","","","","","","","","","","","","","","","","","","","","","","","","","","","","","","","","","",""
"","text-replacement","45","166095","0.0-26.0","92678385","wem/bandit_party_1","ATUY1BTU5BQDE","either","3","1940","","","32","","","","","","","","","","","","","","","","","","","","","","","","","","","","","","","","","","","","",""
"","text-replacement","46","169595","0.0-27.0","92678385","wem/bandit_party_1","ATUY1BTU5BQDE","either","3","3499","","","32","","","","","","","","","","","","","","","","","","","","","","","","","","","","","","","","","","","","",""
"","text-replacement","47","172002","0.0-28.0","92678385","wem/bandit_party_1","ATUY1BTU5BQDE","either","3","2406","","","32","","","","","","","","","","","","","","","","","","","","","","","","","","","","","","","","","","","","",""
"","text-replacement","48","178408","0.0-29.0","92678385","wem/bandit_party_1","ATUY1BTU5BQDE","either","3","6404","","","32","","","","","","","","","","","","","","","","","","","","","","","","","","","","","","","","","","","","",""
"","text-replacement","49","180313","0.0-30.0","92678385","wem/bandit_party_1","ATUY1BTU5BQDE","either","3","1904","","","32","","","","","","","","","","","","","","","","","","","","","","","","","","","","","","","","","","","","",""
"","text-replacement","50","182042","0.0-31.0","92678385","wem/bandit_party_1","ATUY1BTU5BQDE","either","3","1728","","","32","","","","","","","","","","","","","","","","","","","","","","","","","","","","","","","","","","","","",""
"","bandit","51","184365","0.0-32.0-0.0","92678385","wem/bandit_party_1","ATUY1BTU5BQDE","either","3","818","","","","","","","0","1","0","","0.8","0.5","0.5","0.5","0.5","0.8","0.2","0.6","0.2","","","","","","","","","","","","","","72","H","0","img/none_selected.jpg","true","0","full_practice",""
"","bandit","52","185907","0.0-32.0-1.0","92678385","wem/bandit_party_1","ATUY1BTU5BQDE","either","3","37","","","","","","","1","0","0","0.8","","0.5","0.5","0.5","0.5","","","","","0.8","0.2","0.6","0.2","","","","","","","","","","72","H","0","img/none_selected.jpg","true","0","full_practice",""
"","bandit","53","187613","0.0-32.0-2.0","92678385","wem/bandit_party_1","ATUY1BTU5BQDE","either","3","201","","","","","","","0","1","0","","0.8","0.5","0.5","0.5","0.5","0.8","0.2","0.6","0.2","","","","","","","","","","","","","","72","H","0","img/none_selected.jpg","true","0","full_practice",""
"","bandit","54","189173","0.0-32.0-3.0","92678385","wem/bandit_party_1","ATUY1BTU5BQDE","either","3","54","","","","","","","0","1","0","","0.8","0.5","0.5","0.5","0.5","0.8","0.2","0.6","0.2","","","","","","","","","","","","","","72","H","0","img/none_selected.jpg","true","0","full_practice",""
"","bandit","55","190883","0.0-32.0-4.0","92678385","wem/bandit_party_1","ATUY1BTU5BQDE","either","3","205","","","","","","","1","0","0","0.8","","0.5","0.5","0.5","0.5","","","","","0.8","0.2","0.6","0.2","","","","","","","","","","72","H","0","img/none_selected.jpg","true","0","full_practice",""
"","bandit","56","192457","0.0-32.0-5.0","92678385","wem/bandit_party_1","ATUY1BTU5BQDE","either","3","69","","","","","","","1","0","0","0.8","","0.5","0.5","0.5","0.5","","","","","0.8","0.2","0.6","0.2","","","","","","","","","","72","H","0","img/none_selected.jpg","true","0","full_practice",""
"","bandit","57","194157","0.0-32.0-6.0","92678385","wem/bandit_party_1","ATUY1BTU5BQDE","either","3","195","","","","","","","0","1","0","","0.8","0.5","0.5","0.5","0.5","0.8","0.2","0.6","0.2","","","","","","","","","","","","","","72","H","0","img/none_selected.jpg","true","0","full_practice",""
"","bandit","58","195896","0.0-32.0-7.0","92678385","wem/bandit_party_1","ATUY1BTU5BQDE","either","3","233","","","","","","","1","0","0","0.8","","0.5","0.5","0.5","0.5","","","","","0.8","0.2","0.6","0.2","","","","","","","","","","72","H","0","img/none_selected.jpg","true","0","full_practice",""
"","bandit","59","197580","0.0-32.0-8.0","92678385","wem/bandit_party_1","ATUY1BTU5BQDE","either","3","181","","","","","","","0","1","0","","0.8","0.5","0.5","0.5","0.5","0.8","0.2","0.6","0.2","","","","","","","","","","","","","","72","H","0","img/none_selected.jpg","true","0","full_practice",""
"","bandit","60","199328","0.0-32.0-9.0","92678385","wem/bandit_party_1","ATUY1BTU5BQDE","either","3","243","","","","","","","0","1","0","","0.8","0.5","0.5","0.5","0.5","0.8","0.2","0.6","0.2","","","","","","","","","","","","","","72","H","0","img/none_selected.jpg","true","0","full_practice",""
"","bandit","61","201305","0.0-32.0-10.0","92678385","wem/bandit_party_1","ATUY1BTU5BQDE","either","3","473","","","","","","","0","1","0","","0.8","0.5","0.5","0.5","0.5","0.8","0.2","0.6","0.2","","","","","","","","","","","","","","72","H","0","img/none_selected.jpg","true","0","full_practice",""
"","bandit","62","203247","0.0-32.0-11.0","92678385","wem/bandit_party_1","ATUY1BTU5BQDE","either","3","435","","","","","","","0","1","0","","0.8","0.5","0.5","0.5","0.5","0.8","0.2","0.6","0.2","","","","","","","","","","","","","","72","H","0","img/none_selected.jpg","true","0","full_practice",""
"","bandit","63","205119","0.0-32.0-12.0","92678385","wem/bandit_party_1","ATUY1BTU5BQDE","either","3","366","","","","","","","1","0","0","0.8","","0.5","0.5","0.5","0.5","","","","","0.8","0.2","0.6","0.2","","","","","","","","","","72","H","0","img/none_selected.jpg","true","0","full_practice",""
"","bandit","64","206808","0.0-32.0-13.0","92678385","wem/bandit_party_1","ATUY1BTU5BQDE","either","3","184","","","","","","","1","0","0","0.8","","0.5","0.5","0.5","0.5","","","","","0.8","0.2","0.6","0.2","","","","","","","","","","72","H","0","img/none_selected.jpg","true","0","full_practice",""
"","bandit","65","208522","0.0-32.0-14.0","92678385","wem/bandit_party_1","ATUY1BTU5BQDE","either","3","209","","","","","","","0","0","1","0.8","","0.5","0.5","0.5","0.5","","","","","0.8","0.2","0.6","0.2","","","","","","","","","","72","H","0","img/none_selected.jpg","true","0","full_practice",""
"","bandit","66","210243","0.0-32.0-15.0","92678385","wem/bandit_party_1","ATUY1BTU5BQDE","either","3","216","","","","","","","0","1","0","","0.8","0.5","0.5","0.5","0.5","0.8","0.2","0.6","0.2","","","","","","","","","","","","","","72","H","0","img/none_selected.jpg","true","0","full_practice",""
"","bandit","67","211976","0.0-32.0-16.0","92678385","wem/bandit_party_1","ATUY1BTU5BQDE","either","3","229","","","","","","","1","0","0","0.8","","0.5","0.5","0.5","0.5","","","","","0.8","0.2","0.6","0.2","","","","","","","","","","72","H","0","img/none_selected.jpg","true","0","full_practice",""
"","bandit","68","213772","0.0-32.0-17.0","92678385","wem/bandit_party_1","ATUY1BTU5BQDE","either","3","291","","","","","","","1","0","0","0.8","","0.5","0.5","0.5","0.5","","","","","0.8","0.2","0.6","0.2","","","","","","","","","","72","H","0","img/none_selected.jpg","true","0","full_practice",""
"","bandit","69","215462","0.0-32.0-18.0","92678385","wem/bandit_party_1","ATUY1BTU5BQDE","either","3","186","","","","","","","0","1","0","","0.8","0.5","0.5","0.5","0.5","0.8","0.2","0.6","0.2","","","","","","","","","","","","","","72","H","0","img/none_selected.jpg","true","0","full_practice",""
"","bandit","70","217155","0.0-32.0-19.0","92678385","wem/bandit_party_1","ATUY1BTU5BQDE","either","3","186","","","","","","","0","1","0","","0.8","0.5","0.5","0.5","0.5","0.8","0.2","0.6","0.2","","","","","","","","","","","","","","72","H","0","img/none_selected.jpg","true","0","full_practice",""
"","text","71","220378","0.0-33.0","92678385","wem/bandit_party_1","ATUY1BTU5BQDE","either","3","3217","","","32","","","","","","","","","","","","","","","","","","","","","","","","","","","","","","","","","","","","",""
"","text-replacement","72","228030","0.0-34.0","92678385","wem/bandit_party_1","ATUY1BTU5BQDE","either","3","6648","","","32","","","","","","","","","","","","","","","","","","","","","","","","","","","","","","","","","","","","",""
"","text-replacement","73","231941","0.0-35.0","92678385","wem/bandit_party_1","ATUY1BTU5BQDE","either","3","3908","","","32","","","","","","","","","","","","","","","","","","","","","","","","","","","","","","","","","","","","",""
"","text-replacement","74","235318","0.0-36.0","92678385","wem/bandit_party_1","ATUY1BTU5BQDE","either","3","3376","","","32","","","","","","","","","","","","","","","","","","","","","","","","","","","","","","","","","","","","",""
"","text-replacement","75","238140","0.0-37.0","92678385","wem/bandit_party_1","ATUY1BTU5BQDE","either","3","2821","","","32","","","","","","","","","","","","","","","","","","","","","","","","","","","","","","","","","","","","",""
"","text-replacement","76","242168","0.0-38.0","92678385","wem/bandit_party_1","ATUY1BTU5BQDE","either","3","4026","","","32","","","","","","","","","","","","","","","","","","","","","","","","","","","","","","","","","","","","",""
"","survey-multi-choice-replacement","77","249786","0.0-39.0-0.0","92678385","wem/bandit_party_1","ATUY1BTU5BQDE","either","3","7609","","","","","","","","","","","","","","","","","","","","","","","","Money will be added to the pool for <span style='color:blue;'>DEMOCRATS</span>","","","","","","","attn_check","","","","","","","","","0"
"","survey-multi-choice-replacement","78","254582","0.0-40.0-0.0","92678385","wem/bandit_party_1","ATUY1BTU5BQDE","either","3","3789","","","","","","","","","","","","","","","","","","","","","","","","Equal amounts of money will be added to the pool for <span style='color:blue;'>DEMOCRATS</span> and subtracted from the pool for <span style='color:red;'>REPUBLICANS</span>","","","","","","","attn_check","","","","","","","","","2"
"","survey-multi-choice-replacement","79","258283","0.0-41.0-0.0","92678385","wem/bandit_party_1","ATUY1BTU5BQDE","either","3","2695","","","","","","","","","","","","","","","","","","","","","","","","No money will be added to either pool","","","","","","","attn_check","","","","","","","","","3"
"","bandit","80","263357","0.0-42.0-0.0","92678385","wem/bandit_party_1","ATUY1BTU5BQDE","either","3","2567","","","","","","","0","0","1","0.1646489015","","0.2","0.6","0.4","0.8","","","","","0.07685641067","0.1646489015","0.4870892339","0.1426046982","","","","","","","","","","74","J","1","","","1","main_expt",""
"","bandit","81","265564","0.0-43.0-0.0","92678385","wem/bandit_party_1","ATUY1BTU5BQDE","either","3","701","","","","","","","0","0","1","","0.2180431119","0.2","0.6","0.4","0.8","0.08388143876","0.2180431119","0.4875162112","0.1597004976","","","","","","","","","","","","","","74","J","1","","","2","main_expt",""
"","bandit","82","267463","0.0-44.0-0.0","92678385","wem/bandit_party_1","ATUY1BTU5BQDE","either","3","394","","","","","","","0","1","0","","0.4909945117","0.2","0.6","0.4","0.8","0.06528774038","0.2294217256","0.4909945117","0.1381850853","","","","","","","","","","","","","","75","K","2","","","3","main_expt",""
"","bandit","83","269265","0.0-45.0-0.0","92678385","wem/bandit_party_1","ATUY1BTU5BQDE","either","3","296","","","","","","","0","0","1","","0.482579304","0.2","0.6","0.4","0.8","0.07987899881","0.2162119515","0.482579304","0.1787932262","","","","","","","","","","","","","","75","K","2","","","4","main_expt",""
"","bandit","84","271014","0.0-46.0-0.0","92678385","wem/bandit_party_1","ATUY1BTU5BQDE","either","3","244","","","","","","","0","0","1","","0.4887913002","0.2","0.6","0.4","0.8","0.0432391811","0.2246316054","0.4887913002","0.1795032464","","","","","","","","","","","","","","75","K","2","","","5","main_expt",""
"","bandit","85","272809","0.0-47.0-0.0","92678385","wem/bandit_party_1","ATUY1BTU5BQDE","either","3","289","","","","","","","0","0","1","0.164375756","","0.2","0.6","0.4","0.8","","","","","0.03467601655","0.2061018479","0.4887860333","0.164375756","","","","","","","","","","76","L","3","","","6","main_expt",""
"","bandit","86","274537","0.0-48.0-0.0","92678385","wem/bandit_party_1","ATUY1BTU5BQDE","either","3","223","","","","","","","0","0","1","","0.05033951668","0.2","0.6","0.4","0.8","0.05033951668","0.1795347326","0.4901971563","0.204957223","","","","","","","","","","","","","","72","H","0","img/none_selected.jpg","","7","main_expt",""
"","bandit","87","276365","0.0-49.0-0.0","92678385","wem/bandit_party_1","ATUY1BTU5BQDE","either","3","323","","","","","","","0","0","1","","0.4862230721","0.2","0.6","0.4","0.8","0.07676355645","0.1290452752","0.4862230721","0.2162036531","","","","","","","","","","","","","","75","K","2","","","8","main_expt",""
"","bandit","88","278147","0.0-50.0-0.0","92678385","wem/bandit_party_1","ATUY1BTU5BQDE","either","3","277","","","","","","","0","0","1","","0.1559184374","0.2","0.6","0.4","0.8","0.08620859221","0.1559184374","0.4759730645","0.2167418122","","","","","","","","","","","","","","74","J","1","","","9","main_expt",""
"","bandit","89","279834","0.0-51.0-0.0","92678385","wem/bandit_party_1","ATUY1BTU5BQDE","either","3","182","","","","","","","0","0","1","","0.1103839657","0.2","0.6","0.4","0.8","0.1103839657","0.1381514788","0.4560980466","0.1607923637","","","","","","","","","","","","","","72","H","0","img/none_selected.jpg","","10","main_expt",""
"","bandit","90","281504","0.0-52.0-0.0","92678385","wem/bandit_party_1","ATUY1BTU5BQDE","either","3","165","","","","","","","0","0","1","0.1386410957","","0.2","0.6","0.4","0.8","","","","","0.1334948588","0.1271140015","0.4775116046","0.1386410957","","","","","","","","","","76","L","3","","","11","main_expt",""
"","bandit","91","283212","0.0-53.0-0.0","92678385","wem/bandit_party_1","ATUY1BTU5BQDE","either","3","204","","","","","","","0","0","1","","0.1854664659","0.2","0.6","0.4","0.8","0.1535602519","0.1854664659","0.4705073552","0.1718380738","","","","","","","","","","","","","","74","J","1","","","12","main_expt",""
"","bandit","92","284895","0.0-54.0-0.0","92678385","wem/bandit_party_1","ATUY1BTU5BQDE","either","3","179","","","","","","","0","0","1","","0.4851887342","0.2","0.6","0.4","0.8","0.127854239","0.1869952656","0.4851887342","0.1686303413","","","","","","","","","","","","","","75","K","2","","","13","main_expt",""
"","bandit","93","286579","0.0-55.0-0.0","92678385","wem/bandit_party_1","ATUY1BTU5BQDE","either","3","178","","","","","","","0","1","0","","0.4731273917","0.2","0.6","0.4","0.8","0.1507911491","0.2035171393","0.4731273917","0.1460019496","","","","","","","","","","","","","","75","K","2","","","14","main_expt",""
"","bandit","94","288196","0.0-56.0-0.0","92678385","wem/bandit_party_1","ATUY1BTU5BQDE","either","3","113","","","","","","","0","0","1","0.4585867004","","0.2","0.6","0.4","0.8","","","","","0.1741212098","0.2800299461","0.4585867004","0.1667614464","","","","","","","","","","75","K","2","","","15","main_expt",""
"","bandit","95","289836","0.0-57.0-0.0","92678385","wem/bandit_party_1","ATUY1BTU5BQDE","either","3","135","","","","","","","0","1","0","","0.4366533258","0.2","0.6","0.4","0.8","0.1918308831","0.2725454461","0.4366533258","0.1973644546","","","","","","","","","","","","","","75","K","2","","","16","main_expt",""
"","bandit","96","291548","0.0-58.0-0.0","92678385","wem/bandit_party_1","ATUY1BTU5BQDE","either","3","207","","","","","","","1","0","0","0.4405228744","","0.2","0.6","0.4","0.8","","","","","0.1950212473","0.1570621471","0.4405228744","0.1873415792","","","","","","","","","","75","K","2","","","17","main_expt",""
"","bandit","97","293263","0.0-59.0-0.0","92678385","wem/bandit_party_1","ATUY1BTU5BQDE","either","3","210","","","","","","","0","0","1","","0.4678551263","0.2","0.6","0.4","0.8","0.2094813194","0.1968188506","0.4678551263","0.1875860444","","","","","","","","","","","","","","75","K","2","","","18","main_expt",""
"","bandit","98","294824","0.0-60.0-0.0","92678385","wem/bandit_party_1","ATUY1BTU5BQDE","either","3","55","","","","","","","0","1","0","","0.466140525","0.2","0.6","0.4","0.8","0.2628959394","0.2439518204","0.466140525","0.1988439388","","","","","","","","","","","","","","75","K","2","","","19","main_expt",""
"","bandit","99","296533","0.0-61.0-0.0","92678385","wem/bandit_party_1","ATUY1BTU5BQDE","either","3","204","","","","","","","1","0","0","0.4094087999","","0.2","0.6","0.4","0.8","","","","","0.2116504525","0.2806117898","0.4094087999","0.1813993393","","","","","","","","","","75","K","2","","","20","main_expt",""
"","bandit","100","298243","0.0-62.0-0.0","92678385","wem/bandit_party_1","ATUY1BTU5BQDE","either","3","204","","","","","","","1","0","0","0.4386974508","","0.2","0.6","0.4","0.8","","","","","0.1904426465","0.2658005831","0.4386974508","0.2012004452","","","","","","","","","","75","K","2","","","21","main_expt",""
"","bandit","101","300002","0.0-63.0-0.0","92678385","wem/bandit_party_1","ATUY1BTU5BQDE","either","3","256","","","","","","","0","1","0","","0.4505723784","0.2","0.6","0.4","0.8","0.1581796968","0.2774390086","0.4505723784","0.1958646163","","","","","","","","","","","","","","75","K","2","","","22","main_expt",""
"","bandit","102","301737","0.0-64.0-0.0","92678385","wem/bandit_party_1","ATUY1BTU5BQDE","either","3","228","","","","","","","1","0","0","0.4568000239","","0.2","0.6","0.4","0.8","","","","","0.2039009352","0.2795917474","0.4568000239","0.2626819079","","","","","","","","","","75","K","2","","","23","main_expt",""
"","bandit","103","303374","0.0-65.0-0.0","92678385","wem/bandit_party_1","ATUY1BTU5BQDE","either","3","131","","","","","","","0","0","1","","0.4518339256","0.2","0.6","0.4","0.8","0.228339491","0.2981059477","0.4518339256","0.2906682881","","","","","","","","","","","","","","75","K","2","","","24","main_expt",""
"","bandit","104","305070","0.0-66.0-0.0","92678385","wem/bandit_party_1","ATUY1BTU5BQDE","either","3","190","","","","","","","0","1","0","","0.4120159309","0.2","0.6","0.4","0.8","0.2602465224","0.3272059922","0.4120159309","0.3270173502","","","","","","","","","","","","","","75","K","2","","","25","main_expt",""
"","bandit","105","306794","0.0-67.0-0.0","92678385","wem/bandit_party_1","ATUY1BTU5BQDE","either","3","218","","","","","","","0","0","1","","0.4134154185","0.2","0.6","0.4","0.8","0.1939420306","0.3369826645","0.4134154185","0.2951289915","","","","","","","","","","","","","","75","K","2","","","26","main_expt",""
"","bandit","106","308537","0.0-68.0-0.0","92678385","wem/bandit_party_1","ATUY1BTU5BQDE","either","3","240","","","","","","","0","0","1","","0.4031068294","0.2","0.6","0.4","0.8","0.2387331149","0.2531212506","0.4031068294","0.3520126272","","","","","","","","","","","","","","75","K","2","","","27","main_expt",""
"","bandit","107","310448","0.0-69.0-0.0","92678385","wem/bandit_party_1","ATUY1BTU5BQDE","either","3","403","","","","","","","0","0","1","","0.4305883772","0.2","0.6","0.4","0.8","0.2183458617","0.2170461037","0.4305883772","0.3369287003","","","","","","","","","","","","","","75","K","2","","","28","main_expt",""
"","bandit","108","312189","0.0-70.0-0.0","92678385","wem/bandit_party_1","ATUY1BTU5BQDE","either","3","236","","","","","","","1","0","0","0.4383329838","","0.2","0.6","0.4","0.8","","","","","0.2151501268","0.2346211465","0.4383329838","0.3591799128","","","","","","","","","","75","K","2","","","29","main_expt",""
"","bandit","109","313888","0.0-71.0-0.0","92678385","wem/bandit_party_1","ATUY1BTU5BQDE","either","3","193","","","","","","","1","0","0","0.4233276099","","0.2","0.6","0.4","0.8","","","","","0.2267233056","0.2450860663","0.4233276099","0.3324285477","","","","","","","","","","75","K","2","","","30","main_expt",""
"","bandit","110","315592","0.0-72.0-0.0","92678385","wem/bandit_party_1","ATUY1BTU5BQDE","either","3","198","","","","","","","0","0","1","","0.4016185005","0.2","0.6","0.4","0.8","0.2663701676","0.2141169407","0.4016185005","0.327032362","","","","","","","","","","","","","","75","K","2","","","31","main_expt",""
"","bandit","111","317239","0.0-73.0-0.0","92678385","wem/bandit_party_1","ATUY1BTU5BQDE","either","3","143","","","","","","","1","0","0","0.4134940178","","0.2","0.6","0.4","0.8","","","","","0.275969473","0.2347854155","0.4134940178","0.3230905041","","","","","","","","","","75","K","2","","","32","main_expt",""
"","bandit","112","319226","0.0-74.0-0.0","92678385","wem/bandit_party_1","ATUY1BTU5BQDE","either","3","482","","","","","","","0","1","0","","0.4331174495","0.2","0.6","0.4","0.8","0.3365270118","0.246596708","0.4331174495","0.2969008969","","","","","","","","","","","","","","75","K","2","","","33","main_expt",""
"","bandit","113","321621","0.0-75.0-0.0","92678385","wem/bandit_party_1","ATUY1BTU5BQDE","either","3","887","","","","","","","0","0","1","0.4454497031","","0.2","0.6","0.4","0.8","","","","","0.2916301021","0.1914370393","0.4454497031","0.2536392951","","","","","","","","","","75","K","2","","","34","main_expt",""
"","bandit","114","323526","0.0-76.0-0.0","92678385","wem/bandit_party_1","ATUY1BTU5BQDE","either","3","400","","","","","","","1","0","0","0.4419706984","","0.2","0.6","0.4","0.8","","","","","0.3236538836","0.1408207185","0.4419706984","0.2336030597","","","","","","","","","","75","K","2","","","35","main_expt",""
"","bandit","115","325155","0.0-77.0-0.0","92678385","wem/bandit_party_1","ATUY1BTU5BQDE","either","3","123","","","","","","","0","0","1","","0.4205940312","0.2","0.6","0.4","0.8","0.3317439785","0.09539735145","0.4205940312","0.3110392291","","","","","","","","","","","","","","75","K","2","","","36","main_expt",""
"","bandit","116","326730","0.0-78.0-0.0","92678385","wem/bandit_party_1","ATUY1BTU5BQDE","either","3","70","","","","","","","0","0","1","","0.08867332122","0.2","0.6","0.4","0.8","0.3620900841","0.08867332122","0.4227305347","0.3354302382","","","","","","","","","","","","","","74","J","1","","","37","main_expt",""
"","bandit","117","328570","0.0-79.0-0.0","92678385","wem/bandit_party_1","ATUY1BTU5BQDE","either","3","336","","","","","","","0","0","1","","0.0804097964","0.2","0.6","0.4","0.8","0.3649119955","0.0804097964","0.3904174821","0.3359947902","","","","","","","","","","","","","","74","J","1","","","38","main_expt",""
"","bandit","118","330417","0.0-80.0-0.0","92678385","wem/bandit_party_1","ATUY1BTU5BQDE","either","3","340","","","","","","","0","0","1","0.1092906338","","0.2","0.6","0.4","0.8","","","","","0.3993258453","0.1092906338","0.3704092514","0.3719467902","","","","","","","","","","74","J","1","","","39","main_expt",""
"","bandit","119","332132","0.0-81.0-0.0","92678385","wem/bandit_party_1","ATUY1BTU5BQDE","either","3","211","","","","","","","0","0","1","","0.43145226","0.2","0.6","0.4","0.8","0.43145226","0.08771014895","0.3250394812","0.37180955","","","","","","","","","","","","","","72","H","0","img/none_selected.jpg","","40","main_expt",""
"","bandit","120","333839","0.0-82.0-0.0","92678385","wem/bandit_party_1","ATUY1BTU5BQDE","either","3","200","","","","","","","0","1","0","","0.3925837484","0.2","0.6","0.4","0.8","0.3925837484","0.1065106481","0.3633775572","0.3972707938","","","","","","","","","","","","","","72","H","0","img/none_selected.jpg","","41","main_expt",""
"","bandit","121","335468","0.0-83.0-0.0","92678385","wem/bandit_party_1","ATUY1BTU5BQDE","either","3","124","","","","","","","0","0","1","","0.4020613291","0.2","0.6","0.4","0.8","0.4020613291","0.0926848955","0.3708570881","0.3981555674","","","","","","","","","","","","","","72","H","0","img/none_selected.jpg","","42","main_expt",""
"","bandit","122","337058","0.0-84.0-0.0","92678385","wem/bandit_party_1","ATUY1BTU5BQDE","either","3","86","","","","","","","0","1","0","","0.4199094288","0.2","0.6","0.4","0.8","0.4199094288","0.09213729174","0.3852030547","0.3698022864","","","","","","","","","","","","","","72","H","0","img/none_selected.jpg","","43","main_expt",""
"","bandit","123","338856","0.0-85.0-0.0","92678385","wem/bandit_party_1","ATUY1BTU5BQDE","either","3","292","","","","","","","0","0","1","","0.4362917367","0.2","0.6","0.4","0.8","0.4362917367","0.0950319608","0.3653477133","0.3278340923","","","","","","","","","","","","","","72","H","0","img/none_selected.jpg","","44","main_expt",""
"","bandit","124","340631","0.0-86.0-0.0","92678385","wem/bandit_party_1","ATUY1BTU5BQDE","either","3","270","","","","","","","0","0","1","","0.4310393502","0.2","0.6","0.4","0.8","0.4310393502","0.07917944011","0.3423722135","0.4004869948","","","","","","","","","","","","","","72","H","0","img/none_selected.jpg","","45","main_expt",""
"","bandit","125","342659","0.0-87.0-0.0","92678385","wem/bandit_party_1","ATUY1BTU5BQDE","either","3","522","","","","","","","1","0","0","0.4301719659","","0.2","0.6","0.4","0.8","","","","","0.4301719659","0.08528552535","0.2713785315","0.4389658195","","","","","","","","","","72","H","0","img/none_selected.jpg","","46","main_expt",""
"","bandit","126","345233","0.0-88.0-0.0","92678385","wem/bandit_party_1","ATUY1BTU5BQDE","either","3","1069","","","","","","","0","0","1","","0.4274268526","0.2","0.6","0.4","0.8","0.4274268526","0.08303267599","0.2675382036","0.4294918489","","","","","","","","","","","","","","72","H","0","img/none_selected.jpg","","47","main_expt",""
"","bandit","127","346992","0.0-89.0-0.0","92678385","wem/bandit_party_1","ATUY1BTU5BQDE","either","3","252","","","","","","","0","1","0","","0.4559220927","0.2","0.6","0.4","0.8","0.4559220927","0.1183490009","0.3006553151","0.3948346084","","","","","","","","","","","","","","72","H","0","img/none_selected.jpg","","48","main_expt",""
"","bandit","128","348669","0.0-90.0-0.0","92678385","wem/bandit_party_1","ATUY1BTU5BQDE","either","3","172","","","","","","","0","0","1","","0.4362936898","0.2","0.6","0.4","0.8","0.4362936898","0.09831357925","0.2865645246","0.4226663974","","","","","","","","","","","","","","72","H","0","img/none_selected.jpg","","49","main_expt",""
"","bandit","129","350297","0.0-91.0-0.0","92678385","wem/bandit_party_1","ATUY1BTU5BQDE","either","3","122","","","","","","","1","0","0","0.4001593617","","0.2","0.6","0.4","0.8","","","","","0.4001593617","0.0896163698","0.2842330123","0.3943232949","","","","","","","","","","72","H","0","img/none_selected.jpg","","50","main_expt",""
"","bandit","130","352075","0.0-92.0-0.0","92678385","wem/bandit_party_1","ATUY1BTU5BQDE","either","3","272","","","","","","","0","1","0","","0.3737598101","0.2","0.6","0.4","0.8","0.3737598101","0.08239790895","0.2933637591","0.3911898034","","","","","","","","","","","","","","72","H","0","img/none_selected.jpg","","51","main_expt",""
"","bandit","131","353634","0.0-93.0-0.0","92678385","wem/bandit_party_1","ATUY1BTU5BQDE","either","3","53","","","","","","","0","0","1","","0.3490564905","0.2","0.6","0.4","0.8","0.3490564905","0.06509061927","0.2802127762","0.3897106723","","","","","","","","","","","","","","72","H","0","img/none_selected.jpg","","52","main_expt",""
"","bandit","132","355269","0.0-94.0-0.0","92678385","wem/bandit_party_1","ATUY1BTU5BQDE","either","3","130","","","","","","","0","1","0","","0.3606416198","0.2","0.6","0.4","0.8","0.3606416198","0.05503049918","0.2567133084","0.3977919118","","","","","","","","","","","","","","72","H","0","img/none_selected.jpg","","53","main_expt",""
"","bandit","133","356940","0.0-95.0-0.0","92678385","wem/bandit_party_1","ATUY1BTU5BQDE","either","3","166","","","","","","","0","0","1","","0.3920172378","0.2","0.6","0.4","0.8","0.3920172378","0.06606451817","0.304436262","0.3803623479","","","","","","","","","","","","","","72","H","0","img/none_selected.jpg","","54","main_expt",""
"","bandit","134","358561","0.0-96.0-0.0","92678385","wem/bandit_party_1","ATUY1BTU5BQDE","either","3","116","","","","","","","0","1","0","","0.3841867886","0.2","0.6","0.4","0.8","0.3841867886","0.0812436444","0.3050376594","0.3898030924","","","","","","","","","","","","","","72","H","0","img/none_selected.jpg","","55","main_expt",""
"","bandit","135","360133","0.0-97.0-0.0","92678385","wem/bandit_party_1","ATUY1BTU5BQDE","either","3","66","","","","","","","0","0","1","","0.3752679739","0.2","0.6","0.4","0.8","0.3752679739","0.05752214818","0.2874076515","0.4332266089","","","","","","","","","","","","","","72","H","0","img/none_selected.jpg","","56","main_expt",""
"","bandit","136","361824","0.0-98.0-0.0","92678385","wem/bandit_party_1","ATUY1BTU5BQDE","either","3","185","","","","","","","0","1","0","","0.3595388075","0.2","0.6","0.4","0.8","0.3595388075","0.05957573693","0.2633226407","0.4598680415","","","","","","","","","","","","","","72","H","0","img/none_selected.jpg","","57","main_expt",""
"","bandit","137","363468","0.0-99.0-0.0","92678385","wem/bandit_party_1","ATUY1BTU5BQDE","either","3","140","","","","","","","0","0","1","","0.2926617498","0.2","0.6","0.4","0.8","0.2926617498","0.08347810371","0.282557186","0.4510058242","","","","","","","","","","","","","","72","H","0","img/none_selected.jpg","","58","main_expt",""
"","bandit","138","365064","0.0-100.0-0.0","92678385","wem/bandit_party_1","ATUY1BTU5BQDE","either","3","89","","","","","","","0","0","1","","0.2854140482","0.2","0.6","0.4","0.8","0.2854140482","0.1166757522","0.2675679041","0.4587464736","","","","","","","","","","","","","","72","H","0","img/none_selected.jpg","","59","main_expt",""
"","bandit","139","366582","0.0-101.0-0.0","92678385","wem/bandit_party_1","ATUY1BTU5BQDE","either","3","11","","","","","","","0","0","1","","0.2654645802","0.2","0.6","0.4","0.8","0.2767785787","0.1223048521","0.2654645802","0.4534111386","","","","","","","","","","","","","","75","K","2","","","60","main_expt",""
"","bandit","140","368191","0.0-102.0-0.0","92678385","wem/bandit_party_1","ATUY1BTU5BQDE","either","3","103","","","","","","","0","0","1","0.4581751116","","0.2","0.6","0.4","0.8","","","","","0.3110110239","0.1341525672","0.2326588137","0.4581751116","","","","","","","","","","76","L","3","","","61","main_expt",""
"","bandit","141","369911","0.0-103.0-0.0","92678385","wem/bandit_party_1","ATUY1BTU5BQDE","either","3","213","","","","","","","0","0","1","0.4447189615","","0.2","0.6","0.4","0.8","","","","","0.2739379344","0.1748443247","0.2430345153","0.4447189615","","","","","","","","","","76","L","3","","","62","main_expt",""
"","bandit","142","371595","0.0-104.0-0.0","92678385","wem/bandit_party_1","ATUY1BTU5BQDE","either","3","179","","","","","","","0","0","1","0.4351057758","","0.2","0.6","0.4","0.8","","","","","0.2518438402","0.1872250423","0.2682261916","0.4351057758","","","","","","","","","","76","L","3","","","63","main_expt",""
"","bandit","143","373138","0.0-105.0-0.0","92678385","wem/bandit_party_1","ATUY1BTU5BQDE","either","3","36","","","","","","","0","0","1","0.4559228662","","0.2","0.6","0.4","0.8","","","","","0.216118181","0.1592276408","0.3136585585","0.4559228662","","","","","","","","","","76","L","3","","","64","main_expt",""
"","bandit","144","374677","0.0-106.0-0.0","92678385","wem/bandit_party_1","ATUY1BTU5BQDE","either","3","32","","","","","","","0","0","1","0.1881419285","","0.2","0.6","0.4","0.8","","","","","0.1961712117","0.1881419285","0.3208042698","0.4526438492","","","","","","","","","","74","J","1","","","65","main_expt",""
"","bandit","145","376194","0.0-107.0-0.0","92678385","wem/bandit_party_1","ATUY1BTU5BQDE","either","3","10","","","","","","","0","0","1","","0.2075830042","0.2","0.6","0.4","0.8","0.1821057022","0.2075830042","0.3550213758","0.4604690516","","","","","","","","","","","","","","74","J","1","","","66","main_expt",""
"","bandit","146","377737","0.0-108.0-0.0","92678385","wem/bandit_party_1","ATUY1BTU5BQDE","either","3","38","","","","","","","0","0","1","0.210321401","","0.2","0.6","0.4","0.8","","","","","0.2221692745","0.210321401","0.2883445083","0.4479534522","","","","","","","","","","74","J","1","","","67","main_expt",""
"","bandit","147","379444","0.0-109.0-0.0","92678385","wem/bandit_party_1","ATUY1BTU5BQDE","either","3","203","","","","","","","0","0","1","","0.2385328342","0.2","0.6","0.4","0.8","0.2385328342","0.1740681144","0.2492112051","0.4420076102","","","","","","","","","","","","","","72","H","0","img/none_selected.jpg","","68","main_expt",""
"","bandit","148","381215","0.0-110.0-0.0","92678385","wem/bandit_party_1","ATUY1BTU5BQDE","either","3","265","","","","","","","0","0","1","","0.2693988132","0.2","0.6","0.4","0.8","0.2693988132","0.1495678232","0.1725364023","0.3840886122","","","","","","","","","","","","","","72","H","0","img/none_selected.jpg","","69","main_expt",""
"","bandit","149","382891","0.0-111.0-0.0","92678385","wem/bandit_party_1","ATUY1BTU5BQDE","either","3","170","","","","","","","0","0","1","","0.2633889128","0.2","0.6","0.4","0.8","0.2633889128","0.1594524764","0.2081322216","0.3764426572","","","","","","","","","","","","","","72","H","0","img/none_selected.jpg","","70","main_expt",""
"","bandit","150","384679","0.0-112.0-0.0","92678385","wem/bandit_party_1","ATUY1BTU5BQDE","either","3","284","","","","","","","0","0","1","","0.2222096595","0.2","0.6","0.4","0.8","0.2881785301","0.1308665948","0.2222096595","0.3925575972","","","","","","","","","","","","","","75","K","2","","","71","main_expt",""
"","bandit","151","386422","0.0-113.0-0.0","92678385","wem/bandit_party_1","ATUY1BTU5BQDE","either","3","237","","","","","","","0","0","1","0.2276413934","","0.2","0.6","0.4","0.8","","","","","0.3496752211","0.1413665491","0.2276413934","0.4055717031","","","","","","","","","","75","K","2","","","72","main_expt",""
"","bandit","152","388101","0.0-114.0-0.0","92678385","wem/bandit_party_1","ATUY1BTU5BQDE","either","3","173","","","","","","","0","1","0","","0.202726327","0.2","0.6","0.4","0.8","0.3662649551","0.1562096843","0.202726327","0.4313753627","","","","","","","","","","","","","","75","K","2","","","73","main_expt",""
"","bandit","153","389697","0.0-115.0-0.0","92678385","wem/bandit_party_1","ATUY1BTU5BQDE","either","3","90","","","","","","","0","0","1","","0.2465356434","0.2","0.6","0.4","0.8","0.3318597218","0.1601549975","0.2465356434","0.4294283137","","","","","","","","","","","","","","75","K","2","","","74","main_expt",""
"","bandit","154","391418","0.0-116.0-0.0","92678385","wem/bandit_party_1","ATUY1BTU5BQDE","either","3","215","","","","","","","0","1","0","","0.2780880013","0.2","0.6","0.4","0.8","0.3129946244","0.1962365409","0.2780880013","0.4114775526","","","","","","","","","","","","","","75","K","2","","","75","main_expt",""
"","bandit","155","393129","0.0-117.0-0.0","92678385","wem/bandit_party_1","ATUY1BTU5BQDE","either","3","207","","","","","","","0","0","1","0.230570622","","0.2","0.6","0.4","0.8","","","","","0.3299880354","0.2315068675","0.230570622","0.4038916894","","","","","","","","","","75","K","2","","","76","main_expt",""
"","bandit","156","394722","0.0-118.0-0.0","92678385","wem/bandit_party_1","ATUY1BTU5BQDE","either","3","87","","","","","","","0","0","1","","0.1747897532","0.2","0.6","0.4","0.8","0.2704336052","0.1749603823","0.1747897532","0.4028298088","","","","","","","","","","","","","","75","K","2","","","77","main_expt",""
"","bandit","157","396300","0.0-119.0-0.0","92678385","wem/bandit_party_1","ATUY1BTU5BQDE","either","3","73","","","","","","","0","0","1","","0.2009150394","0.2","0.6","0.4","0.8","0.2489008917","0.2091975686","0.2009150394","0.4004321452","","","","","","","","","","","","","","75","K","2","","","78","main_expt",""
"","bandit","158","398035","0.0-120.0-0.0","92678385","wem/bandit_party_1","ATUY1BTU5BQDE","either","3","230","","","","","","","0","0","1","0.2090883318","","0.2","0.6","0.4","0.8","","","","","0.2182462247","0.2699334682","0.2090883318","0.3909827091","","","","","","","","","","75","K","2","","","79","main_expt",""
"","bandit","159","399883","0.0-121.0-0.0","92678385","wem/bandit_party_1","ATUY1BTU5BQDE","either","3","342","","","","","","","0","0","1","0.2712134299","","0.2","0.6","0.4","0.8","","","","","0.1591694045","0.2712134299","0.215522018","0.4289339141","","","","","","","","","","74","J","1","","","80","main_expt",""
"","bandit","160","401486","0.0-122.0-0.0","92678385","wem/bandit_party_1","ATUY1BTU5BQDE","either","3","98","","","","","","","0","0","1","","0.2563236188","0.2","0.6","0.4","0.8","0.1661146317","0.2563236188","0.2655955182","0.4256341571","","","","","","","","","","","","","","74","J","1","","","81","main_expt",""
"","bandit","161","403041","0.0-123.0-0.0","92678385","wem/bandit_party_1","ATUY1BTU5BQDE","either","3","50","","","","","","","0","0","1","0.2474856626","","0.2","0.6","0.4","0.8","","","","","0.2249160828","0.2474856626","0.2642342948","0.4153375647","","","","","","","","","","74","J","1","","","82","main_expt",""
"","bandit","162","404824","0.0-124.0-0.0","92678385","wem/bandit_party_1","ATUY1BTU5BQDE","either","3","276","","","","","","","0","0","1","","0.2338037125","0.2","0.6","0.4","0.8","0.2194800234","0.2338037125","0.2615040017","0.4239102097","","","","","","","","","","","","","","74","J","1","","","83","main_expt",""
"","bandit","163","406450","0.0-125.0-0.0","92678385","wem/bandit_party_1","ATUY1BTU5BQDE","either","3","119","","","","","","","0","0","1","","0.2929655049","0.2","0.6","0.4","0.8","0.2020024956","0.2929655049","0.3136368113","0.4021041833","","","","","","","","","","","","","","74","J","1","","","84","main_expt",""
"","bandit","164","408329","0.0-126.0-0.0","92678385","wem/bandit_party_1","ATUY1BTU5BQDE","either","3","374","","","","","","","0","0","1","","0.1639230135","0.2","0.6","0.4","0.8","0.1639230135","0.2755572306","0.2433538552","0.4322374594","","","","","","","","","","","","","","72","H","0","img/none_selected.jpg","","85","main_expt",""
"","bandit","165","410041","0.0-127.0-0.0","92678385","wem/bandit_party_1","ATUY1BTU5BQDE","either","3","206","","","","","","","0","0","1","0.1423092638","","0.2","0.6","0.4","0.8","","","","","0.1423092638","0.2706615249","0.2583740773","0.4247618508","","","","","","","","","","72","H","0","img/none_selected.jpg","","86","main_expt",""
"","bandit","166","411748","0.0-128.0-0.0","92678385","wem/bandit_party_1","ATUY1BTU5BQDE","either","3","199","","","","","","","0","0","1","","0.1623313408","0.2","0.6","0.4","0.8","0.1623313408","0.3259805539","0.2656778135","0.4130492334","","","","","","","","","","","","","","72","H","0","img/none_selected.jpg","","87","main_expt",""
"","bandit","167","413308","0.0-129.0-0.0","92678385","wem/bandit_party_1","ATUY1BTU5BQDE","either","3","54","","","","","","","0","0","1","","0.1459946163","0.2","0.6","0.4","0.8","0.1459946163","0.3471137027","0.2565525481","0.3883747858","","","","","","","","","","","","","","72","H","0","img/none_selected.jpg","","88","main_expt",""
"","bandit","168","414836","0.0-130.0-0.0","92678385","wem/bandit_party_1","ATUY1BTU5BQDE","either","3","20","","","","","","","0","1","0","","0.1684807643","0.2","0.6","0.4","0.8","0.1684807643","0.3715311126","0.2471999074","0.3950807547","","","","","","","","","","","","","","72","H","0","img/none_selected.jpg","","89","main_expt",""
"","bandit","169","416580","0.0-131.0-0.0","92678385","wem/bandit_party_1","ATUY1BTU5BQDE","either","3","236","","","","","","","0","0","1","","0.1937692241","0.2","0.6","0.4","0.8","0.1937692241","0.3571728809","0.2204199549","0.420982679","","","","","","","","","","","","","","72","H","0","img/none_selected.jpg","","90","main_expt",""
"","bandit","170","418794","0.0-132.0-0.0","92678385","wem/bandit_party_1","ATUY1BTU5BQDE","either","3","707","","","","","","","0","0","1","","0.1670397906","0.2","0.6","0.4","0.8","0.1670397906","0.3348642023","0.2013548925","0.4012606491","","","","","","","","","","","","","","72","H","0","img/none_selected.jpg","","91","main_expt",""
"","bandit","171","420433","0.0-133.0-0.0","92678385","wem/bandit_party_1","ATUY1BTU5BQDE","either","3","132","","","","","","","0","0","1","0.1936095216","","0.2","0.6","0.4","0.8","","","","","0.1936095216","0.3551195155","0.174921714","0.3950870333","","","","","","","","","","72","H","0","img/none_selected.jpg","","92","main_expt",""
"","bandit","172","422142","0.0-134.0-0.0","92678385","wem/bandit_party_1","ATUY1BTU5BQDE","either","3","203","","","","","","","0","0","1","0.3797372222","","0.2","0.6","0.4","0.8","","","","","0.2399824117","0.3494458231","0.1972058505","0.3797372222","","","","","","","","","","76","L","3","","","93","main_expt",""
"","bandit","173","423825","0.0-135.0-0.0","92678385","wem/bandit_party_1","ATUY1BTU5BQDE","either","3","176","","","","","","","0","0","1","","0.3346339076","0.2","0.6","0.4","0.8","0.242536602","0.3759818745","0.2144007407","0.3346339076","","","","","","","","","","","","","","76","L","3","","","94","main_expt",""
"","bandit","174","425473","0.0-136.0-0.0","92678385","wem/bandit_party_1","ATUY1BTU5BQDE","either","3","139","","","","","","","0","0","1","0.3433005441","","0.2","0.6","0.4","0.8","","","","","0.3081296623","0.3467088588","0.2025691914","0.3433005441","","","","","","","","","","76","L","3","","","95","main_expt",""
"","bandit","175","427177","0.0-137.0-0.0","92678385","wem/bandit_party_1","ATUY1BTU5BQDE","either","3","198","","","","","","","0","0","1","","0.2900415689","0.2","0.6","0.4","0.8","0.371766452","0.3520186383","0.1750118246","0.2900415689","","","","","","","","","","","","","","76","L","3","","","96","main_expt",""
"","bandit","176","428888","0.0-138.0-0.0","92678385","wem/bandit_party_1","ATUY1BTU5BQDE","either","3","205","","","","","","","0","0","1","0.3136050561","","0.2","0.6","0.4","0.8","","","","","0.3737721809","0.342216001","0.2433812568","0.3136050561","","","","","","","","","","76","L","3","","","97","main_expt",""
"","bandit","177","430637","0.0-139.0-0.0","92678385","wem/bandit_party_1","ATUY1BTU5BQDE","either","3","244","","","","","","","0","0","1","","0.3236610102","0.2","0.6","0.4","0.8","0.3662625892","0.3775958225","0.1834100281","0.3236610102","","","","","","","","","","","","","","76","L","3","","","98","main_expt",""
"","bandit","178","432349","0.0-140.0-0.0","92678385","wem/bandit_party_1","ATUY1BTU5BQDE","either","3","205","","","","","","","0","0","1","","0.3912879072","0.2","0.6","0.4","0.8","0.3912879072","0.3490624926","0.146161558","0.3116662608","","","","","","","","","","","","","","72","H","0","img/none_selected.jpg","","99","main_expt",""
"","bandit","179","434077","0.0-141.0-0.0","92678385","wem/bandit_party_1","ATUY1BTU5BQDE","either","3","222","","","","","","","0","0","1","","0.3916888764","0.2","0.6","0.4","0.8","0.3916888764","0.3418910903","0.1186266926","0.3806420769","","","","","","","","","","","","","","72","H","0","img/none_selected.jpg","","100","main_expt",""
"","bandit","180","435732","0.0-142.0-0.0","92678385","wem/bandit_party_1","ATUY1BTU5BQDE","either","3","148","","","","","","","0","1","0","","0.3803758031","0.2","0.6","0.4","0.8","0.3803758031","0.3544055354","0.1467879228","0.3825052475","","","","","","","","","","","","","","72","H","0","img/none_selected.jpg","","101","main_expt",""
"","bandit","181","437342","0.0-143.0-0.0","92678385","wem/bandit_party_1","ATUY1BTU5BQDE","either","3","103","","","","","","","0","0","1","","0.3685266224","0.2","0.6","0.4","0.8","0.3685266224","0.3580864163","0.1336514036","0.3799327693","","","","","","","","","","","","","","72","H","0","img/none_selected.jpg","","102","main_expt",""
"","bandit","182","439008","0.0-144.0-0.0","92678385","wem/bandit_party_1","ATUY1BTU5BQDE","either","3","160","","","","","","","1","0","0","0.3754978655","","0.2","0.6","0.4","0.8","","","","","0.3754978655","0.336528594","0.1325092095","0.3502018886","","","","","","","","","","72","H","0","img/none_selected.jpg","","103","main_expt",""
"","bandit","183","440716","0.0-145.0-0.0","92678385","wem/bandit_party_1","ATUY1BTU5BQDE","either","3","202","","","","","","","0","0","1","","0.4033056484","0.2","0.6","0.4","0.8","0.4033056484","0.3190078166","0.1162839287","0.3443431466","","","","","","","","","","","","","","72","H","0","img/none_selected.jpg","","104","main_expt",""
"","bandit","184","442376","0.0-146.0-0.0","92678385","wem/bandit_party_1","ATUY1BTU5BQDE","either","3","154","","","","","","","0","0","1","","0.3617388181","0.2","0.6","0.4","0.8","0.3617388181","0.3100940773","0.115620258","0.3551378046","","","","","","","","","","","","","","72","H","0","img/none_selected.jpg","","105","main_expt",""
"","bandit","185","444206","0.0-147.0-0.0","92678385","wem/bandit_party_1","ATUY1BTU5BQDE","either","3","324","","","","","","","0","0","1","","0.3656875331","0.2","0.6","0.4","0.8","0.3656875331","0.2964842485","0.1102569517","0.3177956882","","","","","","","","","","","","","","72","H","0","img/none_selected.jpg","","106","main_expt",""
"","bandit","186","445935","0.0-148.0-0.0","92678385","wem/bandit_party_1","ATUY1BTU5BQDE","either","3","222","","","","","","","0","1","0","","0.3478183852","0.2","0.6","0.4","0.8","0.3478183852","0.3224579283","0.110599846","0.3463124521","","","","","","","","","","","","","","72","H","0","img/none_selected.jpg","","107","main_expt",""
"","bandit","187","447671","0.0-149.0-0.0","92678385","wem/bandit_party_1","ATUY1BTU5BQDE","either","3","230","","","","","","","0","0","1","","0.3715517583","0.2","0.6","0.4","0.8","0.3715517583","0.3365568187","0.1647947233","0.330790185","","","","","","","","","","","","","","72","H","0","img/none_selected.jpg","","108","main_expt",""
"","bandit","188","449369","0.0-150.0-0.0","92678385","wem/bandit_party_1","ATUY1BTU5BQDE","either","3","192","","","","","","","0","0","1","0.3713851569","","0.2","0.6","0.4","0.8","","","","","0.3713851569","0.3200824859","0.146095753","0.3259779601","","","","","","","","","","72","H","0","img/none_selected.jpg","","109","main_expt",""
"","bandit","189","451073","0.0-151.0-0.0","92678385","wem/bandit_party_1","ATUY1BTU5BQDE","either","3","196","","","","","","","0","0","1","","0.3401672382","0.2","0.6","0.4","0.8","0.3401672382","0.3179471713","0.1691954855","0.3169053314","","","","","","","","","","","","","","72","H","0","img/none_selected.jpg","","110","main_expt",""
"","bandit","190","452802","0.0-152.0-0.0","92678385","wem/bandit_party_1","ATUY1BTU5BQDE","either","3","222","","","","","","","0","1","0","","0.3242328008","0.2","0.6","0.4","0.8","0.3242328008","0.3168158386","0.1690298198","0.342138516","","","","","","","","","","","","","","72","H","0","img/none_selected.jpg","","111","main_expt",""
"","bandit","191","454538","0.0-153.0-0.0","92678385","wem/bandit_party_1","ATUY1BTU5BQDE","either","3","229","","","","","","","0","1","0","","0.2991119965","0.2","0.6","0.4","0.8","0.2991119965","0.3551606626","0.2196992501","0.3597886873","","","","","","","","","","","","","","72","H","0","img/none_selected.jpg","","112","main_expt",""
"","bandit","192","456313","0.0-154.0-0.0","92678385","wem/bandit_party_1","ATUY1BTU5BQDE","either","3","266","","","","","","","0","1","0","","0.3364281798","0.2","0.6","0.4","0.8","0.3364281798","0.3615444015","0.2723467559","0.3580549124","","","","","","","","","","","","","","72","H","0","img/none_selected.jpg","","113","main_expt",""
"","bandit","193","458057","0.0-155.0-0.0","92678385","wem/bandit_party_1","ATUY1BTU5BQDE","either","3","236","","","","","","","0","0","1","0.3495122724","","0.2","0.6","0.4","0.8","","","","","0.3495122724","0.4043222556","0.2470985199","0.3556181037","","","","","","","","","","72","H","0","img/none_selected.jpg","","114","main_expt",""
"","bandit","194","459789","0.0-156.0-0.0","92678385","wem/bandit_party_1","ATUY1BTU5BQDE","either","3","227","","","","","","","0","1","0","","0.324938203","0.2","0.6","0.4","0.8","0.324938203","0.4179696435","0.2482590513","0.3489042174","","","","","","","","","","","","","","72","H","0","img/none_selected.jpg","","115","main_expt",""
"","bandit","195","461499","0.0-157.0-0.0","92678385","wem/bandit_party_1","ATUY1BTU5BQDE","either","3","203","","","","","","","1","0","0","0.3227512736","","0.2","0.6","0.4","0.8","","","","","0.3227512736","0.4324393975","0.1992012358","0.3466245191","","","","","","","","","","72","H","0","img/none_selected.jpg","","116","main_expt",""
"","bandit","196","463297","0.0-158.0-0.0","92678385","wem/bandit_party_1","ATUY1BTU5BQDE","either","3","291","","","","","","","0","0","1","","0.2585209305","0.2","0.6","0.4","0.8","0.2585209305","0.4290779421","0.216355905","0.3581754781","","","","","","","","","","","","","","72","H","0","img/none_selected.jpg","","117","main_expt",""
"","bandit","197","464958","0.0-159.0-0.0","92678385","wem/bandit_party_1","ATUY1BTU5BQDE","either","3","155","","","","","","","0","0","1","","0.2817260076","0.2","0.6","0.4","0.8","0.2817260076","0.4459264202","0.1715453935","0.283939031","","","","","","","","","","","","","","72","H","0","img/none_selected.jpg","","118","main_expt",""
"","bandit","198","466645","0.0-160.0-0.0","92678385","wem/bandit_party_1","ATUY1BTU5BQDE","either","3","182","","","","","","","0","0","1","","0.328214026","0.2","0.6","0.4","0.8","0.328214026","0.436995295","0.1843456939","0.2992634423","","","","","","","","","","","","","","72","H","0","img/none_selected.jpg","","119","main_expt",""
"","bandit","199","468280","0.0-161.0-0.0","92678385","wem/bandit_party_1","ATUY1BTU5BQDE","either","3","127","","","","","","","0","0","1","","0.3355603121","0.2","0.6","0.4","0.8","0.3355603121","0.4151314625","0.1848061615","0.1878150733","","","","","","","","","","","","","","72","H","0","img/none_selected.jpg","","120","main_expt",""
"","bandit","200","469959","0.0-162.0-0.0","92678385","wem/bandit_party_1","ATUY1BTU5BQDE","either","3","171","","","","","","","1","0","0","0.3829587724","","0.2","0.6","0.4","0.8","","","","","0.3829587724","0.4384064527","0.1679578636","0.1447458933","","","","","","","","","","72","H","0","img/none_selected.jpg","","121","main_expt",""
"","bandit","201","471891","0.0-163.0-0.0","92678385","wem/bandit_party_1","ATUY1BTU5BQDE","either","3","424","","","","","","","0","0","1","","0.3995678287","0.2","0.6","0.4","0.8","0.3995678287","0.4417589501","0.197295971","0.1176060398","","","","","","","","","","","","","","72","H","0","img/none_selected.jpg","","122","main_expt",""
"","bandit","202","473562","0.0-164.0-0.0","92678385","wem/bandit_party_1","ATUY1BTU5BQDE","either","3","164","","","","","","","0","0","1","","0.3656739583","0.2","0.6","0.4","0.8","0.3656739583","0.4017154396","0.2184653352","0.1097677055","","","","","","","","","","","","","","72","H","0","img/none_selected.jpg","","123","main_expt",""
"","bandit","203","475280","0.0-165.0-0.0","92678385","wem/bandit_party_1","ATUY1BTU5BQDE","either","3","210","","","","","","","1","0","0","0.3862549257","","0.2","0.6","0.4","0.8","","","","","0.3862549257","0.3619070526","0.2147868977","0.08048168986","","","","","","","","","","72","H","0","img/none_selected.jpg","","124","main_expt",""
"","bandit","204","477060","0.0-166.0-0.0","92678385","wem/bandit_party_1","ATUY1BTU5BQDE","either","3","274","","","","","","","0","0","1","","0.3593796239","0.2","0.6","0.4","0.8","0.3593796239","0.3567490645","0.1667936559","0.07842900555","","","","","","","","","","","","","","72","H","0","img/none_selected.jpg","","125","main_expt",""
"","bandit","205","478605","0.0-167.0-0.0","92678385","wem/bandit_party_1","ATUY1BTU5BQDE","either","3","38","","","","","","","0","0","1","","0.3413194209","0.2","0.6","0.4","0.8","0.3413194209","0.3558473019","0.1453295256","0.08318363027","","","","","","","","","","","","","","72","H","0","img/none_selected.jpg","","126","main_expt",""
"","bandit","206","480256","0.0-168.0-0.0","92678385","wem/bandit_party_1","ATUY1BTU5BQDE","either","3","143","","","","","","","0","0","1","","0.3369929262","0.2","0.6","0.4","0.8","0.3369929262","0.3543069734","0.1635755653","0.06812438963","","","","","","","","","","","","","","72","H","0","img/none_selected.jpg","","127","main_expt",""
"","bandit","207","481869","0.0-169.0-0.0","92678385","wem/bandit_party_1","ATUY1BTU5BQDE","either","3","107","","","","","","","0","0","1","","0.2922989636","0.2","0.6","0.4","0.8","0.2922989636","0.3328374851","0.1872639566","0.08303766286","","","","","","","","","","","","","","72","H","0","img/none_selected.jpg","","128","main_expt",""
"","bandit","208","483411","0.0-170.0-0.0","92678385","wem/bandit_party_1","ATUY1BTU5BQDE","either","3","36","","","","","","","0","0","1","","0.3095146075","0.2","0.6","0.4","0.8","0.3095146075","0.3238683282","0.2032718864","0.09047360051","","","","","","","","","","","","","","72","H","0","img/none_selected.jpg","","129","main_expt",""
"","bandit","209","485054","0.0-171.0-0.0","92678385","wem/bandit_party_1","ATUY1BTU5BQDE","either","3","136","","","","","","","0","1","0","","0.3068425872","0.2","0.6","0.4","0.8","0.3068425872","0.2750329062","0.2025864764","0.131542256","","","","","","","","","","","","","","72","H","0","img/none_selected.jpg","","130","main_expt",""
"","bandit","210","486775","0.0-172.0-0.0","92678385","wem/bandit_party_1","ATUY1BTU5BQDE","either","3","214","","","","","","","0","0","1","","0.3112504131","0.2","0.6","0.4","0.8","0.3112504131","0.2751886228","0.2158584071","0.1492019489","","","","","","","","","","","","","","72","H","0","img/none_selected.jpg","","131","main_expt",""
"","bandit","211","488346","0.0-173.0-0.0","92678385","wem/bandit_party_1","ATUY1BTU5BQDE","either","3","66","","","","","","","0","1","0","","0.3595653039","0.2","0.6","0.4","0.8","0.3595653039","0.2729729886","0.2105840197","0.1571188116","","","","","","","","","","","","","","72","H","0","img/none_selected.jpg","","132","main_expt",""
"","bandit","212","490009","0.0-174.0-0.0","92678385","wem/bandit_party_1","ATUY1BTU5BQDE","either","3","155","","","","","","","0","1","0","","0.3873527377","0.2","0.6","0.4","0.8","0.3873527377","0.3248088544","0.2328486735","0.2021073832","","","","","","","","","","","","","","72","H","0","img/none_selected.jpg","","133","main_expt",""
"","bandit","213","491680","0.0-175.0-0.0","92678385","wem/bandit_party_1","ATUY1BTU5BQDE","either","3","164","","","","","","","0","0","1","0.3973884711","","0.2","0.6","0.4","0.8","","","","","0.3973884711","0.3596446835","0.2589092944","0.2693148074","","","","","","","","","","72","H","0","img/none_selected.jpg","","134","main_expt",""
"","bandit","214","493410","0.0-176.0-0.0","92678385","wem/bandit_party_1","ATUY1BTU5BQDE","either","3","223","","","","","","","0","1","0","","0.4080523157","0.2","0.6","0.4","0.8","0.4080523157","0.318377279","0.2637326353","0.2625780805","","","","","","","","","","","","","","72","H","0","img/none_selected.jpg","","135","main_expt",""
"","bandit","215","494998","0.0-177.0-0.0","92678385","wem/bandit_party_1","ATUY1BTU5BQDE","either","3","79","","","","","","","0","1","0","","0.4176503084","0.2","0.6","0.4","0.8","0.4176503084","0.3160887017","0.2718680576","0.2981707722","","","","","","","","","","","","","","72","H","0","img/none_selected.jpg","","136","main_expt",""
"","bandit","216","496692","0.0-178.0-0.0","92678385","wem/bandit_party_1","ATUY1BTU5BQDE","either","3","187","","","","","","","0","1","0","","0.3859803947","0.2","0.6","0.4","0.8","0.3859803947","0.2883225013","0.2919957672","0.3148158286","","","","","","","","","","","","","","72","H","0","img/none_selected.jpg","","137","main_expt",""
"","bandit","217","498392","0.0-179.0-0.0","92678385","wem/bandit_party_1","ATUY1BTU5BQDE","either","3","193","","","","","","","0","0","1","","0.358492916","0.2","0.6","0.4","0.8","0.358492916","0.3009152141","0.3193993407","0.3111523267","","","","","","","","","","","","","","72","H","0","img/none_selected.jpg","","138","main_expt",""
"","bandit","218","500079","0.0-180.0-0.0","92678385","wem/bandit_party_1","ATUY1BTU5BQDE","either","3","180","","","","","","","0","0","1","","0.3608756281","0.2","0.6","0.4","0.8","0.3608756281","0.293720077","0.3404434035","0.3034593298","","","","","","","","","","","","","","72","H","0","img/none_selected.jpg","","139","main_expt",""
"","bandit","219","502006","0.0-181.0-0.0","92678385","wem/bandit_party_1","ATUY1BTU5BQDE","either","3","420","","","","","","","0","0","1","","0.3421836092","0.2","0.6","0.4","0.8","0.3421836092","0.286059761","0.3278052243","0.2507495005","","","","","","","","","","","","","","72","H","0","img/none_selected.jpg","","140","main_expt",""
"","bandit","220","503702","0.0-182.0-0.0","92678385","wem/bandit_party_1","ATUY1BTU5BQDE","either","3","189","","","","","","","0","0","1","0.3737340371","","0.2","0.6","0.4","0.8","","","","","0.3737340371","0.2931724706","0.3038906839","0.2220694513","","","","","","","","","","72","H","0","img/none_selected.jpg","","141","main_expt",""
"","bandit","221","505436","0.0-183.0-0.0","92678385","wem/bandit_party_1","ATUY1BTU5BQDE","either","3","228","","","","","","","0","0","1","","0.3461121542","0.2","0.6","0.4","0.8","0.3461121542","0.2182180164","0.2924195757","0.2119249064","","","","","","","","","","","","","","72","H","0","img/none_selected.jpg","","142","main_expt",""
"","bandit","222","507324","0.0-184.0-0.0","92678385","wem/bandit_party_1","ATUY1BTU5BQDE","either","3","381","","","","","","","0","0","1","","0.3305931074","0.2","0.6","0.4","0.8","0.3305931074","0.2015475508","0.2816149275","0.2665135591","","","","","","","","","","","","","","72","H","0","img/none_selected.jpg","","143","main_expt",""
"","bandit","223","509110","0.0-185.0-0.0","92678385","wem/bandit_party_1","ATUY1BTU5BQDE","either","3","279","","","","","","","0","0","1","","0.3561039987","0.2","0.6","0.4","0.8","0.3561039987","0.2074070562","0.2355525614","0.2854155153","","","","","","","","","","","","","","72","H","0","img/none_selected.jpg","","144","main_expt",""
"","bandit","224","510869","0.0-186.0-0.0","92678385","wem/bandit_party_1","ATUY1BTU5BQDE","either","3","251","","","","","","","0","0","1","","0.3648023512","0.2","0.6","0.4","0.8","0.3648023512","0.1415368311","0.2185662272","0.2521048148","","","","","","","","","","","","","","72","H","0","img/none_selected.jpg","","145","main_expt",""
"","bandit","225","512663","0.0-187.0-0.0","92678385","wem/bandit_party_1","ATUY1BTU5BQDE","either","3","287","","","","","","","0","1","0","","0.3450315","0.2","0.6","0.4","0.8","0.3450315","0.1549520657","0.2209315791","0.2321266643","","","","","","","","","","","","","","72","H","0","img/none_selected.jpg","","146","main_expt",""
"","bandit","226","514392","0.0-188.0-0.0","92678385","wem/bandit_party_1","ATUY1BTU5BQDE","either","3","223","","","","","","","0","0","1","0.2720321141","","0.2","0.6","0.4","0.8","","","","","0.2720321141","0.1469310363","0.2889766311","0.3159383216","","","","","","","","","","72","H","0","img/none_selected.jpg","","147","main_expt",""
"","bandit","227","516093","0.0-189.0-0.0","92678385","wem/bandit_party_1","ATUY1BTU5BQDE","either","3","193","","","","","","","0","0","1","0.2598972664","","0.2","0.6","0.4","0.8","","","","","0.2598972664","0.1332828417","0.2859466156","0.2673485129","","","","","","","","","","72","H","0","img/none_selected.jpg","","148","main_expt",""
"","bandit","228","517825","0.0-190.0-0.0","92678385","wem/bandit_party_1","ATUY1BTU5BQDE","either","3","226","","","","","","","0","0","1","","0.2343157719","0.2","0.6","0.4","0.8","0.2343157719","0.1102010463","0.2588478233","0.3348600541","","","","","","","","","","","","","","72","H","0","img/none_selected.jpg","","149","main_expt",""
"","bandit","229","519465","0.0-191.0-0.0","92678385","wem/bandit_party_1","ATUY1BTU5BQDE","either","3","133","","","","","","","0","1","0","","0.2451363599","0.2","0.6","0.4","0.8","0.2451363599","0.1356103494","0.2224653457","0.3659656834","","","","","","","","","","","","","","72","H","0","img/none_selected.jpg","","150","main_expt",""
"","bandit","230","521170","0.0-192.0-0.0","92678385","wem/bandit_party_1","ATUY1BTU5BQDE","either","3","198","","","","","","","0","0","1","","0.2053737132","0.2","0.6","0.4","0.8","0.2053737132","0.1621229287","0.2387237716","0.36397653","","","","","","","","","","","","","","72","H","0","img/none_selected.jpg","","151","main_expt",""
"","bandit","231","522924","0.0-193.0-0.0","92678385","wem/bandit_party_1","ATUY1BTU5BQDE","either","3","248","","","","","","","0","0","1","","0.2396242378","0.2","0.6","0.4","0.8","0.2396242378","0.1412745606","0.2519133504","0.3710672623","","","","","","","","","","","","","","72","H","0","img/none_selected.jpg","","152","main_expt",""
"","bandit","232","524498","0.0-194.0-0.0","92678385","wem/bandit_party_1","ATUY1BTU5BQDE","either","3","67","","","","","","","0","0","1","","0.2923277395","0.2","0.6","0.4","0.8","0.2923277395","0.1707580034","0.3078499427","0.3828607765","","","","","","","","","","","","","","72","H","0","img/none_selected.jpg","","153","main_expt",""
"","bandit","233","526120","0.0-195.0-0.0","92678385","wem/bandit_party_1","ATUY1BTU5BQDE","either","3","116","","","","","","","0","1","0","","0.3166515581","0.2","0.6","0.4","0.8","0.3166515581","0.1717455462","0.3283820497","0.3526468527","","","","","","","","","","","","","","72","H","0","img/none_selected.jpg","","154","main_expt",""
"","bandit","234","527849","0.0-196.0-0.0","92678385","wem/bandit_party_1","ATUY1BTU5BQDE","either","3","221","","","","","","","0","1","0","","0.3194616596","0.2","0.6","0.4","0.8","0.3194616596","0.1785539081","0.3303057687","0.3865981945","","","","","","","","","","","","","","72","H","0","img/none_selected.jpg","","155","main_expt",""
"","bandit","235","529578","0.0-197.0-0.0","92678385","wem/bandit_party_1","ATUY1BTU5BQDE","either","3","222","","","","","","","0","1","0","","0.3767011333","0.2","0.6","0.4","0.8","0.3767011333","0.2175815231","0.3178912443","0.4328422877","","","","","","","","","","","","","","72","H","0","img/none_selected.jpg","","156","main_expt",""
"","bandit","236","531174","0.0-198.0-0.0","92678385","wem/bandit_party_1","ATUY1BTU5BQDE","either","3","87","","","","","","","1","0","0","0.3853144204","","0.2","0.6","0.4","0.8","","","","","0.3853144204","0.216674397","0.3236874272","0.4224906378","","","","","","","","","","72","H","0","img/none_selected.jpg","","157","main_expt",""
"","bandit","237","532847","0.0-199.0-0.0","92678385","wem/bandit_party_1","ATUY1BTU5BQDE","either","3","168","","","","","","","0","0","1","","0.3519128793","0.2","0.6","0.4","0.8","0.3519128793","0.2184316938","0.3731337511","0.4428847078","","","","","","","","","","","","","","72","H","0","img/none_selected.jpg","","158","main_expt",""
"","bandit","238","534497","0.0-200.0-0.0","92678385","wem/bandit_party_1","ATUY1BTU5BQDE","either","3","143","","","","","","","0","1","0","","0.3255157266","0.2","0.6","0.4","0.8","0.3255157266","0.2603966468","0.3758107074","0.4498083842","","","","","","","","","","","","","","72","H","0","img/none_selected.jpg","","159","main_expt",""
"","bandit","239","536106","0.0-201.0-0.0","92678385","wem/bandit_party_1","ATUY1BTU5BQDE","either","3","102","","","","","","","0","0","1","","0.379238532","0.2","0.6","0.4","0.8","0.379238532","0.2242017374","0.3494215766","0.4319550234","","","","","","","","","","","","","","72","H","0","img/none_selected.jpg","","160","main_expt",""
"","bandit","240","537859","0.0-202.0-0.0","92678385","wem/bandit_party_1","ATUY1BTU5BQDE","either","3","246","","","","","","","0","0","1","","0.3776335756","0.2","0.6","0.4","0.8","0.3776335756","0.2014027125","0.3327111917","0.4417514389","","","","","","","","","","","","","","72","H","0","img/none_selected.jpg","","161","main_expt",""
"","bandit","241","539453","0.0-203.0-0.0","92678385","wem/bandit_party_1","ATUY1BTU5BQDE","either","3","89","","","","","","","1","0","0","0.2955751891","","0.2","0.6","0.4","0.8","","","","","0.2955751891","0.2038621466","0.3171011618","0.4081293495","","","","","","","","","","72","H","0","img/none_selected.jpg","","162","main_expt",""
"","bandit","242","541158","0.0-204.0-0.0","92678385","wem/bandit_party_1","ATUY1BTU5BQDE","either","3","197","","","","","","","0","0","1","0.30851492","","0.2","0.6","0.4","0.8","","","","","0.30851492","0.1238136799","0.364183239","0.4265776113","","","","","","","","","","72","H","0","img/none_selected.jpg","","163","main_expt",""
"","bandit","243","542867","0.0-205.0-0.0","92678385","wem/bandit_party_1","ATUY1BTU5BQDE","either","3","202","","","","","","","0","1","0","","0.3074756362","0.2","0.6","0.4","0.8","0.3074756362","0.1104941302","0.3917374524","0.427472809","","","","","","","","","","","","","","72","H","0","img/none_selected.jpg","","164","main_expt",""
"","bandit","244","544541","0.0-206.0-0.0","92678385","wem/bandit_party_1","ATUY1BTU5BQDE","either","3","167","","","","","","","0","0","1","","0.2743039079","0.2","0.6","0.4","0.8","0.2743039079","0.1099358877","0.3629360172","0.4016343469","","","","","","","","","","","","","","72","H","0","img/none_selected.jpg","","165","main_expt",""
"","bandit","245","546207","0.0-207.0-0.0","92678385","wem/bandit_party_1","ATUY1BTU5BQDE","either","3","159","","","","","","","1","0","0","0.2900226329","","0.2","0.6","0.4","0.8","","","","","0.2900226329","0.08082918558","0.3697042915","0.3578169927","","","","","","","","","","72","H","0","img/none_selected.jpg","","166","main_expt",""
"","bandit","246","547924","0.0-208.0-0.0","92678385","wem/bandit_party_1","ATUY1BTU5BQDE","either","3","211","","","","","","","0","0","1","","0.3444017494","0.2","0.6","0.4","0.8","0.3444017494","0.08539074978","0.3626443337","0.3346076013","","","","","","","","","","","","","","72","H","0","img/none_selected.jpg","","167","main_expt",""
"","bandit","247","549601","0.0-209.0-0.0","92678385","wem/bandit_party_1","ATUY1BTU5BQDE","either","3","170","","","","","","","0","0","1","0.3934904689","","0.2","0.6","0.4","0.8","","","","","0.3934904689","0.1307687804","0.3488380128","0.36326211","","","","","","","","","","72","H","0","img/none_selected.jpg","","168","main_expt",""
"","bandit","248","551215","0.0-210.0-0.0","92678385","wem/bandit_party_1","ATUY1BTU5BQDE","either","3","106","","","","","","","0","0","1","","0.3712778229","0.2","0.6","0.4","0.8","0.3712778229","0.09435724838","0.3338465455","0.3389060657","","","","","","","","","","","","","","72","H","0","img/none_selected.jpg","","169","main_expt",""
"","bandit","249","553222","0.0-211.0-0.0","92678385","wem/bandit_party_1","ATUY1BTU5BQDE","either","3","496","","","","","","","0","0","1","","0.3348119161","0.2","0.6","0.4","0.8","0.3348119161","0.09371103674","0.3675902536","0.3820287301","","","","","","","","","","","","","","72","H","0","img/none_selected.jpg","","170","main_expt",""
"","bandit","250","554946","0.0-212.0-0.0","92678385","wem/bandit_party_1","ATUY1BTU5BQDE","either","3","216","","","","","","","0","1","0","","0.3697689907","0.2","0.6","0.4","0.8","0.3697689907","0.0912992704","0.3663425941","0.3738350687","","","","","","","","","","","","","","72","H","0","img/none_selected.jpg","","171","main_expt",""
"","bandit","251","557007","0.0-213.0-0.0","92678385","wem/bandit_party_1","ATUY1BTU5BQDE","either","3","553","","","","","","","0","0","1","","0.3438364448","0.2","0.6","0.4","0.8","0.3438364448","0.1053216192","0.3571019768","0.3449486646","","","","","","","","","","","","","","72","H","0","img/none_selected.jpg","","172","main_expt",""
"","bandit","252","558978","0.0-214.0-0.0","92678385","wem/bandit_party_1","ATUY1BTU5BQDE","either","3","463","","","","","","","0","1","0","","0.4064517123","0.2","0.6","0.4","0.8","0.4064517123","0.1119971747","0.383943734","0.3754463001","","","","","","","","","","","","","","72","H","0","img/none_selected.jpg","","173","main_expt",""
"","bandit","253","560788","0.0-215.0-0.0","92678385","wem/bandit_party_1","ATUY1BTU5BQDE","either","3","304","","","","","","","0","0","1","","0.4266345201","0.2","0.6","0.4","0.8","0.4266345201","0.1049574405","0.378453819","0.3983783957","","","","","","","","","","","","","","72","H","0","img/none_selected.jpg","","174","main_expt",""
"","bandit","254","563263","0.0-216.0-0.0","92678385","wem/bandit_party_1","ATUY1BTU5BQDE","either","3","968","","","","","","","0","0","1","","0.4413212306","0.2","0.6","0.4","0.8","0.4413212306","0.07351671593","0.3577460836","0.4176958341","","","","","","","","","","","","","","72","H","0","img/none_selected.jpg","","175","main_expt",""
"","bandit","255","565326","0.0-217.0-0.0","92678385","wem/bandit_party_1","ATUY1BTU5BQDE","either","3","555","","","","","","","0","1","0","","0.438548454","0.2","0.6","0.4","0.8","0.438548454","0.06097876817","0.3346789668","0.4336280271","","","","","","","","","","","","","","72","H","0","img/none_selected.jpg","","176","main_expt",""
"","bandit","256","567382","0.0-218.0-0.0","92678385","wem/bandit_party_1","ATUY1BTU5BQDE","either","3","547","","","","","","","0","0","1","","0.4350726265","0.2","0.6","0.4","0.8","0.4350726265","0.05873143133","0.3720341948","0.3863917124","","","","","","","","","","","","","","72","H","0","img/none_selected.jpg","","177","main_expt",""
"","bandit","257","569249","0.0-219.0-0.0","92678385","wem/bandit_party_1","ATUY1BTU5BQDE","either","3","357","","","","","","","0","0","1","","0.4029859975","0.2","0.6","0.4","0.8","0.4029859975","0.07829718294","0.4243236705","0.3826512014","","","","","","","","","","","","","","72","H","0","img/none_selected.jpg","","178","main_expt",""
"","bandit","258","570789","0.0-220.0-0.0","92678385","wem/bandit_party_1","ATUY1BTU5BQDE","either","3","31","","","","","","","0","1","0","","0.3738585124","0.2","0.6","0.4","0.8","0.3738585124","0.05868413977","0.4396564102","0.3681046487","","","","","","","","","","","","","","72","H","0","img/none_selected.jpg","","179","main_expt",""
"","bandit","259","572435","0.0-221.0-0.0","92678385","wem/bandit_party_1","ATUY1BTU5BQDE","either","3","138","","","","","","","0","1","0","","0.3884150149","0.2","0.6","0.4","0.8","0.3884150149","0.04540529238","0.4501825932","0.374340785","","","","","","","","","","","","","","72","H","0","img/none_selected.jpg","","180","main_expt",""
"","bandit","260","573972","0.0-222.0-0.0","92678385","wem/bandit_party_1","ATUY1BTU5BQDE","either","3","29","","","","","","","0","0","1","","0.3977335033","0.2","0.6","0.4","0.8","0.3977335033","0.04810206047","0.4527537228","0.3844034803","","","","","","","","","","","","","","72","H","0","img/none_selected.jpg","","181","main_expt",""
"","bandit","261","575665","0.0-223.0-0.0","92678385","wem/bandit_party_1","ATUY1BTU5BQDE","either","3","185","","","","","","","0","0","1","0.4194204302","","0.2","0.6","0.4","0.8","","","","","0.4194204302","0.0564969073","0.4733821952","0.3569363444","","","","","","","","","","72","H","0","img/none_selected.jpg","","182","main_expt",""
"","bandit","262","577561","0.0-224.0-0.0","92678385","wem/bandit_party_1","ATUY1BTU5BQDE","either","3","389","","","","","","","0","1","0","","0.4050300101","0.2","0.6","0.4","0.8","0.4050300101","0.06674959941","0.4741352064","0.3930074682","","","","","","","","","","","","","","72","H","0","img/none_selected.jpg","","183","main_expt",""
"","bandit","263","579327","0.0-225.0-0.0","92678385","wem/bandit_party_1","ATUY1BTU5BQDE","either","3","258","","","","","","","1","0","0","0.4272992256","","0.2","0.6","0.4","0.8","","","","","0.4272992256","0.05730522946","0.4835015011","0.4105724965","","","","","","","","","","72","H","0","img/none_selected.jpg","","184","main_expt",""
"","bandit","264","581059","0.0-226.0-0.0","92678385","wem/bandit_party_1","ATUY1BTU5BQDE","either","3","222","","","","","","","0","1","0","","0.4213026748","0.2","0.6","0.4","0.8","0.4213026748","0.0759668512","0.4907566516","0.4230276401","","","","","","","","","","","","","","72","H","0","img/none_selected.jpg","","185","main_expt",""
"","bandit","265","582743","0.0-227.0-0.0","92678385","wem/bandit_party_1","ATUY1BTU5BQDE","either","3","176","","","","","","","0","0","1","","0.3729626057","0.2","0.6","0.4","0.8","0.3729626057","0.0736669194","0.4777100538","0.4243078066","","","","","","","","","","","","","","72","H","0","img/none_selected.jpg","","186","main_expt",""
"","bandit","266","584385","0.0-228.0-0.0","92678385","wem/bandit_party_1","ATUY1BTU5BQDE","either","3","133","","","","","","","0","1","0","","0.4022080601","0.2","0.6","0.4","0.8","0.4022080601","0.1020870739","0.4751658893","0.419104652","","","","","","","","","","","","","","72","H","0","img/none_selected.jpg","","187","main_expt",""
"","bandit","267","586533","0.0-229.0-0.0","92678385","wem/bandit_party_1","ATUY1BTU5BQDE","either","3","639","","","","","","","0","0","1","","0.4218987807","0.2","0.6","0.4","0.8","0.4218987807","0.110066606","0.4711403756","0.3917910895","","","","","","","","","","","","","","72","H","0","img/none_selected.jpg","","188","main_expt",""
"","bandit","268","589191","0.0-230.0-0.0","92678385","wem/bandit_party_1","ATUY1BTU5BQDE","either","3","1149","","","","","","","0","1","0","","0.4284519853","0.2","0.6","0.4","0.8","0.4284519853","0.1616324423","0.4848283219","0.3696037293","","","","","","","","","","","","","","72","H","0","img/none_selected.jpg","","189","main_expt",""
"","bandit","269","591248","0.0-231.0-0.0","92678385","wem/bandit_party_1","ATUY1BTU5BQDE","either","3","550","","","","","","","0","1","0","","0.4104863902","0.2","0.6","0.4","0.8","0.4104863902","0.1401199573","0.4906713727","0.3722688899","","","","","","","","","","","","","","72","H","0","img/none_selected.jpg","","190","main_expt",""
"","bandit","270","592938","0.0-232.0-0.0","92678385","wem/bandit_party_1","ATUY1BTU5BQDE","either","3","182","","","","","","","0","0","1","","0.4071825693","0.2","0.6","0.4","0.8","0.4071825693","0.1782786715","0.4944082075","0.3956575009","","","","","","","","","","","","","","72","H","0","img/none_selected.jpg","","191","main_expt",""
"","bandit","271","594618","0.0-233.0-0.0","92678385","wem/bandit_party_1","ATUY1BTU5BQDE","either","3","172","","","","","","","0","0","1","0.4172763132","","0.2","0.6","0.4","0.8","","","","","0.4172763132","0.203517815","0.4922337742","0.3843500594","","","","","","","","","","72","H","0","img/none_selected.jpg","","192","main_expt",""
"","bandit","272","596195","0.0-234.0-0.0","92678385","wem/bandit_party_1","ATUY1BTU5BQDE","either","3","68","","","","","","","1","0","0","0.3965334946","","0.2","0.6","0.4","0.8","","","","","0.3965334946","0.172030281","0.4887356563","0.3801723293","","","","","","","","","","72","H","0","img/none_selected.jpg","","193","main_expt",""
"","bandit","273","597830","0.0-235.0-0.0","92678385","wem/bandit_party_1","ATUY1BTU5BQDE","either","3","128","","","","","","","0","1","0","","0.383316574","0.2","0.6","0.4","0.8","0.383316574","0.1813301739","0.4850955297","0.3871645121","","","","","","","","","","","","","","72","H","0","img/none_selected.jpg","","194","main_expt",""
"","bandit","274","599423","0.0-236.0-0.0","92678385","wem/bandit_party_1","ATUY1BTU5BQDE","either","3","84","","","","","","","0","0","1","","0.3965345796","0.2","0.6","0.4","0.8","0.3965345796","0.2284295163","0.4848341758","0.3633903175","","","","","","","","","","","","","","72","H","0","img/none_selected.jpg","","195","main_expt",""
"","bandit","275","601011","0.0-237.0-0.0","92678385","wem/bandit_party_1","ATUY1BTU5BQDE","either","3","79","","","","","","","0","0","1","","0.3978469093","0.2","0.6","0.4","0.8","0.3978469093","0.2501246714","0.490049139","0.3811675741","","","","","","","","","","","","","","72","H","0","img/none_selected.jpg","","196","main_expt",""
"","bandit","276","602632","0.0-238.0-0.0","92678385","wem/bandit_party_1","ATUY1BTU5BQDE","either","3","113","","","","","","","0","0","1","","0.3172926233","0.2","0.6","0.4","0.8","0.3172926233","0.3150809007","0.4912643012","0.3487868089","","","","","","","","","","","","","","72","H","0","img/none_selected.jpg","","197","main_expt",""
"","bandit","277","604266","0.0-239.0-0.0","92678385","wem/bandit_party_1","ATUY1BTU5BQDE","either","3","125","","","","","","","0","0","1","","0.3113170709","0.2","0.6","0.4","0.8","0.3113170709","0.3442077965","0.4793615714","0.2986771554","","","","","","","","","","","","","","72","H","0","img/none_selected.jpg","","198","main_expt",""
"","bandit","278","605775","0.0-240.0-0.0","92678385","wem/bandit_party_1","ATUY1BTU5BQDE","either","3","1","","","","","","","0","0","1","","0.3066116159","0.2","0.6","0.4","0.8","0.3066116159","0.3675051223","0.4661622676","0.3481418533","","","","","","","","","","","","","","72","H","0","img/none_selected.jpg","","199","main_expt",""
"","bandit","279","607503","0.0-241.0-0.0","92678385","wem/bandit_party_1","ATUY1BTU5BQDE","either","3","218","","","","","","","0","0","1","","0.3044821291","0.2","0.6","0.4","0.8","0.2521122026","0.3044821291","0.4479238565","0.353319573","","","","","","","","","","","","","","74","J","1","","","200","main_expt",""
"","bandit","280","609157","0.0-242.0-0.0","92678385","wem/bandit_party_1","ATUY1BTU5BQDE","either","3","146","","","","","","","0","0","1","0.3013824411","","0.2","0.6","0.4","0.8","","","","","0.2679963248","0.3013824411","0.4429166455","0.3676338631","","","","","","","","","","74","J","1","","","201","main_expt",""
"","bandit","281","610865","0.0-243.0-0.0","92678385","wem/bandit_party_1","ATUY1BTU5BQDE","either","3","199","","","","","","","0","0","1","","0.3001954661","0.2","0.6","0.4","0.8","0.2076546236","0.3001954661","0.442820363","0.311657493","","","","","","","","","","","","","","74","J","1","","","202","main_expt",""
"","bandit","282","612547","0.0-244.0-0.0","92678385","wem/bandit_party_1","ATUY1BTU5BQDE","either","3","174","","","","","","","0","0","1","0.3189156814","","0.2","0.6","0.4","0.8","","","","","0.1881707852","0.3189156814","0.4539008368","0.3364041998","","","","","","","","","","74","J","1","","","203","main_expt",""
"","bandit","283","614125","0.0-245.0-0.0","92678385","wem/bandit_party_1","ATUY1BTU5BQDE","either","3","69","","","","","","","0","0","1","","0.3162062407","0.2","0.6","0.4","0.8","0.2057853427","0.3162062407","0.4163307037","0.3148670147","","","","","","","","","","","","","","74","J","1","","","204","main_expt",""
"","bandit","284","615742","0.0-246.0-0.0","92678385","wem/bandit_party_1","ATUY1BTU5BQDE","either","3","110","","","","","","","0","1","0","","0.4045388199","0.2","0.6","0.4","0.8","0.2564451259","0.347278619","0.4045388199","0.3293187519","","","","","","","","","","","","","","75","K","2","","","205","main_expt",""
"","bandit","285","617333","0.0-247.0-0.0","92678385","wem/bandit_party_1","ATUY1BTU5BQDE","either","3","81","","","","","","","0","1","0","","0.4083422121","0.2","0.6","0.4","0.8","0.3082896296","0.2970129147","0.4083422121","0.2705077244","","","","","","","","","","","","","","75","K","2","","","206","main_expt",""
"","bandit","286","618931","0.0-248.0-0.0","92678385","wem/bandit_party_1","ATUY1BTU5BQDE","either","3","90","","","","","","","0","0","1","0.4033585138","","0.2","0.6","0.4","0.8","","","","","0.3235103938","0.3331481178","0.4033585138","0.3083591011","","","","","","","","","","75","K","2","","","207","main_expt",""
"","bandit","287","620561","0.0-249.0-0.0","92678385","wem/bandit_party_1","ATUY1BTU5BQDE","either","3","122","","","","","","","0","0","1","","0.3753320851","0.2","0.6","0.4","0.8","0.3563539536","0.3195917859","0.3753320851","0.2489273718","","","","","","","","","","","","","","75","K","2","","","208","main_expt",""
"","bandit","288","622235","0.0-250.0-0.0","92678385","wem/bandit_party_1","ATUY1BTU5BQDE","either","3","166","","","","","","","0","0","1","","0.3864970555","0.2","0.6","0.4","0.8","0.3821305916","0.3642345195","0.3864970555","0.2224321457","","","","","","","","","","","","","","75","K","2","","","209","main_expt",""
"","bandit","289","623889","0.0-251.0-0.0","92678385","wem/bandit_party_1","ATUY1BTU5BQDE","either","3","146","","","","","","","0","1","0","","0.3894881908","0.2","0.6","0.4","0.8","0.4067483812","0.3518797164","0.3894881908","0.2184729634","","","","","","","","","","","","","","75","K","2","","","210","main_expt",""
"","bandit","290","625470","0.0-252.0-0.0","92678385","wem/bandit_party_1","ATUY1BTU5BQDE","either","3","74","","","","","","","0","0","1","","0.4052823736","0.2","0.6","0.4","0.8","0.376825818","0.3781537602","0.4052823736","0.2178464352","","","","","","","","","","","","","","75","K","2","","","211","main_expt",""
"","bandit","291","627033","0.0-253.0-0.0","92678385","wem/bandit_party_1","ATUY1BTU5BQDE","either","3","54","","","","","","","0","0","1","0.3783189977","","0.2","0.6","0.4","0.8","","","","","0.3481764155","0.3773353051","0.3783189977","0.1644702768","","","","","","","","","","75","K","2","","","212","main_expt",""
"","bandit","292","628558","0.0-254.0-0.0","92678385","wem/bandit_party_1","ATUY1BTU5BQDE","either","3","16","","","","","","","0","0","1","","0.3804187243","0.2","0.6","0.4","0.8","0.3239198888","0.3448860985","0.3804187243","0.1271660564","","","","","","","","","","","","","","75","K","2","","","213","main_expt",""
"","bandit","293","630532","0.0-255.0-0.0","92678385","wem/bandit_party_1","ATUY1BTU5BQDE","either","3","466","","","","","","","0","0","1","0.3964056757","","0.2","0.6","0.4","0.8","","","","","0.3592643085","0.3622000499","0.3964056757","0.1368129038","","","","","","","","","","75","K","2","","","214","main_expt",""
"","bandit","294","632146","0.0-256.0-0.0","92678385","wem/bandit_party_1","ATUY1BTU5BQDE","either","3","104","","","","","","","0","0","1","","0.3939862607","0.2","0.6","0.4","0.8","0.3482739819","0.3408682726","0.3939862607","0.07615368859","","","","","","","","","","","","","","75","K","2","","","215","main_expt",""
"","bandit","295","633783","0.0-257.0-0.0","92678385","wem/bandit_party_1","ATUY1BTU5BQDE","either","3","128","","","","","","","0","0","1","0.4062496234","","0.2","0.6","0.4","0.8","","","","","0.2972527025","0.328819006","0.4062496234","0.07711559412","","","","","","","","","","75","K","2","","","216","main_expt",""
"","bandit","296","635380","0.0-258.0-0.0","92678385","wem/bandit_party_1","ATUY1BTU5BQDE","either","3","88","","","","","","","0","1","0","","0.3440498305","0.2","0.6","0.4","0.8","0.2850944341","0.3229374792","0.3440498305","0.07728173513","","","","","","","","","","","","","","75","K","2","","","217","main_expt",""
"","bandit","297","637013","0.0-259.0-0.0","92678385","wem/bandit_party_1","ATUY1BTU5BQDE","either","3","123","","","","","","","0","0","1","","0.3198020565","0.2","0.6","0.4","0.8","0.2483413171","0.3616220652","0.3198020565","0.07919919155","","","","","","","","","","","","","","75","K","2","","","218","main_expt",""
"","bandit","298","638702","0.0-260.0-0.0","92678385","wem/bandit_party_1","ATUY1BTU5BQDE","either","3","178","","","","","","","0","1","0","","0.3078290176","0.2","0.6","0.4","0.8","0.2680513607","0.3591176528","0.3078290176","0.1270410367","","","","","","","","","","","","","","75","K","2","","","219","main_expt",""
"","bandit","299","640394","0.0-261.0-0.0","92678385","wem/bandit_party_1","ATUY1BTU5BQDE","either","3","183","","","","","","","0","1","0","","0.2961895162","0.2","0.6","0.4","0.8","0.304668496","0.2758994579","0.2961895162","0.1117499599","","","","","","","","","","","","","","75","K","2","","","220","main_expt",""
"","bandit","300","642116","0.0-262.0-0.0","92678385","wem/bandit_party_1","ATUY1BTU5BQDE","either","3","214","","","","","","","0","0","1","","0.2658603678","0.2","0.6","0.4","0.8","0.2773284289","0.3119987931","0.2658603678","0.1186324211","","","","","","","","","","","","","","75","K","2","","","221","main_expt",""
"","bandit","301","643808","0.0-263.0-0.0","92678385","wem/bandit_party_1","ATUY1BTU5BQDE","either","3","183","","","","","","","0","0","1","","0.274695037","0.2","0.6","0.4","0.8","0.2152506718","0.3106374463","0.274695037","0.1141050397","","","","","","","","","","","","","","75","K","2","","","222","main_expt",""
"","bandit","302","645345","0.0-264.0-0.0","92678385","wem/bandit_party_1","ATUY1BTU5BQDE","either","3","29","","","","","","","0","0","1","","0.2210940289","0.2","0.6","0.4","0.8","0.2445797097","0.3131570504","0.2210940289","0.1007228699","","","","","","","","","","","","","","75","K","2","","","223","main_expt",""
"","bandit","303","646952","0.0-265.0-0.0","92678385","wem/bandit_party_1","ATUY1BTU5BQDE","either","3","97","","","","","","","1","0","0","0.1843933297","","0.2","0.6","0.4","0.8","","","","","0.2559263424","0.3025994915","0.1843933297","0.1380584308","","","","","","","","","","75","K","2","","","224","main_expt",""
"","bandit","304","648665","0.0-266.0-0.0","92678385","wem/bandit_party_1","ATUY1BTU5BQDE","either","3","202","","","","","","","0","0","1","0.212211923","","0.2","0.6","0.4","0.8","","","","","0.2702522324","0.2994132709","0.212211923","0.1393521225","","","","","","","","","","75","K","2","","","225","main_expt",""
"","bandit","305","650204","0.0-267.0-0.0","92678385","wem/bandit_party_1","ATUY1BTU5BQDE","either","3","30","","","","","","","0","0","1","0.2315036379","","0.2","0.6","0.4","0.8","","","","","0.2646860425","0.2866794375","0.2315036379","0.2094269877","","","","","","","","","","75","K","2","","","226","main_expt",""
"","bandit","306","651946","0.0-268.0-0.0","92678385","wem/bandit_party_1","ATUY1BTU5BQDE","either","3","233","","","","","","","0","0","1","","0.2959232149","0.2","0.6","0.4","0.8","0.269556559","0.2299222882","0.2646353212","0.2959232149","","","","","","","","","","","","","","76","L","3","","","227","main_expt",""
"","bandit","307","653520","0.0-269.0-0.0","92678385","wem/bandit_party_1","ATUY1BTU5BQDE","either","3","66","","","","","","","0","0","1","0.374355758","","0.2","0.6","0.4","0.8","","","","","0.2498152532","0.2991813551","0.2443517867","0.374355758","","","","","","","","","","76","L","3","","","228","main_expt",""
"","bandit","308","655105","0.0-270.0-0.0","92678385","wem/bandit_party_1","ATUY1BTU5BQDE","either","3","75","","","","","","","0","1","0","","0.3876740502","0.2","0.6","0.4","0.8","0.2495566458","0.3295538921","0.2569692975","0.3876740502","","","","","","","","","","","","","","76","L","3","","","229","main_expt",""
"","bandit","309","656709","0.0-271.0-0.0","92678385","wem/bandit_party_1","ATUY1BTU5BQDE","either","3","95","","","","","","","0","1","0","","0.3341674595","0.2","0.6","0.4","0.8","0.2134382902","0.2713593359","0.2490290172","0.3341674595","","","","","","","","","","","","","","76","L","3","","","230","main_expt",""
"","bandit","310","658341","0.0-272.0-0.0","92678385","wem/bandit_party_1","ATUY1BTU5BQDE","either","3","122","","","","","","","0","0","1","0.3558281537","","0.2","0.6","0.4","0.8","","","","","0.2099205747","0.2746975787","0.2368643707","0.3558281537","","","","","","","","","","76","L","3","","","231","main_expt",""
"","bandit","311","659991","0.0-273.0-0.0","92678385","wem/bandit_party_1","ATUY1BTU5BQDE","either","3","143","","","","","","","0","0","1","0.3293076861","","0.2","0.6","0.4","0.8","","","","","0.1598609145","0.2817934899","0.2857324616","0.3293076861","","","","","","","","","","76","L","3","","","232","main_expt",""
