"consent","trial_type","trial_index","time_elapsed","internal_node_id","subjID","study","MID","cond","drift","rt","responses","button_pressed","key_press","like","value","connected","gems","bombs","no_reward","GemPrChosen","BombPrChosen","GainOverPainPr_0","GainOverPainPr_1","GainOverPainPr_2","GainOverPainPr_3","LosePr_0","LosePr_1","LosePr_2","LosePr_3","WinPr_0","WinPr_1","WinPr_2","WinPr_3","Q0","Q1","Q2","gender","age","ethnicity","label","expt_phase","target","respCharCode","respKey","respChoiceNum","respChoice","practice","trial_counter","trial_label","Q0_index","view_history"
"GDM/GDM_behavioral_consent_30min_online.html","consent","0","13761","0.0-0.0","92942483","wem/bandit_party_1","A34PK1C7TPHWG3","either","1","","","","","","","","","","","","","","","","","","","","","","","","","","","","","","","","","","","","","","","","","",""
"","survey-text","1","23250","0.0-1.0","92942483","wem/bandit_party_1","A34PK1C7TPHWG3","either","1","8476","{""Q0"":""A34PK1C7TPHWG3""}","","","","","","","","","","","","","","","","","","","","","","","","","","","","","","","","","","","","","","","",""
"","button-response","2","28255","0.0-2.0","92942483","wem/bandit_party_1","A34PK1C7TPHWG3","either","1","3998","","2","","","","","","","","","","","","","","","","","","","","","","","","","","","","","","","","","","","","","","",""
"","text-replacement","3","38505","0.0-3.0","92942483","wem/bandit_party_1","A34PK1C7TPHWG3","either","1","9247","","","32","","","","","","","","","","","","","","","","","","","","","","","","","","","","","","","","","","","","","",""
"","text-replacement","4","54984","0.0-4.0","92942483","wem/bandit_party_1","A34PK1C7TPHWG3","either","1","16477","","","32","","","","","","","","","","","","","","","","","","","","","","","","","","","","","","","","","","","","","",""
"","text-replacement","5","74744","0.0-5.0-0.0","92942483","wem/bandit_party_1","A34PK1C7TPHWG3","either","1","19757","","","32","","","","","","","","","","","","","","","","","","","","","","","","","","","","","","","","","","","","","",""
"","identification","6","85284","0.0-6.0-0.0","92942483","wem/bandit_party_1","A34PK1C7TPHWG3","either","1","10521","","","","3","3","3","","","","","","","","","","","","","","","","","","","","","","","","pre","identification_pre","the Democratic Party","","","","","","","","",""
"","identification","7","89852","0.0-6.0-1.0","92942483","wem/bandit_party_1","A34PK1C7TPHWG3","either","1","3549","","","","3","3","3","","","","","","","","","","","","","","","","","","","","","","","","pre","identification_pre","the Republican party","","","","","","","","",""
"","text-replacement","8","97721","0.0-7.0","92942483","wem/bandit_party_1","A34PK1C7TPHWG3","either","1","6865","","","32","","","","","","","","","","","","","","","","","","","","","","","","","","","","","","","","","","","","","",""
"","text-replacement","9","103719","0.0-8.0","92942483","wem/bandit_party_1","A34PK1C7TPHWG3","either","1","5996","","","32","","","","","","","","","","","","","","","","","","","","","","","","","","","","","","","","","","","","","",""
"","text-replacement","10","117560","0.0-9.0","92942483","wem/bandit_party_1","A34PK1C7TPHWG3","either","1","13838","","","32","","","","","","","","","","","","","","","","","","","","","","","","","","","","","","","","","","","","","",""
"","text-replacement","11","122775","0.0-10.0","92942483","wem/bandit_party_1","A34PK1C7TPHWG3","either","1","5212","","","32","","","","","","","","","","","","","","","","","","","","","","","","","","","","","","","","","","","","","",""
"","text-replacement","12","126967","0.0-11.0","92942483","wem/bandit_party_1","A34PK1C7TPHWG3","either","1","4190","","","32","","","","","","","","","","","","","","","","","","","","","","","","","","","","","","","","","","","","","",""
"","bandit","13","131417","0.0-12.0-0.0","92942483","wem/bandit_party_1","A34PK1C7TPHWG3","either","1","2939","","","","","","","0","0","1","0","0","","","","","0","","","","0","","","","","","","","","","","","","74","J","0","img/none_selected_demo.jpg","true","0","","",""
"","bandit","14","134631","0.0-13.0-0.0","92942483","wem/bandit_party_1","A34PK1C7TPHWG3","either","1","1706","","","","","","","0","0","1","0","0","","","","","0","","","","0","","","","","","","","","","","","","75","K","0","img/none_selected_demo.jpg","true","0","","",""
"","text-replacement","15","143032","0.0-14.0","92942483","wem/bandit_party_1","A34PK1C7TPHWG3","either","1","8399","","","32","","","","","","","","","","","","","","","","","","","","","","","","","","","","","","","","","","","","","",""
"","text-replacement","16","155592","0.0-15.0","92942483","wem/bandit_party_1","A34PK1C7TPHWG3","either","1","12558","","","32","","","","","","","","","","","","","","","","","","","","","","","","","","","","","","","","","","","","","",""
"","text-replacement","17","165927","0.0-16.0","92942483","wem/bandit_party_1","A34PK1C7TPHWG3","either","1","10333","","","32","","","","","","","","","","","","","","","","","","","","","","","","","","","","","","","","","","","","","",""
"","text-replacement","18","170807","0.0-17.0","92942483","wem/bandit_party_1","A34PK1C7TPHWG3","either","1","4878","","","32","","","","","","","","","","","","","","","","","","","","","","","","","","","","","","","","","","","","","",""
"","bandit","19","176006","0.0-18.0-0.0","92942483","wem/bandit_party_1","A34PK1C7TPHWG3","either","1","3693","","","","","","","1","0","0","0.8","","0.5","0.5","","","","","","","0.8","0.2","","","","","","","","","","","","74","J","0","img/none_selected_demo.jpg","true","0","80_20_practice","",""
"","bandit","20","178728","0.0-18.0-1.0","92942483","wem/bandit_party_1","A34PK1C7TPHWG3","either","1","1215","","","","","","","0","1","0","","0.8","0.5","0.5","","","0.8","0.2","","","","","","","","","","","","","","","","74","J","0","img/none_selected_demo.jpg","true","0","80_20_practice","",""
"","bandit","21","180774","0.0-18.0-2.0","92942483","wem/bandit_party_1","A34PK1C7TPHWG3","either","1","539","","","","","","","1","0","0","0.8","","0.5","0.5","","","","","","","0.8","0.2","","","","","","","","","","","","74","J","0","img/none_selected_demo.jpg","true","0","80_20_practice","",""
"","bandit","22","182710","0.0-18.0-3.0","92942483","wem/bandit_party_1","A34PK1C7TPHWG3","either","1","430","","","","","","","0","1","0","","0.8","0.5","0.5","","","0.8","0.2","","","","","","","","","","","","","","","","74","J","0","img/none_selected_demo.jpg","true","0","80_20_practice","",""
"","bandit","23","184662","0.0-18.0-4.0","92942483","wem/bandit_party_1","A34PK1C7TPHWG3","either","1","444","","","","","","","0","1","0","","0.8","0.5","0.5","","","0.8","0.2","","","","","","","","","","","","","","","","74","J","0","img/none_selected_demo.jpg","true","0","80_20_practice","",""
"","bandit","24","186662","0.0-18.0-5.0","92942483","wem/bandit_party_1","A34PK1C7TPHWG3","either","1","493","","","","","","","0","1","0","","0.8","0.5","0.5","","","0.8","0.2","","","","","","","","","","","","","","","","74","J","0","img/none_selected_demo.jpg","true","0","80_20_practice","",""
"","bandit","25","188983","0.0-18.0-6.0","92942483","wem/bandit_party_1","A34PK1C7TPHWG3","either","1","812","","","","","","","0","1","0","","0.8","0.5","0.5","","","0.8","0.2","","","","","","","","","","","","","","","","74","J","0","img/none_selected_demo.jpg","true","0","80_20_practice","",""
"","bandit","26","190901","0.0-18.0-7.0","92942483","wem/bandit_party_1","A34PK1C7TPHWG3","either","1","412","","","","","","","0","1","0","","0.8","0.5","0.5","","","0.8","0.2","","","","","","","","","","","","","","","","74","J","0","img/none_selected_demo.jpg","true","0","80_20_practice","",""
"","bandit","27","192822","0.0-18.0-8.0","92942483","wem/bandit_party_1","A34PK1C7TPHWG3","either","1","413","","","","","","","0","0","1","0.8","","0.5","0.5","","","","","","","0.8","0.2","","","","","","","","","","","","74","J","0","img/none_selected_demo.jpg","true","0","80_20_practice","",""
"","bandit","28","194949","0.0-18.0-9.0","92942483","wem/bandit_party_1","A34PK1C7TPHWG3","either","1","621","","","","","","","0","1","0","","0.8","0.5","0.5","","","0.8","0.2","","","","","","","","","","","","","","","","74","J","0","img/none_selected_demo.jpg","true","0","80_20_practice","",""
"","bandit","29","196917","0.0-18.0-10.0","92942483","wem/bandit_party_1","A34PK1C7TPHWG3","either","1","460","","","","","","","0","1","0","","0.8","0.5","0.5","","","0.8","0.2","","","","","","","","","","","","","","","","74","J","0","img/none_selected_demo.jpg","true","0","80_20_practice","",""
"","bandit","30","198805","0.0-18.0-11.0","92942483","wem/bandit_party_1","A34PK1C7TPHWG3","either","1","381","","","","","","","0","1","0","","0.2","0.5","0.5","","","0.8","0.2","","","","","","","","","","","","","","","","75","K","1","","true","0","80_20_practice","",""
"","bandit","31","201303","0.0-18.0-12.0","92942483","wem/bandit_party_1","A34PK1C7TPHWG3","either","1","990","","","","","","","0","1","0","","0.8","0.5","0.5","","","0.8","0.2","","","","","","","","","","","","","","","","74","J","0","img/none_selected_demo.jpg","true","0","80_20_practice","",""
"","bandit","32","203093","0.0-18.0-13.0","92942483","wem/bandit_party_1","A34PK1C7TPHWG3","either","1","284","","","","","","","0","0","1","0.2","","0.5","0.5","","","","","","","0.8","0.2","","","","","","","","","","","","75","K","1","","true","0","80_20_practice","",""
"","bandit","33","204871","0.0-18.0-14.0","92942483","wem/bandit_party_1","A34PK1C7TPHWG3","either","1","270","","","","","","","1","0","0","0.2","","0.5","0.5","","","","","","","0.8","0.2","","","","","","","","","","","","75","K","1","","true","0","80_20_practice","",""
"","bandit","34","206693","0.0-18.0-15.0","92942483","wem/bandit_party_1","A34PK1C7TPHWG3","either","1","315","","","","","","","0","0","1","0.2","","0.5","0.5","","","","","","","0.8","0.2","","","","","","","","","","","","75","K","1","","true","0","80_20_practice","",""
"","bandit","35","208421","0.0-18.0-16.0","92942483","wem/bandit_party_1","A34PK1C7TPHWG3","either","1","220","","","","","","","0","0","1","0.2","","0.5","0.5","","","","","","","0.8","0.2","","","","","","","","","","","","75","K","1","","true","0","80_20_practice","",""
"","bandit","36","210165","0.0-18.0-17.0","92942483","wem/bandit_party_1","A34PK1C7TPHWG3","either","1","235","","","","","","","0","1","0","","0.8","0.5","0.5","","","0.8","0.2","","","","","","","","","","","","","","","","74","J","0","img/none_selected_demo.jpg","true","0","80_20_practice","",""
"","bandit","37","211927","0.0-18.0-18.0","92942483","wem/bandit_party_1","A34PK1C7TPHWG3","either","1","253","","","","","","","0","1","0","","0.8","0.5","0.5","","","0.8","0.2","","","","","","","","","","","","","","","","74","J","0","img/none_selected_demo.jpg","true","0","80_20_practice","",""
"","bandit","38","213732","0.0-18.0-19.0","92942483","wem/bandit_party_1","A34PK1C7TPHWG3","either","1","299","","","","","","","1","0","0","0.8","","0.5","0.5","","","","","","","0.8","0.2","","","","","","","","","","","","74","J","0","img/none_selected_demo.jpg","true","0","80_20_practice","",""
"","text-replacement","39","220230","0.0-19.0","92942483","wem/bandit_party_1","A34PK1C7TPHWG3","either","1","6494","","","32","","","","","","","","","","","","","","","","","","","","","","","","","","","","","","","","","","","","","",""
"","bandit","40","224038","0.0-20.0-0.0","92942483","wem/bandit_party_1","A34PK1C7TPHWG3","either","1","2301","","","","","","","1","0","0","1","0","","","","","0","1","","","1","0","","","","","","","","","","","","74","J","0","img/none_selected_demo.jpg","true","0","","",""
"","text-replacement","41","228326","0.0-21.0","92942483","wem/bandit_party_1","A34PK1C7TPHWG3","either","1","4285","","","32","","","","","","","","","","","","","","","","","","","","","","","","","","","","","","","","","","","","","",""
"","text-replacement","42","234518","0.0-22.0","92942483","wem/bandit_party_1","A34PK1C7TPHWG3","either","1","6189","","","32","","","","","","","","","","","","","","","","","","","","","","","","","","","","","","","","","","","","","",""
"","text-replacement","43","236886","0.0-23.0","92942483","wem/bandit_party_1","A34PK1C7TPHWG3","either","1","2365","","","32","","","","","","","","","","","","","","","","","","","","","","","","","","","","","","","","","","","","","",""
"","text-replacement","44","241222","0.0-24.0","92942483","wem/bandit_party_1","A34PK1C7TPHWG3","either","1","4331","","","32","","","","","","","","","","","","","","","","","","","","","","","","","","","","","","","","","","","","","",""
"","text-replacement","45","326391","0.0-25.0","92942483","wem/bandit_party_1","A34PK1C7TPHWG3","either","1","85166","","","32","","","","","","","","","","","","","","","","","","","","","","","","","","","","","","","","","","","","","",""
"","text-replacement","46","330104","0.0-26.0","92942483","wem/bandit_party_1","A34PK1C7TPHWG3","either","1","3710","","","32","","","","","","","","","","","","","","","","","","","","","","","","","","","","","","","","","","","","","",""
"","text-replacement","47","335047","0.0-27.0","92942483","wem/bandit_party_1","A34PK1C7TPHWG3","either","1","4939","","","32","","","","","","","","","","","","","","","","","","","","","","","","","","","","","","","","","","","","","",""
"","text-replacement","48","340391","0.0-28.0","92942483","wem/bandit_party_1","A34PK1C7TPHWG3","either","1","5340","","","32","","","","","","","","","","","","","","","","","","","","","","","","","","","","","","","","","","","","","",""
"","text-replacement","49","346551","0.0-29.0","92942483","wem/bandit_party_1","A34PK1C7TPHWG3","either","1","6157","","","32","","","","","","","","","","","","","","","","","","","","","","","","","","","","","","","","","","","","","",""
"","text-replacement","50","349207","0.0-30.0","92942483","wem/bandit_party_1","A34PK1C7TPHWG3","either","1","2654","","","32","","","","","","","","","","","","","","","","","","","","","","","","","","","","","","","","","","","","","",""
"","text-replacement","51","363863","0.0-31.0","92942483","wem/bandit_party_1","A34PK1C7TPHWG3","either","1","14653","","","32","","","","","","","","","","","","","","","","","","","","","","","","","","","","","","","","","","","","","",""
"","bandit","52","366919","0.0-32.0-0.0","92942483","wem/bandit_party_1","A34PK1C7TPHWG3","either","1","1548","","","","","","","1","0","0","0.2","","0.5","0.5","0.5","0.5","","","","","0.8","0.2","0.6","0.2","","","","","","","","","","74","J","1","","true","0","full_practice","",""
"","bandit","53","370085","0.0-32.0-1.0","92942483","wem/bandit_party_1","A34PK1C7TPHWG3","either","1","1657","","","","","","","0","0","1","0.2","","0.5","0.5","0.5","0.5","","","","","0.8","0.2","0.6","0.2","","","","","","","","","","74","J","1","","true","0","full_practice","",""
"","bandit","54","372054","0.0-32.0-2.0","92942483","wem/bandit_party_1","A34PK1C7TPHWG3","either","1","462","","","","","","","1","0","0","0.6","","0.5","0.5","0.5","0.5","","","","","0.8","0.2","0.6","0.2","","","","","","","","","","75","K","2","","true","0","full_practice","",""
"","bandit","55","373829","0.0-32.0-3.0","92942483","wem/bandit_party_1","A34PK1C7TPHWG3","either","1","268","","","","","","","0","0","1","0.6","","0.5","0.5","0.5","0.5","","","","","0.8","0.2","0.6","0.2","","","","","","","","","","75","K","2","","true","0","full_practice","",""
"","bandit","56","379270","0.0-32.0-4.0","92942483","wem/bandit_party_1","A34PK1C7TPHWG3","either","1","3933","","","","","","","0","0","1","","0.8","0.5","0.5","0.5","0.5","0.8","0.2","0.6","0.2","","","","","","","","","","","","","","72","H","0","img/none_selected.jpg","true","0","full_practice","",""
"","bandit","57","381302","0.0-32.0-5.0","92942483","wem/bandit_party_1","A34PK1C7TPHWG3","either","1","524","","","","","","","0","0","1","0.2","","0.5","0.5","0.5","0.5","","","","","0.8","0.2","0.6","0.2","","","","","","","","","","76","L","3","","true","0","full_practice","",""
"","bandit","58","383046","0.0-32.0-6.0","92942483","wem/bandit_party_1","A34PK1C7TPHWG3","either","1","235","","","","","","","0","1","0","","0.2","0.5","0.5","0.5","0.5","0.8","0.2","0.6","0.2","","","","","","","","","","","","","","74","J","1","","true","0","full_practice","",""
"","bandit","59","384823","0.0-32.0-7.0","92942483","wem/bandit_party_1","A34PK1C7TPHWG3","either","1","268","","","","","","","1","0","0","0.2","","0.5","0.5","0.5","0.5","","","","","0.8","0.2","0.6","0.2","","","","","","","","","","74","J","1","","true","0","full_practice","",""
"","bandit","60","386614","0.0-32.0-8.0","92942483","wem/bandit_party_1","A34PK1C7TPHWG3","either","1","284","","","","","","","1","0","0","0.2","","0.5","0.5","0.5","0.5","","","","","0.8","0.2","0.6","0.2","","","","","","","","","","74","J","1","","true","0","full_practice","",""
"","bandit","61","388422","0.0-32.0-9.0","92942483","wem/bandit_party_1","A34PK1C7TPHWG3","either","1","300","","","","","","","0","0","1","","0.2","0.5","0.5","0.5","0.5","0.8","0.2","0.6","0.2","","","","","","","","","","","","","","74","J","1","","true","0","full_practice","",""
"","bandit","62","390070","0.0-32.0-10.0","92942483","wem/bandit_party_1","A34PK1C7TPHWG3","either","1","139","","","","","","","0","0","1","","0.2","0.5","0.5","0.5","0.5","0.8","0.2","0.6","0.2","","","","","","","","","","","","","","74","J","1","","true","0","full_practice","",""
"","bandit","63","391781","0.0-32.0-11.0","92942483","wem/bandit_party_1","A34PK1C7TPHWG3","either","1","204","","","","","","","0","0","1","0.2","","0.5","0.5","0.5","0.5","","","","","0.8","0.2","0.6","0.2","","","","","","","","","","74","J","1","","true","0","full_practice","",""
"","bandit","64","393479","0.0-32.0-12.0","92942483","wem/bandit_party_1","A34PK1C7TPHWG3","either","1","189","","","","","","","0","1","0","","0.6","0.5","0.5","0.5","0.5","0.8","0.2","0.6","0.2","","","","","","","","","","","","","","75","K","2","","true","0","full_practice","",""
"","bandit","65","395002","0.0-32.0-13.0","92942483","wem/bandit_party_1","A34PK1C7TPHWG3","either","1","12","","","","","","","1","0","0","0.6","","0.5","0.5","0.5","0.5","","","","","0.8","0.2","0.6","0.2","","","","","","","","","","75","K","2","","true","0","full_practice","",""
"","bandit","66","396839","0.0-32.0-14.0","92942483","wem/bandit_party_1","A34PK1C7TPHWG3","either","1","328","","","","","","","1","0","0","0.6","","0.5","0.5","0.5","0.5","","","","","0.8","0.2","0.6","0.2","","","","","","","","","","75","K","2","","true","0","full_practice","",""
"","bandit","67","398518","0.0-32.0-15.0","92942483","wem/bandit_party_1","A34PK1C7TPHWG3","either","1","171","","","","","","","0","1","0","","0.6","0.5","0.5","0.5","0.5","0.8","0.2","0.6","0.2","","","","","","","","","","","","","","75","K","2","","true","0","full_practice","",""
"","bandit","68","400279","0.0-32.0-16.0","92942483","wem/bandit_party_1","A34PK1C7TPHWG3","either","1","252","","","","","","","0","1","0","","0.6","0.5","0.5","0.5","0.5","0.8","0.2","0.6","0.2","","","","","","","","","","","","","","75","K","2","","true","0","full_practice","",""
"","bandit","69","402008","0.0-32.0-17.0","92942483","wem/bandit_party_1","A34PK1C7TPHWG3","either","1","219","","","","","","","0","1","0","","0.6","0.5","0.5","0.5","0.5","0.8","0.2","0.6","0.2","","","","","","","","","","","","","","75","K","2","","true","0","full_practice","",""
"","bandit","70","403817","0.0-32.0-18.0","92942483","wem/bandit_party_1","A34PK1C7TPHWG3","either","1","298","","","","","","","0","0","1","0.6","","0.5","0.5","0.5","0.5","","","","","0.8","0.2","0.6","0.2","","","","","","","","","","75","K","2","","true","0","full_practice","",""
"","bandit","71","405464","0.0-32.0-19.0","92942483","wem/bandit_party_1","A34PK1C7TPHWG3","either","1","138","","","","","","","0","0","1","","0.6","0.5","0.5","0.5","0.5","0.8","0.2","0.6","0.2","","","","","","","","","","","","","","75","K","2","","true","0","full_practice","",""
"","text","72","409686","0.0-33.0","92942483","wem/bandit_party_1","A34PK1C7TPHWG3","either","1","4210","","","32","","","","","","","","","","","","","","","","","","","","","","","","","","","","","","","","","","","","","",""
"","text-replacement","73","427911","0.0-34.0","92942483","wem/bandit_party_1","A34PK1C7TPHWG3","either","1","17220","","","32","","","","","","","","","","","","","","","","","","","","","","","","","","","","","","","","","","","","","",""
"","text-replacement","74","437271","0.0-35.0","92942483","wem/bandit_party_1","A34PK1C7TPHWG3","either","1","9356","","","32","","","","","","","","","","","","","","","","","","","","","","","","","","","","","","","","","","","","","",""
"","text-replacement","75","445400","0.0-36.0","92942483","wem/bandit_party_1","A34PK1C7TPHWG3","either","1","8126","","","32","","","","","","","","","","","","","","","","","","","","","","","","","","","","","","","","","","","","","",""
"","text-replacement","76","466232","0.0-37.0","92942483","wem/bandit_party_1","A34PK1C7TPHWG3","either","1","20829","","","32","","","","","","","","","","","","","","","","","","","","","","","","","","","","","","","","","","","","","",""
"","text-replacement","77","474599","0.0-38.0","92942483","wem/bandit_party_1","A34PK1C7TPHWG3","either","1","8363","","","32","","","","","","","","","","","","","","","","","","","","","","","","","","","","","","","","","","","","","",""
"","survey-multi-choice-replacement","78","490761","0.0-39.0-0.0","92942483","wem/bandit_party_1","A34PK1C7TPHWG3","either","1","16150","","","","","","","","","","","","","","","","","","","","","","","","Money will be added to the pool for <span style='color:red;'>REPUBLICANS</span>","","","","","","","attn_check","","","","","","","","","0",""
"","survey-multi-choice-replacement","79","499523","0.0-40.0-0.0","92942483","wem/bandit_party_1","A34PK1C7TPHWG3","either","1","7749","","","","","","","","","","","","","","","","","","","","","","","","Money will be subtracted from the pool for <span style='color:blue;'>DEMOCRATS</span>","","","","","","","attn_check","","","","","","","","","1",""
"","instructions","80","502063","0.0-40.0-1.0-0.0","92942483","wem/bandit_party_1","A34PK1C7TPHWG3","either","1","1536","","","","","","","","","","","","","","","","","","","","","","","","","","","","","","","","","","","","","","","","","[{""page_index"":0,""viewing_time"":1535}]"
"","survey-multi-choice-replacement","81","506278","0.0-40.1-0.1","92942483","wem/bandit_party_1","A34PK1C7TPHWG3","either","1","3202","","","","","","","","","","","","","","","","","","","","","","","","Equal amounts of money will be added to the pool for <span style='color:red;'>REPUBLICANS</span> and subtracted from the pool for <span style='color:blue;'>DEMOCRATS</span>","","","","","","","attn_check","","","","","","","","","2",""
"","survey-multi-choice-replacement","82","510872","0.0-41.0-0.0","92942483","wem/bandit_party_1","A34PK1C7TPHWG3","either","1","3583","","","","","","","","","","","","","","","","","","","","","","","","No money will be added to either pool","","","","","","","attn_check","","","","","","","","","3",""
"","bandit","83","518999","0.0-42.0-0.0","92942483","wem/bandit_party_1","A34PK1C7TPHWG3","either","1","5617","","","","","","","0","0","1","","0.0798457429","0.4","0.2","0.8","0.6","0.4269289603","0.0798457429","0.3592836462","0.02943109976","","","","","","","","","","","","","","74","J","1","","","1","main_expt","",""
"","bandit","84","521414","0.0-43.0-0.0","92942483","wem/bandit_party_1","A34PK1C7TPHWG3","either","1","907","","","","","","","0","0","1","0.3454903542","","0.4","0.2","0.8","0.6","","","","","0.4660243271","0.07621336767","0.3454903542","0.06336112212","","","","","","","","","","75","K","2","","","2","main_expt","",""
"","bandit","85","523270","0.0-44.0-0.0","92942483","wem/bandit_party_1","A34PK1C7TPHWG3","either","1","346","","","","","","","0","0","1","0.07335687118","","0.4","0.2","0.8","0.6","","","","","0.4738503749","0.07476295528","0.2941512374","0.07335687118","","","","","","","","","","76","L","3","","","3","main_expt","",""
"","bandit","86","525062","0.0-45.0-0.0","92942483","wem/bandit_party_1","A34PK1C7TPHWG3","either","1","283","","","","","","","0","0","1","0.4618500418","","0.4","0.2","0.8","0.6","","","","","0.4618500418","0.06526985361","0.2851241965","0.06156305515","","","","","","","","","","72","H","0","img/none_selected.jpg","","4","main_expt","",""
"","bandit","87","526614","0.0-46.0-0.0","92942483","wem/bandit_party_1","A34PK1C7TPHWG3","either","1","43","","","","","","","0","0","1","","0.05487735528","0.4","0.2","0.8","0.6","0.4488935273","0.05487735528","0.3172925843","0.08141194251","","","","","","","","","","","","","","74","J","1","","","5","main_expt","",""
"","bandit","88","528424","0.0-47.0-0.0","92942483","wem/bandit_party_1","A34PK1C7TPHWG3","either","1","295","","","","","","","0","0","1","0.3319153021","","0.4","0.2","0.8","0.6","","","","","0.4437832297","0.04340015571","0.3319153021","0.1104821702","","","","","","","","","","75","K","2","","","6","main_expt","",""
"","bandit","89","530343","0.0-48.0-0.0","92942483","wem/bandit_party_1","A34PK1C7TPHWG3","either","1","410","","","","","","","0","0","1","","0.04575060371","0.4","0.2","0.8","0.6","0.4310077805","0.04575060371","0.3553039772","0.1191408541","","","","","","","","","","","","","","74","J","1","","","7","main_expt","",""
"","bandit","90","533513","0.0-49.0-0.0","92942483","wem/bandit_party_1","A34PK1C7TPHWG3","either","1","1659","","","","","","","0","0","1","","0.4480386191","0.4","0.2","0.8","0.6","0.4480386191","0.06112087539","0.3868093767","0.1517570037","","","","","","","","","","","","","","72","H","0","img/none_selected.jpg","","8","main_expt","",""
"","bandit","91","535351","0.0-50.0-0.0","92942483","wem/bandit_party_1","A34PK1C7TPHWG3","either","1","327","","","","","","","0","0","1","0.1738087075","","0.4","0.2","0.8","0.6","","","","","0.4460224538","0.07854191076","0.3754406694","0.1738087075","","","","","","","","","","76","L","3","","","9","main_expt","",""
"","bandit","92","537639","0.0-51.0-0.0","92942483","wem/bandit_party_1","A34PK1C7TPHWG3","either","1","778","","","","","","","0","0","1","0.3537433427","","0.4","0.2","0.8","0.6","","","","","0.3954493452","0.06865483858","0.3537433427","0.2033535465","","","","","","","","","","75","K","2","","","10","main_expt","",""
"","bandit","93","539782","0.0-52.0-0.0","92942483","wem/bandit_party_1","A34PK1C7TPHWG3","either","1","635","","","","","","","0","0","1","","0.05083805298","0.4","0.2","0.8","0.6","0.4064238371","0.05083805298","0.3793358735","0.1751631116","","","","","","","","","","","","","","74","J","1","","","11","main_expt","",""
"","bandit","94","541609","0.0-53.0-0.0","92942483","wem/bandit_party_1","A34PK1C7TPHWG3","either","1","318","","","","","","","1","0","0","0.3800428212","","0.4","0.2","0.8","0.6","","","","","0.3800839449","0.1038792476","0.3800428212","0.1787487179","","","","","","","","","","75","K","2","","","12","main_expt","",""
"","bandit","95","543557","0.0-54.0-0.0","92942483","wem/bandit_party_1","A34PK1C7TPHWG3","either","1","439","","","","","","","0","0","1","0.3647981021","","0.4","0.2","0.8","0.6","","","","","0.3866628193","0.1197284353","0.3647981021","0.1794712961","","","","","","","","","","75","K","2","","","13","main_expt","",""
"","bandit","96","546517","0.0-55.0-0.0","92942483","wem/bandit_party_1","A34PK1C7TPHWG3","either","1","1452","","","","","","","0","0","1","","0.3646471907","0.4","0.2","0.8","0.6","0.326509825","0.135681701","0.3646471907","0.2482140722","","","","","","","","","","","","","","75","K","2","","","14","main_expt","",""
"","bandit","97","550568","0.0-56.0-0.0","92942483","wem/bandit_party_1","A34PK1C7TPHWG3","either","1","2537","","","","","","","0","0","1","0.3549291363","","0.4","0.2","0.8","0.6","","","","","0.2428529647","0.125153919","0.3549291363","0.2859415589","","","","","","","","","","75","K","2","","","15","main_expt","",""
"","bandit","98","567223","0.0-57.0-0.0","92942483","wem/bandit_party_1","A34PK1C7TPHWG3","either","1","15146","","","","","","","1","0","0","0.3727350689","","0.4","0.2","0.8","0.6","","","","","0.2332962783","0.1096891688","0.3727350689","0.26587149","","","","","","","","","","75","K","2","","","16","main_expt","",""
"","bandit","99","569095","0.0-58.0-0.0","92942483","wem/bandit_party_1","A34PK1C7TPHWG3","either","1","362","","","","","","","0","0","1","0.3112083829","","0.4","0.2","0.8","0.6","","","","","0.2271032234","0.1051581447","0.3112083829","0.2776265896","","","","","","","","","","75","K","2","","","17","main_expt","",""
"","bandit","100","570870","0.0-59.0-0.0","92942483","wem/bandit_party_1","A34PK1C7TPHWG3","either","1","266","","","","","","","1","0","0","0.2403081055","","0.4","0.2","0.8","0.6","","","","","0.1701710303","0.1437943492","0.2403081055","0.3223387563","","","","","","","","","","75","K","2","","","18","main_expt","",""
"","bandit","101","572646","0.0-60.0-0.0","92942483","wem/bandit_party_1","A34PK1C7TPHWG3","either","1","268","","","","","","","0","0","1","","0.2377482675","0.4","0.2","0.8","0.6","0.2070198111","0.1405615485","0.2377482675","0.3192918255","","","","","","","","","","","","","","75","K","2","","","19","main_expt","",""
"","bandit","102","574727","0.0-61.0-0.0","92942483","wem/bandit_party_1","A34PK1C7TPHWG3","either","1","571","","","","","","","1","0","0","0.2607530295","","0.4","0.2","0.8","0.6","","","","","0.2412547966","0.1063334751","0.2607530295","0.2739159796","","","","","","","","","","75","K","2","","","20","main_expt","",""
"","bandit","103","576486","0.0-62.0-0.0","92942483","wem/bandit_party_1","A34PK1C7TPHWG3","either","1","248","","","","","","","0","1","0","","0.2919400674","0.4","0.2","0.8","0.6","0.2184758186","0.07848250716","0.2919400674","0.2454385858","","","","","","","","","","","","","","75","K","2","","","21","main_expt","",""
"","bandit","104","578214","0.0-63.0-0.0","92942483","wem/bandit_party_1","A34PK1C7TPHWG3","either","1","220","","","","","","","0","0","1","0.2995681058","","0.4","0.2","0.8","0.6","","","","","0.1849325376","0.1005082742","0.2995681058","0.2340842041","","","","","","","","","","75","K","2","","","22","main_expt","",""
"","bandit","105","579813","0.0-64.0-0.0","92942483","wem/bandit_party_1","A34PK1C7TPHWG3","either","1","91","","","","","","","0","0","1","0.292554742","","0.4","0.2","0.8","0.6","","","","","0.1521197653","0.0792694407","0.292554742","0.1840173947","","","","","","","","","","75","K","2","","","23","main_expt","",""
"","bandit","106","581573","0.0-65.0-0.0","92942483","wem/bandit_party_1","A34PK1C7TPHWG3","either","1","253","","","","","","","0","0","1","","0.1759403195","0.4","0.2","0.8","0.6","0.1759403195","0.07358699385","0.3616894364","0.1745529383","","","","","","","","","","","","","","72","H","0","img/none_selected.jpg","","24","main_expt","",""
"","bandit","107","583366","0.0-66.0-0.0","92942483","wem/bandit_party_1","A34PK1C7TPHWG3","either","1","284","","","","","","","0","0","1","","0.09479311865","0.4","0.2","0.8","0.6","0.09479311865","0.142208116","0.3575757263","0.1756582033","","","","","","","","","","","","","","72","H","0","img/none_selected.jpg","","25","main_expt","",""
"","bandit","108","585142","0.0-67.0-0.0","92942483","wem/bandit_party_1","A34PK1C7TPHWG3","either","1","267","","","","","","","0","0","1","0.2086365416","","0.4","0.2","0.8","0.6","","","","","0.08156123497","0.1245113583","0.3635346368","0.2086365416","","","","","","","","","","76","L","3","","","26","main_expt","",""
"","bandit","109","586662","0.0-68.0-0.0","92942483","wem/bandit_party_1","A34PK1C7TPHWG3","either","1","11","","","","","","","0","0","1","","0.2139763749","0.4","0.2","0.8","0.6","0.1102307873","0.118364605","0.4109801844","0.2139763749","","","","","","","","","","","","","","76","L","3","","","27","main_expt","",""
"","bandit","110","588538","0.0-69.0-0.0","92942483","wem/bandit_party_1","A34PK1C7TPHWG3","either","1","365","","","","","","","0","0","1","","0.1105930361","0.4","0.2","0.8","0.6","0.08274430796","0.1105930361","0.3772962545","0.1613483267","","","","","","","","","","","","","","74","J","1","","","28","main_expt","",""
"","bandit","111","590165","0.0-70.0-0.0","92942483","wem/bandit_party_1","A34PK1C7TPHWG3","either","1","119","","","","","","","0","0","1","","0.1118713044","0.4","0.2","0.8","0.6","0.1086911099","0.1118713044","0.3875745016","0.1712488152","","","","","","","","","","","","","","74","J","1","","","29","main_expt","",""
"","bandit","112","591895","0.0-71.0-0.0","92942483","wem/bandit_party_1","A34PK1C7TPHWG3","either","1","220","","","","","","","1","0","0","0.3780019893","","0.4","0.2","0.8","0.6","","","","","0.1116575632","0.1914750456","0.3780019893","0.1675524316","","","","","","","","","","75","K","2","","","30","main_expt","",""
"","bandit","113","593702","0.0-72.0-0.0","92942483","wem/bandit_party_1","A34PK1C7TPHWG3","either","1","298","","","","","","","0","0","1","0.416860241","","0.4","0.2","0.8","0.6","","","","","0.07828091442","0.2367730164","0.416860241","0.140325158","","","","","","","","","","75","K","2","","","31","main_expt","",""
"","bandit","114","595447","0.0-73.0-0.0","92942483","wem/bandit_party_1","A34PK1C7TPHWG3","either","1","235","","","","","","","0","1","0","","0.4242573056","0.4","0.2","0.8","0.6","0.07550395781","0.2109574779","0.4242573056","0.1553940025","","","","","","","","","","","","","","75","K","2","","","32","main_expt","",""
"","bandit","115","597223","0.0-74.0-0.0","92942483","wem/bandit_party_1","A34PK1C7TPHWG3","either","1","265","","","","","","","0","0","1","0.4185546122","","0.4","0.2","0.8","0.6","","","","","0.1445529326","0.2005542758","0.4185546122","0.1925614924","","","","","","","","","","75","K","2","","","33","main_expt","",""
"","bandit","116","598871","0.0-75.0-0.0","92942483","wem/bandit_party_1","A34PK1C7TPHWG3","either","1","139","","","","","","","1","0","0","0.4268308419","","0.4","0.2","0.8","0.6","","","","","0.1091775744","0.180377021","0.4268308419","0.2150530123","","","","","","","","","","75","K","2","","","34","main_expt","",""
"","bandit","117","600629","0.0-76.0-0.0","92942483","wem/bandit_party_1","A34PK1C7TPHWG3","either","1","249","","","","","","","0","0","1","0.4265642185","","0.4","0.2","0.8","0.6","","","","","0.1297995116","0.2111187229","0.4265642185","0.2688968874","","","","","","","","","","75","K","2","","","35","main_expt","",""
"","bandit","118","602599","0.0-77.0-0.0","92942483","wem/bandit_party_1","A34PK1C7TPHWG3","either","1","460","","","","","","","0","0","1","0.4066287969","","0.4","0.2","0.8","0.6","","","","","0.09468550628","0.2119332756","0.4066287969","0.2977459964","","","","","","","","","","75","K","2","","","36","main_expt","",""
"","bandit","119","604438","0.0-78.0-0.0","92942483","wem/bandit_party_1","A34PK1C7TPHWG3","either","1","329","","","","","","","0","1","0","","0.4611471687","0.4","0.2","0.8","0.6","0.09396978408","0.2256131965","0.4611471687","0.2684429955","","","","","","","","","","","","","","75","K","2","","","37","main_expt","",""
"","bandit","120","606166","0.0-79.0-0.0","92942483","wem/bandit_party_1","A34PK1C7TPHWG3","either","1","219","","","","","","","0","0","1","0.4482708269","","0.4","0.2","0.8","0.6","","","","","0.1062257399","0.1975147253","0.4482708269","0.2490186117","","","","","","","","","","75","K","2","","","38","main_expt","",""
"","bandit","121","607942","0.0-80.0-0.0","92942483","wem/bandit_party_1","A34PK1C7TPHWG3","either","1","267","","","","","","","1","0","0","0.4402774387","","0.4","0.2","0.8","0.6","","","","","0.09676453159","0.1595648847","0.4402774387","0.2548033483","","","","","","","","","","75","K","2","","","39","main_expt","",""
"","bandit","122","609592","0.0-81.0-0.0","92942483","wem/bandit_party_1","A34PK1C7TPHWG3","either","1","138","","","","","","","1","0","0","0.4385128538","","0.4","0.2","0.8","0.6","","","","","0.08197179495","0.1626610004","0.4385128538","0.2688720753","","","","","","","","","","75","K","2","","","40","main_expt","",""
"","bandit","123","611367","0.0-82.0-0.0","92942483","wem/bandit_party_1","A34PK1C7TPHWG3","either","1","265","","","","","","","0","0","1","0.4380640779","","0.4","0.2","0.8","0.6","","","","","0.14416382","0.1982402655","0.4380640779","0.297778532","","","","","","","","","","75","K","2","","","41","main_expt","",""
"","bandit","124","613158","0.0-83.0-0.0","92942483","wem/bandit_party_1","A34PK1C7TPHWG3","either","1","282","","","","","","","1","0","0","0.4265224768","","0.4","0.2","0.8","0.6","","","","","0.1070927036","0.1863610343","0.4265224768","0.2449207522","","","","","","","","","","75","K","2","","","42","main_expt","",""
"","bandit","125","614693","0.0-84.0-0.0","92942483","wem/bandit_party_1","A34PK1C7TPHWG3","either","1","27","","","","","","","0","0","1","0.435880106","","0.4","0.2","0.8","0.6","","","","","0.1214526226","0.2418389683","0.435880106","0.2457567503","","","","","","","","","","75","K","2","","","43","main_expt","",""
"","bandit","126","616501","0.0-85.0-0.0","92942483","wem/bandit_party_1","A34PK1C7TPHWG3","either","1","298","","","","","","","1","0","0","0.4450576882","","0.4","0.2","0.8","0.6","","","","","0.1450738833","0.1943491227","0.4450576882","0.2432732657","","","","","","","","","","75","K","2","","","44","main_expt","",""
"","bandit","127","618295","0.0-86.0-0.0","92942483","wem/bandit_party_1","A34PK1C7TPHWG3","either","1","284","","","","","","","1","0","0","0.4382030275","","0.4","0.2","0.8","0.6","","","","","0.09632230927","0.1543250971","0.4382030275","0.2656772236","","","","","","","","","","75","K","2","","","45","main_expt","",""
"","bandit","128","620103","0.0-87.0-0.0","92942483","wem/bandit_party_1","A34PK1C7TPHWG3","either","1","298","","","","","","","0","0","1","","0.4412369426","0.4","0.2","0.8","0.6","0.103211431","0.09719433791","0.4412369426","0.2432112423","","","","","","","","","","","","","","75","K","2","","","46","main_expt","",""
"","bandit","129","621830","0.0-88.0-0.0","92942483","wem/bandit_party_1","A34PK1C7TPHWG3","either","1","215","","","","","","","0","0","1","0.4588863431","","0.4","0.2","0.8","0.6","","","","","0.09916324924","0.1228880329","0.4588863431","0.2992745976","","","","","","","","","","75","K","2","","","47","main_expt","",""
"","bandit","130","624902","0.0-89.0-0.0","92942483","wem/bandit_party_1","A34PK1C7TPHWG3","either","1","1563","","","","","","","0","0","1","0.4408788818","","0.4","0.2","0.8","0.6","","","","","0.1090242341","0.1068532567","0.4408788818","0.2594611615","","","","","","","","","","75","K","2","","","48","main_expt","",""
"","bandit","131","628247","0.0-90.0-0.0","92942483","wem/bandit_party_1","A34PK1C7TPHWG3","either","1","1835","","","","","","","0","0","1","0.4232064109","","0.4","0.2","0.8","0.6","","","","","0.1265186769","0.1044048509","0.4232064109","0.2767916858","","","","","","","","","","75","K","2","","","49","main_expt","",""
"","bandit","132","630054","0.0-91.0-0.0","92942483","wem/bandit_party_1","A34PK1C7TPHWG3","either","1","297","","","","","","","0","1","0","","0.4210883962","0.4","0.2","0.8","0.6","0.1397440907","0.1072026782","0.4210883962","0.2762534014","","","","","","","","","","","","","","75","K","2","","","50","main_expt","",""
"","bandit","133","631911","0.0-92.0-0.0","92942483","wem/bandit_party_1","A34PK1C7TPHWG3","either","1","346","","","","","","","0","0","1","","0.4225635581","0.4","0.2","0.8","0.6","0.153600331","0.1287882573","0.4225635581","0.3379376541","","","","","","","","","","","","","","75","K","2","","","51","main_expt","",""
"","bandit","134","633847","0.0-93.0-0.0","92942483","wem/bandit_party_1","A34PK1C7TPHWG3","either","1","424","","","","","","","1","0","0","0.4146237098","","0.4","0.2","0.8","0.6","","","","","0.1718407591","0.1298059469","0.4146237098","0.3395267946","","","","","","","","","","75","K","2","","","52","main_expt","",""
"","bandit","135","635637","0.0-94.0-0.0","92942483","wem/bandit_party_1","A34PK1C7TPHWG3","either","1","280","","","","","","","0","0","1","0.3763623321","","0.4","0.2","0.8","0.6","","","","","0.1945727614","0.07423060895","0.3763623321","0.29674647","","","","","","","","","","75","K","2","","","53","main_expt","",""
"","bandit","136","637830","0.0-95.0-0.0","92942483","wem/bandit_party_1","A34PK1C7TPHWG3","either","1","682","","","","","","","0","0","1","0.3289081181","","0.4","0.2","0.8","0.6","","","","","0.2450542523","0.08562383645","0.3289081181","0.3372955831","","","","","","","","","","75","K","2","","","54","main_expt","",""
"","bandit","137","639750","0.0-96.0-0.0","92942483","wem/bandit_party_1","A34PK1C7TPHWG3","either","1","412","","","","","","","0","0","1","0.3025984711","","0.4","0.2","0.8","0.6","","","","","0.2547241938","0.0757818623","0.3025984711","0.3506099842","","","","","","","","","","75","K","2","","","55","main_expt","",""
"","bandit","138","641879","0.0-97.0-0.0","92942483","wem/bandit_party_1","A34PK1C7TPHWG3","either","1","617","","","","","","","1","0","0","0.2921333137","","0.4","0.2","0.8","0.6","","","","","0.2595112895","0.09897923035","0.2921333137","0.3418029788","","","","","","","","","","75","K","2","","","56","main_expt","",""
"","bandit","139","643784","0.0-98.0-0.0","92942483","wem/bandit_party_1","A34PK1C7TPHWG3","either","1","395","","","","","","","0","0","1","0.3317177772","","0.4","0.2","0.8","0.6","","","","","0.2610276213","0.1160875525","0.3317177772","0.3162475816","","","","","","","","","","75","K","2","","","57","main_expt","",""
"","bandit","140","645591","0.0-99.0-0.0","92942483","wem/bandit_party_1","A34PK1C7TPHWG3","either","1","297","","","","","","","0","0","1","","0.3240244649","0.4","0.2","0.8","0.6","0.2354201416","0.1134641846","0.3240244649","0.3269881105","","","","","","","","","","","","","","75","K","2","","","58","main_expt","",""
"","bandit","141","647398","0.0-100.0-0.0","92942483","wem/bandit_party_1","A34PK1C7TPHWG3","either","1","298","","","","","","","1","0","0","0.2988076671","","0.4","0.2","0.8","0.6","","","","","0.2346370837","0.1177083384","0.2988076671","0.2901324944","","","","","","","","","","75","K","2","","","59","main_expt","",""
"","bandit","142","649254","0.0-101.0-0.0","92942483","wem/bandit_party_1","A34PK1C7TPHWG3","either","1","345","","","","","","","1","0","0","0.3096792726","","0.4","0.2","0.8","0.6","","","","","0.2315637733","0.1125723432","0.3096792726","0.289588464","","","","","","","","","","75","K","2","","","60","main_expt","",""
"","bandit","143","651078","0.0-102.0-0.0","92942483","wem/bandit_party_1","A34PK1C7TPHWG3","either","1","315","","","","","","","0","0","1","0.2821336973","","0.4","0.2","0.8","0.6","","","","","0.2599537756","0.09911093426","0.2821336973","0.2782845563","","","","","","","","","","75","K","2","","","61","main_expt","",""
"","bandit","144","653061","0.0-103.0-0.0","92942483","wem/bandit_party_1","A34PK1C7TPHWG3","either","1","473","","","","","","","1","0","0","0.2414244345","","0.4","0.2","0.8","0.6","","","","","0.2594941563","0.09440438105","0.2414244345","0.3165490401","","","","","","","","","","75","K","2","","","62","main_expt","",""
"","bandit","145","655000","0.0-104.0-0.0","92942483","wem/bandit_party_1","A34PK1C7TPHWG3","either","1","426","","","","","","","0","0","1","0.213639373","","0.4","0.2","0.8","0.6","","","","","0.2660839385","0.1015409351","0.213639373","0.3034564924","","","","","","","","","","75","K","2","","","63","main_expt","",""
"","bandit","146","656727","0.0-105.0-0.0","92942483","wem/bandit_party_1","A34PK1C7TPHWG3","either","1","212","","","","","","","0","0","1","0.1876308072","","0.4","0.2","0.8","0.6","","","","","0.2426585031","0.07049798599","0.1876308072","0.2506654962","","","","","","","","","","75","K","2","","","64","main_expt","",""
"","bandit","147","658455","0.0-106.0-0.0","92942483","wem/bandit_party_1","A34PK1C7TPHWG3","either","1","217","","","","","","","0","0","1","","0.1841803182","0.4","0.2","0.8","0.6","0.2581047566","0.05735603507","0.1841803182","0.253414466","","","","","","","","","","","","","","75","K","2","","","65","main_expt","",""
"","bandit","148","660215","0.0-107.0-0.0","92942483","wem/bandit_party_1","A34PK1C7TPHWG3","either","1","250","","","","","","","0","0","1","0.187417598","","0.4","0.2","0.8","0.6","","","","","0.2872127433","0.0621258055","0.187417598","0.2836500186","","","","","","","","","","75","K","2","","","66","main_expt","",""
"","bandit","149","661942","0.0-108.0-0.0","92942483","wem/bandit_party_1","A34PK1C7TPHWG3","either","1","216","","","","","","","1","0","0","0.1395950637","","0.4","0.2","0.8","0.6","","","","","0.3232337643","0.06966106928","0.1395950637","0.3217852231","","","","","","","","","","75","K","2","","","67","main_expt","",""
"","bandit","150","663737","0.0-109.0-0.0","92942483","wem/bandit_party_1","A34PK1C7TPHWG3","either","1","283","","","","","","","0","0","1","0.1363519197","","0.4","0.2","0.8","0.6","","","","","0.3376006622","0.09965709916","0.1363519197","0.3574581916","","","","","","","","","","75","K","2","","","68","main_expt","",""
"","bandit","151","665607","0.0-110.0-0.0","92942483","wem/bandit_party_1","A34PK1C7TPHWG3","either","1","360","","","","","","","0","0","1","0.1117144852","","0.4","0.2","0.8","0.6","","","","","0.2917609244","0.1428217854","0.1117144852","0.3884563005","","","","","","","","","","75","K","2","","","69","main_expt","",""
"","bandit","152","667384","0.0-111.0-0.0","92942483","wem/bandit_party_1","A34PK1C7TPHWG3","either","1","265","","","","","","","0","0","1","0.09667493602","","0.4","0.2","0.8","0.6","","","","","0.2218665627","0.1866845388","0.09667493602","0.3920047773","","","","","","","","","","75","K","2","","","70","main_expt","",""
"","bandit","153","669207","0.0-112.0-0.0","92942483","wem/bandit_party_1","A34PK1C7TPHWG3","either","1","312","","","","","","","0","0","1","0.09186933139","","0.4","0.2","0.8","0.6","","","","","0.2409383839","0.1702545286","0.09186933139","0.4066376731","","","","","","","","","","75","K","2","","","71","main_expt","",""
"","bandit","154","671093","0.0-113.0-0.0","92942483","wem/bandit_party_1","A34PK1C7TPHWG3","either","1","376","","","","","","","0","0","1","","0.1836279043","0.4","0.2","0.8","0.6","0.1920783453","0.1836279043","0.09472009463","0.3443789926","","","","","","","","","","","","","","74","J","1","","","72","main_expt","",""
"","bandit","155","673013","0.0-114.0-0.0","92942483","wem/bandit_party_1","A34PK1C7TPHWG3","either","1","411","","","","","","","0","0","1","","0.1905254877","0.4","0.2","0.8","0.6","0.1905254877","0.1644348242","0.1167805336","0.3227553012","","","","","","","","","","","","","","72","H","0","img/none_selected.jpg","","73","main_expt","",""
"","bandit","156","674680","0.0-115.0-0.0","92942483","wem/bandit_party_1","A34PK1C7TPHWG3","either","1","154","","","","","","","0","0","1","0.3336652139","","0.4","0.2","0.8","0.6","","","","","0.184198213","0.1833421201","0.1465151254","0.3336652139","","","","","","","","","","76","L","3","","","74","main_expt","",""
"","bandit","157","678281","0.0-116.0-0.0","92942483","wem/bandit_party_1","A34PK1C7TPHWG3","either","1","2084","","","","","","","0","0","1","0.2890150868","","0.4","0.2","0.8","0.6","","","","","0.1881920243","0.1519653276","0.123285719","0.2890150868","","","","","","","","","","76","L","3","","","75","main_expt","",""
"","bandit","158","680038","0.0-117.0-0.0","92942483","wem/bandit_party_1","A34PK1C7TPHWG3","either","1","247","","","","","","","0","0","1","0.2673490463","","0.4","0.2","0.8","0.6","","","","","0.1988930589","0.1506622639","0.1392606081","0.2673490463","","","","","","","","","","76","L","3","","","76","main_expt","",""
"","bandit","159","681815","0.0-118.0-0.0","92942483","wem/bandit_party_1","A34PK1C7TPHWG3","either","1","264","","","","","","","0","0","1","0.2255968657","","0.4","0.2","0.8","0.6","","","","","0.2255968657","0.1860897766","0.099337717","0.2858541315","","","","","","","","","","72","H","0","img/none_selected.jpg","","77","main_expt","",""
"","bandit","160","683624","0.0-119.0-0.0","92942483","wem/bandit_party_1","A34PK1C7TPHWG3","either","1","296","","","","","","","0","0","1","","0.1917014014","0.4","0.2","0.8","0.6","0.1917014014","0.1618556875","0.09666605973","0.2639968829","","","","","","","","","","","","","","72","H","0","img/none_selected.jpg","","78","main_expt","",""
"","bandit","161","685558","0.0-120.0-0.0","92942483","wem/bandit_party_1","A34PK1C7TPHWG3","either","1","424","","","","","","","0","0","1","","0.2092129429","0.4","0.2","0.8","0.6","0.2092129429","0.1976853889","0.09639353985","0.2304888896","","","","","","","","","","","","","","72","H","0","img/none_selected.jpg","","79","main_expt","",""
"","bandit","162","687349","0.0-121.0-0.0","92942483","wem/bandit_party_1","A34PK1C7TPHWG3","either","1","279","","","","","","","0","0","1","","0.1974306726","0.4","0.2","0.8","0.6","0.1974306726","0.2198838985","0.09566996791","0.1991809665","","","","","","","","","","","","","","72","H","0","img/none_selected.jpg","","80","main_expt","",""
"","bandit","163","689205","0.0-122.0-0.0","92942483","wem/bandit_party_1","A34PK1C7TPHWG3","either","1","346","","","","","","","0","0","1","","0.1414754506","0.4","0.2","0.8","0.6","0.1414754506","0.2167005254","0.07958501382","0.1627434897","","","","","","","","","","","","","","72","H","0","img/none_selected.jpg","","81","main_expt","",""
"","bandit","164","691446","0.0-123.0-0.0","92942483","wem/bandit_party_1","A34PK1C7TPHWG3","either","1","730","","","","","","","0","0","1","0.2527486409","","0.4","0.2","0.8","0.6","","","","","0.1422587364","0.2527486409","0.08833774835","0.1624637972","","","","","","","","","","74","J","1","","","82","main_expt","",""
"","bandit","165","693222","0.0-124.0-0.0","92942483","wem/bandit_party_1","A34PK1C7TPHWG3","either","1","265","","","","","","","0","0","1","","0.2569721607","0.4","0.2","0.8","0.6","0.1079415531","0.2569721607","0.09109006352","0.1900332","","","","","","","","","","","","","","74","J","1","","","83","main_expt","",""
"","bandit","166","695096","0.0-125.0-0.0","92942483","wem/bandit_party_1","A34PK1C7TPHWG3","either","1","363","","","","","","","0","0","1","0.2535394321","","0.4","0.2","0.8","0.6","","","","","0.07696487024","0.2535394321","0.05321730921","0.1705646391","","","","","","","","","","74","J","1","","","84","main_expt","",""
"","bandit","167","697030","0.0-126.0-0.0","92942483","wem/bandit_party_1","A34PK1C7TPHWG3","either","1","424","","","","","","","0","1","0","","0.2255799186","0.4","0.2","0.8","0.6","0.08313016423","0.2255799186","0.03321009489","0.2053302659","","","","","","","","","","","","","","74","J","1","","","85","main_expt","",""
"","bandit","168","698918","0.0-127.0-0.0","92942483","wem/bandit_party_1","A34PK1C7TPHWG3","either","1","374","","","","","","","0","0","1","","0.2197080914","0.4","0.2","0.8","0.6","0.102083396","0.2197080914","0.04864990798","0.2128685413","","","","","","","","","","","","","","74","J","1","","","86","main_expt","",""
"","bandit","169","700726","0.0-128.0-0.0","92942483","wem/bandit_party_1","A34PK1C7TPHWG3","either","1","296","","","","","","","0","0","1","0.2230338057","","0.4","0.2","0.8","0.6","","","","","0.09067070718","0.2230338057","0.07919268752","0.213778815","","","","","","","","","","74","J","1","","","87","main_expt","",""
"","bandit","170","702615","0.0-129.0-0.0","92942483","wem/bandit_party_1","A34PK1C7TPHWG3","either","1","374","","","","","","","0","0","1","","0.2484269739","0.4","0.2","0.8","0.6","0.1421970704","0.2484269739","0.05835116993","0.2102340809","","","","","","","","","","","","","","74","J","1","","","88","main_expt","",""
"","bandit","171","704725","0.0-130.0-0.0","92942483","wem/bandit_party_1","A34PK1C7TPHWG3","either","1","600","","","","","","","0","0","1","","0.2733562597","0.4","0.2","0.8","0.6","0.219142046","0.2733562597","0.05115519592","0.1809358483","","","","","","","","","","","","","","74","J","1","","","89","main_expt","",""
"","bandit","172","708119","0.0-131.0-0.0","92942483","wem/bandit_party_1","A34PK1C7TPHWG3","either","1","1883","","","","","","","0","0","1","0.07819273649","","0.4","0.2","0.8","0.6","","","","","0.2806923657","0.2973868449","0.07819273649","0.1293356972","","","","","","","","","","75","K","2","","","90","main_expt","",""
"","bandit","173","710296","0.0-132.0-0.0","92942483","wem/bandit_party_1","A34PK1C7TPHWG3","either","1","660","","","","","","","0","0","1","0.05564661524","","0.4","0.2","0.8","0.6","","","","","0.2819660137","0.3067689268","0.05564661524","0.1136224352","","","","","","","","","","75","K","2","","","91","main_expt","",""
"","bandit","174","712598","0.0-133.0-0.0","92942483","wem/bandit_party_1","A34PK1C7TPHWG3","either","1","791","","","","","","","0","0","1","","0.05914103421","0.4","0.2","0.8","0.6","0.3370305887","0.2719776188","0.05914103421","0.07539152519","","","","","","","","","","","","","","75","K","2","","","92","main_expt","",""
"","bandit","175","714759","0.0-134.0-0.0","92942483","wem/bandit_party_1","A34PK1C7TPHWG3","either","1","649","","","","","","","0","0","1","0.03944324463","","0.4","0.2","0.8","0.6","","","","","0.3722719914","0.3081791896","0.03944324463","0.08243558305","","","","","","","","","","75","K","2","","","93","main_expt","",""
"","bandit","176","718695","0.0-135.0-0.0","92942483","wem/bandit_party_1","A34PK1C7TPHWG3","either","1","2426","","","","","","","0","0","1","0.05023017475","","0.4","0.2","0.8","0.6","","","","","0.3840030774","0.356667856","0.05023017475","0.09807673793","","","","","","","","","","75","K","2","","","94","main_expt","",""
"","bandit","177","720822","0.0-136.0-0.0","92942483","wem/bandit_party_1","A34PK1C7TPHWG3","either","1","616","","","","","","","0","0","1","0.09746204728","","0.4","0.2","0.8","0.6","","","","","0.4050844552","0.3300765204","0.07311956304","0.09746204728","","","","","","","","","","76","L","3","","","95","main_expt","",""
"","bandit","178","722680","0.0-137.0-0.0","92942483","wem/bandit_party_1","A34PK1C7TPHWG3","either","1","345","","","","","","","0","0","1","","0.08559835745","0.4","0.2","0.8","0.6","0.4081076376","0.3642735905","0.09573717159","0.08559835745","","","","","","","","","","","","","","76","L","3","","","96","main_expt","",""
"","bandit","179","724581","0.0-138.0-0.0","92942483","wem/bandit_party_1","A34PK1C7TPHWG3","either","1","388","","","","","","","0","0","1","","0.0732645996","0.4","0.2","0.8","0.6","0.4142780263","0.3885664579","0.1235519285","0.0732645996","","","","","","","","","","","","","","76","L","3","","","97","main_expt","",""
"","bandit","180","726647","0.0-139.0-0.0","92942483","wem/bandit_party_1","A34PK1C7TPHWG3","either","1","552","","","","","","","0","0","1","0.05343209845","","0.4","0.2","0.8","0.6","","","","","0.4131193208","0.4162912028","0.1274282425","0.05343209845","","","","","","","","","","76","L","3","","","98","main_expt","",""
"","bandit","181","728214","0.0-140.0-0.0","92942483","wem/bandit_party_1","A34PK1C7TPHWG3","either","1","54","","","","","","","0","0","1","","0.4074153657","0.4","0.2","0.8","0.6","0.428944851","0.4074153657","0.1457321849","0.05144299931","","","","","","","","","","","","","","74","J","1","","","99","main_expt","",""
"","bandit","182","730200","0.0-141.0-0.0","92942483","wem/bandit_party_1","A34PK1C7TPHWG3","either","1","476","","","","","","","0","0","1","","0.4279797645","0.4","0.2","0.8","0.6","0.4279797645","0.3349137267","0.1492128348","0.03934302155","","","","","","","","","","","","","","72","H","0","img/none_selected.jpg","","100","main_expt","",""
"","bandit","183","731735","0.0-142.0-0.0","92942483","wem/bandit_party_1","A34PK1C7TPHWG3","either","1","24","","","","","","","0","0","1","0.125019219","","0.4","0.2","0.8","0.6","","","","","0.4189249443","0.2732947861","0.125019219","0.05783306622","","","","","","","","","","75","K","2","","","101","main_expt","",""
"","bandit","184","733655","0.0-143.0-0.0","92942483","wem/bandit_party_1","A34PK1C7TPHWG3","either","1","404","","","","","","","0","0","1","0.1008510245","","0.4","0.2","0.8","0.6","","","","","0.4279241466","0.2584454073","0.1008510245","0.06484492547","","","","","","","","","","75","K","2","","","102","main_expt","",""
"","bandit","185","735606","0.0-144.0-0.0","92942483","wem/bandit_party_1","A34PK1C7TPHWG3","either","1","441","","","","","","","1","0","0","0.1087281004","","0.4","0.2","0.8","0.6","","","","","0.419390052","0.2143891894","0.1087281004","0.0701259157","","","","","","","","","","75","K","2","","","103","main_expt","",""
"","bandit","186","737478","0.0-145.0-0.0","92942483","wem/bandit_party_1","A34PK1C7TPHWG3","either","1","358","","","","","","","0","0","1","0.143855427","","0.4","0.2","0.8","0.6","","","","","0.3761202226","0.1354346047","0.143855427","0.06922647753","","","","","","","","","","75","K","2","","","104","main_expt","",""
"","bandit","187","739290","0.0-146.0-0.0","92942483","wem/bandit_party_1","A34PK1C7TPHWG3","either","1","292","","","","","","","0","0","1","","0.1606853024","0.4","0.2","0.8","0.6","0.4229881466","0.1615963473","0.1606853024","0.07802312096","","","","","","","","","","","","","","75","K","2","","","105","main_expt","",""
"","bandit","188","741190","0.0-147.0-0.0","92942483","wem/bandit_party_1","A34PK1C7TPHWG3","either","1","387","","","","","","","1","0","0","0.1612939645","","0.4","0.2","0.8","0.6","","","","","0.4110558218","0.1738621023","0.1612939645","0.08930313369","","","","","","","","","","75","K","2","","","106","main_expt","",""
"","bandit","189","743382","0.0-148.0-0.0","92942483","wem/bandit_party_1","A34PK1C7TPHWG3","either","1","681","","","","","","","0","0","1","0.1778053335","","0.4","0.2","0.8","0.6","","","","","0.4176599015","0.1799671425","0.1778053335","0.1397733654","","","","","","","","","","75","K","2","","","107","main_expt","",""
"","bandit","190","746342","0.0-149.0-0.0","92942483","wem/bandit_party_1","A34PK1C7TPHWG3","either","1","1450","","","","","","","1","0","0","0.1826465361","","0.4","0.2","0.8","0.6","","","","","0.4210396584","0.1844274074","0.1826465361","0.1505899732","","","","","","","","","","75","K","2","","","108","main_expt","",""
"","bandit","191","748118","0.0-150.0-0.0","92942483","wem/bandit_party_1","A34PK1C7TPHWG3","either","1","262","","","","","","","0","0","1","0.1737022726","","0.4","0.2","0.8","0.6","","","","","0.4328015469","0.1702708828","0.1737022726","0.1162436109","","","","","","","","","","75","K","2","","","109","main_expt","",""
"","bandit","192","749959","0.0-151.0-0.0","92942483","wem/bandit_party_1","A34PK1C7TPHWG3","either","1","328","","","","","","","0","0","1","0.1658344406","","0.4","0.2","0.8","0.6","","","","","0.4495585744","0.1964407335","0.1658344406","0.08267976014","","","","","","","","","","75","K","2","","","110","main_expt","",""
"","bandit","193","752199","0.0-152.0-0.0","92942483","wem/bandit_party_1","A34PK1C7TPHWG3","either","1","728","","","","","","","1","0","0","0.240619448","","0.4","0.2","0.8","0.6","","","","","0.4237631325","0.1777579569","0.240619448","0.09389793805","","","","","","","","","","75","K","2","","","111","main_expt","",""
"","bandit","194","755061","0.0-153.0-0.0","92942483","wem/bandit_party_1","A34PK1C7TPHWG3","either","1","1353","","","","","","","0","0","1","0.1927397719","","0.4","0.2","0.8","0.6","","","","","0.4521571561","0.1395994444","0.1927397719","0.07903418564","","","","","","","","","","75","K","2","","","112","main_expt","",""
"","bandit","195","757766","0.0-154.0-0.0","92942483","wem/bandit_party_1","A34PK1C7TPHWG3","either","1","1190","","","","","","","0","0","1","","0.234725565","0.4","0.2","0.8","0.6","0.4350762846","0.1205999431","0.234725565","0.05501139052","","","","","","","","","","","","","","75","K","2","","","113","main_expt","",""
"","bandit","196","760679","0.0-155.0-0.0","92942483","wem/bandit_party_1","A34PK1C7TPHWG3","either","1","1401","","","","","","","0","0","1","0.1950215869","","0.4","0.2","0.8","0.6","","","","","0.4315824664","0.09123355482","0.1950215869","0.07627702456","","","","","","","","","","75","K","2","","","114","main_expt","",""
"","bandit","197","762935","0.0-156.0-0.0","92942483","wem/bandit_party_1","A34PK1C7TPHWG3","either","1","745","","","","","","","0","1","0","","0.09554471192","0.4","0.2","0.8","0.6","0.4127349624","0.09554471192","0.2575833325","0.03985247356","","","","","","","","","","","","","","74","J","1","","","115","main_expt","",""
"","bandit","198","764822","0.0-157.0-0.0","92942483","wem/bandit_party_1","A34PK1C7TPHWG3","either","1","377","","","","","","","0","0","1","","0.1942182492","0.4","0.2","0.8","0.6","0.4468356006","0.1942182492","0.2296468005","0.0683792979","","","","","","","","","","","","","","74","J","1","","","116","main_expt","",""
"","bandit","199","766694","0.0-158.0-0.0","92942483","wem/bandit_party_1","A34PK1C7TPHWG3","either","1","362","","","","","","","0","0","1","","0.2208250117","0.4","0.2","0.8","0.6","0.4458703805","0.2208250117","0.2816483341","0.03956212276","","","","","","","","","","","","","","74","J","1","","","117","main_expt","",""
"","bandit","200","768758","0.0-159.0-0.0","92942483","wem/bandit_party_1","A34PK1C7TPHWG3","either","1","553","","","","","","","0","0","1","0.1687975443","","0.4","0.2","0.8","0.6","","","","","0.4500370674","0.1687975443","0.2626769985","0.04459229253","","","","","","","","","","74","J","1","","","118","main_expt","",""
"","bandit","201","770838","0.0-160.0-0.0","92942483","wem/bandit_party_1","A34PK1C7TPHWG3","either","1","569","","","","","","","0","0","1","","0.1546105485","0.4","0.2","0.8","0.6","0.4704359259","0.1546105485","0.2418090277","0.03386957434","","","","","","","","","","","","","","74","J","1","","","119","main_expt","",""
"","bandit","202","772646","0.0-161.0-0.0","92942483","wem/bandit_party_1","A34PK1C7TPHWG3","either","1","297","","","","","","","0","0","1","","0.143668411","0.4","0.2","0.8","0.6","0.4578798539","0.143668411","0.2603236095","0.03305427522","","","","","","","","","","","","","","74","J","1","","","120","main_expt","",""
"","bandit","203","774855","0.0-162.0-0.0","92942483","wem/bandit_party_1","A34PK1C7TPHWG3","either","1","699","","","","","","","0","0","1","","0.1098317425","0.4","0.2","0.8","0.6","0.4591190262","0.1098317425","0.2381785671","0.03146098963","","","","","","","","","","","","","","74","J","1","","","121","main_expt","",""
"","bandit","204","776901","0.0-163.0-0.0","92942483","wem/bandit_party_1","A34PK1C7TPHWG3","either","1","536","","","","","","","0","1","0","","0.1097832873","0.4","0.2","0.8","0.6","0.4643737298","0.1097832873","0.2388462554","0.02311797033","","","","","","","","","","","","","","74","J","1","","","122","main_expt","",""
"","bandit","205","778807","0.0-164.0-0.0","92942483","wem/bandit_party_1","A34PK1C7TPHWG3","either","1","393","","","","","","","0","0","1","","0.1145900252","0.4","0.2","0.8","0.6","0.451586091","0.1145900252","0.2079929623","0.0171261738","","","","","","","","","","","","","","74","J","1","","","123","main_expt","",""
"","bandit","206","780583","0.0-165.0-0.0","92942483","wem/bandit_party_1","A34PK1C7TPHWG3","either","1","263","","","","","","","0","0","1","0.2148400852","","0.4","0.2","0.8","0.6","","","","","0.4456906556","0.1137783892","0.2148400852","0.03468299263","","","","","","","","","","75","K","2","","","124","main_expt","",""
"","bandit","207","782263","0.0-166.0-0.0","92942483","wem/bandit_party_1","A34PK1C7TPHWG3","either","1","167","","","","","","","0","1","0","","0.2185056602","0.4","0.2","0.8","0.6","0.4240876494","0.145605256","0.2185056602","0.02544516396","","","","","","","","","","","","","","75","K","2","","","125","main_expt","",""
"","bandit","208","784102","0.0-167.0-0.0","92942483","wem/bandit_party_1","A34PK1C7TPHWG3","either","1","328","","","","","","","0","0","1","0.2152323899","","0.4","0.2","0.8","0.6","","","","","0.4008501573","0.1443839055","0.2152323899","0.03059506073","","","","","","","","","","75","K","2","","","126","main_expt","",""
"","bandit","209","786359","0.0-168.0-0.0","92942483","wem/bandit_party_1","A34PK1C7TPHWG3","either","1","744","","","","","","","0","0","1","0.1699446714","","0.4","0.2","0.8","0.6","","","","","0.4066073101","0.1434222382","0.1699446714","0.0339638967","","","","","","","","","","75","K","2","","","127","main_expt","",""
"","bandit","210","792213","0.0-169.0-0.0","92942483","wem/bandit_party_1","A34PK1C7TPHWG3","either","1","4340","","","","","","","0","0","1","0.1299446217","","0.4","0.2","0.8","0.6","","","","","0.4270302575","0.1412168693","0.1299446217","0.02632978063","","","","","","","","","","75","K","2","","","128","main_expt","",""
"","bandit","211","795413","0.0-170.0-0.0","92942483","wem/bandit_party_1","A34PK1C7TPHWG3","either","1","1688","","","","","","","0","1","0","","0.1299487573","0.4","0.2","0.8","0.6","0.4401824822","0.1086871361","0.1299487573","0.02640977482","","","","","","","","","","","","","","75","K","2","","","129","main_expt","",""
"","bandit","212","797255","0.0-171.0-0.0","92942483","wem/bandit_party_1","A34PK1C7TPHWG3","either","1","329","","","","","","","0","0","1","0.1172580566","","0.4","0.2","0.8","0.6","","","","","0.4160959849","0.1672766288","0.1172580566","0.03646961518","","","","","","","","","","75","K","2","","","130","main_expt","",""
"","bandit","213","799494","0.0-172.0-0.0","92942483","wem/bandit_party_1","A34PK1C7TPHWG3","either","1","727","","","","","","","1","0","0","0.1289979545","","0.4","0.2","0.8","0.6","","","","","0.4374535298","0.157110596","0.1289979545","0.02171712127","","","","","","","","","","75","K","2","","","131","main_expt","",""
"","bandit","214","801176","0.0-173.0-0.0","92942483","wem/bandit_party_1","A34PK1C7TPHWG3","either","1","167","","","","","","","0","0","1","0.1243754988","","0.4","0.2","0.8","0.6","","","","","0.4382483821","0.1338697581","0.1243754988","0.01004766493","","","","","","","","","","75","K","2","","","132","main_expt","",""
"","bandit","215","802950","0.0-174.0-0.0","92942483","wem/bandit_party_1","A34PK1C7TPHWG3","either","1","263","","","","","","","0","1","0","","0.1189203389","0.4","0.2","0.8","0.6","0.3913946914","0.1101669797","0.1189203389","0.005153708139","","","","","","","","","","","","","","75","K","2","","","133","main_expt","",""
"","bandit","216","804615","0.0-175.0-0.0","92942483","wem/bandit_party_1","A34PK1C7TPHWG3","either","1","151","","","","","","","0","0","1","0.07075860378","","0.4","0.2","0.8","0.6","","","","","0.4280120537","0.060775537","0.07075860378","0.01308543257","","","","","","","","","","75","K","2","","","134","main_expt","",""
"","bandit","217","806502","0.0-176.0-0.0","92942483","wem/bandit_party_1","A34PK1C7TPHWG3","either","1","375","","","","","","","0","0","1","0.1073185777","","0.4","0.2","0.8","0.6","","","","","0.4385213509","0.0714416082","0.1073185777","0.02634180281","","","","","","","","","","75","K","2","","","135","main_expt","",""
"","bandit","218","808504","0.0-177.0-0.0","92942483","wem/bandit_party_1","A34PK1C7TPHWG3","either","1","490","","","","","","","0","0","1","0.1001442491","","0.4","0.2","0.8","0.6","","","","","0.4605212521","0.1115096907","0.1001442491","0.04122629063","","","","","","","","","","75","K","2","","","136","main_expt","",""
"","bandit","219","811126","0.0-178.0-0.0","92942483","wem/bandit_party_1","A34PK1C7TPHWG3","either","1","1109","","","","","","","1","0","0","0.1736681681","","0.4","0.2","0.8","0.6","","","","","0.4729500637","0.1307091067","0.1736681681","0.05517648788","","","","","","","","","","75","K","2","","","137","main_expt","",""
"","bandit","220","813526","0.0-179.0-0.0","92942483","wem/bandit_party_1","A34PK1C7TPHWG3","either","1","884","","","","","","","0","0","1","","0.1289533412","0.4","0.2","0.8","0.6","0.4705425907","0.1289533412","0.1839908368","0.05929415862","","","","","","","","","","","","","","74","J","1","","","138","main_expt","",""
"","bandit","221","815687","0.0-180.0-0.0","92942483","wem/bandit_party_1","A34PK1C7TPHWG3","either","1","648","","","","","","","0","0","1","","0.1500833973","0.4","0.2","0.8","0.6","0.465423541","0.1215972271","0.1500833973","0.05470710098","","","","","","","","","","","","","","75","K","2","","","139","main_expt","",""
"","bandit","222","818744","0.0-181.0-0.0","92942483","wem/bandit_party_1","A34PK1C7TPHWG3","either","1","1542","","","","","","","0","0","1","0.1718879457","","0.4","0.2","0.8","0.6","","","","","0.4486857012","0.1158179575","0.1718879457","0.06062538604","","","","","","","","","","75","K","2","","","140","main_expt","",""
"","bandit","223","820584","0.0-182.0-0.0","92942483","wem/bandit_party_1","A34PK1C7TPHWG3","either","1","328","","","","","","","0","0","1","0.2025036279","","0.4","0.2","0.8","0.6","","","","","0.4053061298","0.08691297649","0.2025036279","0.05819772386","","","","","","","","","","75","K","2","","","141","main_expt","",""
"","bandit","224","822134","0.0-183.0-0.0","92942483","wem/bandit_party_1","A34PK1C7TPHWG3","either","1","37","","","","","","","0","0","1","0.1872564568","","0.4","0.2","0.8","0.6","","","","","0.3989731656","0.1425267255","0.1872564568","0.05329701838","","","","","","","","","","75","K","2","","","142","main_expt","",""
"","bandit","225","824981","0.0-184.0-0.0","92942483","wem/bandit_party_1","A34PK1C7TPHWG3","either","1","1333","","","","","","","0","0","1","","0.1676641842","0.4","0.2","0.8","0.6","0.3783570596","0.1425141192","0.1676641842","0.06209903385","","","","","","","","","","","","","","75","K","2","","","143","main_expt","",""
"","bandit","226","828486","0.0-185.0-0.0","92942483","wem/bandit_party_1","A34PK1C7TPHWG3","either","1","1991","","","","","","","0","0","1","0.1502987652","","0.4","0.2","0.8","0.6","","","","","0.3485663762","0.1362652721","0.1502987652","0.06954729647","","","","","","","","","","75","K","2","","","144","main_expt","",""
"","bandit","227","832299","0.0-186.0-0.0","92942483","wem/bandit_party_1","A34PK1C7TPHWG3","either","1","2298","","","","","","","0","0","1","0.1050568962","","0.4","0.2","0.8","0.6","","","","","0.3534190037","0.1335650053","0.1050568962","0.062760129","","","","","","","","","","75","K","2","","","145","main_expt","",""
"","bandit","228","835751","0.0-187.0-0.0","92942483","wem/bandit_party_1","A34PK1C7TPHWG3","either","1","1939","","","","","","","0","0","1","0.1266784727","","0.4","0.2","0.8","0.6","","","","","0.342282706","0.1392461982","0.1266784727","0.05014677947","","","","","","","","","","75","K","2","","","146","main_expt","",""
"","bandit","229","837990","0.0-188.0-0.0","92942483","wem/bandit_party_1","A34PK1C7TPHWG3","either","1","728","","","","","","","0","0","1","0.1121887101","","0.4","0.2","0.8","0.6","","","","","0.3497384939","0.1060810453","0.1121887101","0.04801868921","","","","","","","","","","75","K","2","","","147","main_expt","",""
"","bandit","230","842118","0.0-189.0-0.0","92942483","wem/bandit_party_1","A34PK1C7TPHWG3","either","1","2615","","","","","","","0","0","1","0.1050077765","","0.4","0.2","0.8","0.6","","","","","0.3507348305","0.1076054289","0.1050077765","0.05298179562","","","","","","","","","","75","K","2","","","148","main_expt","",""
"","bandit","231","844215","0.0-190.0-0.0","92942483","wem/bandit_party_1","A34PK1C7TPHWG3","either","1","584","","","","","","","0","0","1","0.08725679698","","0.4","0.2","0.8","0.6","","","","","0.306786392","0.09143227578","0.08725679698","0.05271587927","","","","","","","","","","75","K","2","","","149","main_expt","",""
"","bandit","232","848887","0.0-191.0-0.0","92942483","wem/bandit_party_1","A34PK1C7TPHWG3","either","1","3157","","","","","","","0","0","1","0.04813781364","","0.4","0.2","0.8","0.6","","","","","0.3289077467","0.08361181256","0.04813781364","0.06153260368","","","","","","","","","","75","K","2","","","150","main_expt","",""
"","bandit","233","852518","0.0-192.0-0.0","92942483","wem/bandit_party_1","A34PK1C7TPHWG3","either","1","2119","","","","","","","0","0","1","0.04690393958","","0.4","0.2","0.8","0.6","","","","","0.2844912386","0.1038450747","0.04690393958","0.07716317934","","","","","","","","","","75","K","2","","","151","main_expt","",""
"","bandit","234","855384","0.0-193.0-0.0","92942483","wem/bandit_party_1","A34PK1C7TPHWG3","either","1","1351","","","","","","","0","0","1","0.05051779207","","0.4","0.2","0.8","0.6","","","","","0.3221551402","0.1311897928","0.05051779207","0.08370894892","","","","","","","","","","75","K","2","","","152","main_expt","",""
"","bandit","235","857509","0.0-194.0-0.0","92942483","wem/bandit_party_1","A34PK1C7TPHWG3","either","1","615","","","","","","","0","0","1","","0.288581716","0.4","0.2","0.8","0.6","0.288581716","0.1106636196","0.0417019452","0.06235129306","","","","","","","","","","","","","","72","H","0","img/none_selected.jpg","","153","main_expt","",""
"","bandit","236","859350","0.0-195.0-0.0","92942483","wem/bandit_party_1","A34PK1C7TPHWG3","either","1","323","","","","","","","0","0","1","","0.08808261531","0.4","0.2","0.8","0.6","0.3674714493","0.08044616817","0.04565059468","0.08808261531","","","","","","","","","","","","","","76","L","3","","","154","main_expt","",""
"","bandit","237","861254","0.0-196.0-0.0","92942483","wem/bandit_party_1","A34PK1C7TPHWG3","either","1","392","","","","","","","0","0","1","","0.09849608375","0.4","0.2","0.8","0.6","0.3836765626","0.09849608375","0.0249337719","0.08415746701","","","","","","","","","","","","","","74","J","1","","","155","main_expt","",""
"","bandit","238","863013","0.0-197.0-0.0","92942483","wem/bandit_party_1","A34PK1C7TPHWG3","either","1","245","","","","","","","0","1","0","","0.0679626842","0.4","0.2","0.8","0.6","0.3499766022","0.0679626842","0.0207568711","0.1363215429","","","","","","","","","","","","","","74","J","1","","","156","main_expt","",""
"","bandit","239","864773","0.0-198.0-0.0","92942483","wem/bandit_party_1","A34PK1C7TPHWG3","either","1","248","","","","","","","0","0","1","","0.06316877849","0.4","0.2","0.8","0.6","0.3083455354","0.06316877849","0.01044871803","0.176329139","","","","","","","","","","","","","","74","J","1","","","157","main_expt","",""
"","bandit","240","866599","0.0-199.0-0.0","92942483","wem/bandit_party_1","A34PK1C7TPHWG3","either","1","314","","","","","","","0","0","1","","0.06381796224","0.4","0.2","0.8","0.6","0.2780985587","0.06381796224","0.008486032171","0.2239815039","","","","","","","","","","","","","","74","J","1","","","158","main_expt","",""
"","bandit","241","868278","0.0-200.0-0.0","92942483","wem/bandit_party_1","A34PK1C7TPHWG3","either","1","167","","","","","","","0","0","1","","0.09986374221","0.4","0.2","0.8","0.6","0.2721424699","0.09986374221","0.006770001311","0.1754735631","","","","","","","","","","","","","","74","J","1","","","159","main_expt","",""
"","bandit","242","870087","0.0-201.0-0.0","92942483","wem/bandit_party_1","A34PK1C7TPHWG3","either","1","294","","","","","","","0","0","1","0.08334790929","","0.4","0.2","0.8","0.6","","","","","0.3005636977","0.08334790929","0.005009972043","0.1820859676","","","","","","","","","","74","J","1","","","160","main_expt","",""
"","bandit","243","872183","0.0-202.0-0.0","92942483","wem/bandit_party_1","A34PK1C7TPHWG3","either","1","583","","","","","","","0","0","1","0.2481613967","","0.4","0.2","0.8","0.6","","","","","0.2481613967","0.1094566723","0.003825417776","0.1771527669","","","","","","","","","","72","H","0","img/none_selected.jpg","","161","main_expt","",""
"","bandit","244","873927","0.0-203.0-0.0","92942483","wem/bandit_party_1","A34PK1C7TPHWG3","either","1","229","","","","","","","0","1","0","","0.2040880477","0.4","0.2","0.8","0.6","0.2040880477","0.1287108975","0.006458278423","0.209245514","","","","","","","","","","","","","","72","H","0","img/none_selected.jpg","","162","main_expt","",""
"","bandit","245","875542","0.0-204.0-0.0","92942483","wem/bandit_party_1","A34PK1C7TPHWG3","either","1","103","","","","","","","0","0","1","","0.256608811","0.4","0.2","0.8","0.6","0.256608811","0.1811808859","0.01344146107","0.1864252411","","","","","","","","","","","","","","72","H","0","img/none_selected.jpg","","163","main_expt","",""
"","bandit","246","877529","0.0-205.0-0.0","92942483","wem/bandit_party_1","A34PK1C7TPHWG3","either","1","470","","","","","","","0","0","1","","0.2798468236","0.4","0.2","0.8","0.6","0.2798468236","0.1374611454","0.004940614731","0.1662237337","","","","","","","","","","","","","","72","H","0","img/none_selected.jpg","","164","main_expt","",""
"","bandit","247","879477","0.0-206.0-0.0","92942483","wem/bandit_party_1","A34PK1C7TPHWG3","either","1","434","","","","","","","0","1","0","","0.2689568899","0.4","0.2","0.8","0.6","0.2689568899","0.1640313333","0.007349038951","0.1375661656","","","","","","","","","","","","","","72","H","0","img/none_selected.jpg","","165","main_expt","",""
"","bandit","248","882549","0.0-207.0-0.0","92942483","wem/bandit_party_1","A34PK1C7TPHWG3","either","1","1559","","","","","","","0","0","1","","0.2786045926","0.4","0.2","0.8","0.6","0.2786045926","0.20052236","0.005679103294","0.1416727521","","","","","","","","","","","","","","72","H","0","img/none_selected.jpg","","166","main_expt","",""
"","bandit","249","886662","0.0-208.0-0.0","92942483","wem/bandit_party_1","A34PK1C7TPHWG3","either","1","2600","","","","","","","0","0","1","0.1497541138","","0.4","0.2","0.8","0.6","","","","","0.2507583434","0.1945206589","0.004037182679","0.1497541138","","","","","","","","","","76","L","3","","","167","main_expt","",""
"","bandit","250","888567","0.0-209.0-0.0","92942483","wem/bandit_party_1","A34PK1C7TPHWG3","either","1","392","","","","","","","0","0","1","","0.1761460581","0.4","0.2","0.8","0.6","0.1827624484","0.1902154162","0.007111326723","0.1761460581","","","","","","","","","","","","","","76","L","3","","","168","main_expt","",""
"","bandit","251","890422","0.0-210.0-0.0","92942483","wem/bandit_party_1","A34PK1C7TPHWG3","either","1","344","","","","","","","0","0","1","","0.01708305062","0.4","0.2","0.8","0.6","0.1558723634","0.1931964682","0.01708305062","0.2248215173","","","","","","","","","","","","","","75","K","2","","","169","main_expt","",""
"","bandit","252","892280","0.0-211.0-0.0","92942483","wem/bandit_party_1","A34PK1C7TPHWG3","either","1","345","","","","","","","0","0","1","","0.236179436","0.4","0.2","0.8","0.6","0.1757164868","0.236179436","0.02105388628","0.2503105048","","","","","","","","","","","","","","74","J","1","","","170","main_expt","",""
"","bandit","253","894054","0.0-212.0-0.0","92942483","wem/bandit_party_1","A34PK1C7TPHWG3","either","1","262","","","","","","","0","1","0","","0.1985597056","0.4","0.2","0.8","0.6","0.1985597056","0.2229285478","0.01477187034","0.2515708499","","","","","","","","","","","","","","72","H","0","img/none_selected.jpg","","171","main_expt","",""
"","bandit","254","895941","0.0-213.0-0.0","92942483","wem/bandit_party_1","A34PK1C7TPHWG3","either","1","373","","","","","","","0","0","1","","0.1725269859","0.4","0.2","0.8","0.6","0.1725269859","0.1805811295","0.00639283578","0.2601117771","","","","","","","","","","","","","","72","H","0","img/none_selected.jpg","","172","main_expt","",""
"","bandit","255","897751","0.0-214.0-0.0","92942483","wem/bandit_party_1","A34PK1C7TPHWG3","either","1","296","","","","","","","1","0","0","0.1955807132","","0.4","0.2","0.8","0.6","","","","","0.1955807132","0.2203049146","0.008503536177","0.2277859889","","","","","","","","","","72","H","0","img/none_selected.jpg","","173","main_expt","",""
"","bandit","256","899654","0.0-215.0-0.0","92942483","wem/bandit_party_1","A34PK1C7TPHWG3","either","1","389","","","","","","","0","0","1","","0.1712969398","0.4","0.2","0.8","0.6","0.1712969398","0.2079245196","0.01512836446","0.204090619","","","","","","","","","","","","","","72","H","0","img/none_selected.jpg","","174","main_expt","",""
"","bandit","257","901495","0.0-216.0-0.0","92942483","wem/bandit_party_1","A34PK1C7TPHWG3","either","1","327","","","","","","","0","1","0","","0.2145566876","0.4","0.2","0.8","0.6","0.2145566876","0.1904909119","0.034550241","0.2264282848","","","","","","","","","","","","","","72","H","0","img/none_selected.jpg","","175","main_expt","",""
"","bandit","258","903366","0.0-217.0-0.0","92942483","wem/bandit_party_1","A34PK1C7TPHWG3","either","1","354","","","","","","","0","0","1","0.1987050603","","0.4","0.2","0.8","0.6","","","","","0.1987050603","0.1611975006","0.01969997198","0.2263436383","","","","","","","","","","72","H","0","img/none_selected.jpg","","176","main_expt","",""
"","bandit","259","905302","0.0-218.0-0.0","92942483","wem/bandit_party_1","A34PK1C7TPHWG3","either","1","420","","","","","","","0","0","1","","0.2161967517","0.4","0.2","0.8","0.6","0.2161967517","0.1747210449","0.02558747067","0.2449632337","","","","","","","","","","","","","","72","H","0","img/none_selected.jpg","","177","main_expt","",""
"","bandit","260","907543","0.0-219.0-0.0","92942483","wem/bandit_party_1","A34PK1C7TPHWG3","either","1","728","","","","","","","0","0","1","0.1790488899","","0.4","0.2","0.8","0.6","","","","","0.1790488899","0.1667690144","0.02865462312","0.1923885174","","","","","","","","","","72","H","0","img/none_selected.jpg","","178","main_expt","",""
"","bandit","261","909254","0.0-220.0-0.0","92942483","wem/bandit_party_1","A34PK1C7TPHWG3","either","1","197","","","","","","","0","0","1","","0.1254539317","0.4","0.2","0.8","0.6","0.1254539317","0.248539666","0.05873937836","0.1791230597","","","","","","","","","","","","","","72","H","0","img/none_selected.jpg","","179","main_expt","",""
"","bandit","262","911429","0.0-221.0-0.0","92942483","wem/bandit_party_1","A34PK1C7TPHWG3","either","1","660","","","","","","","0","0","1","","0.1761702366","0.4","0.2","0.8","0.6","0.1761702366","0.2393284063","0.04996702027","0.1641305094","","","","","","","","","","","","","","72","H","0","img/none_selected.jpg","","180","main_expt","",""
"","bandit","263","914117","0.0-222.0-0.0","92942483","wem/bandit_party_1","A34PK1C7TPHWG3","either","1","1176","","","","","","","0","0","1","","0.2307221343","0.4","0.2","0.8","0.6","0.2307221343","0.2450765022","0.06192223509","0.1567194189","","","","","","","","","","","","","","72","H","0","img/none_selected.jpg","","181","main_expt","",""
"","bandit","264","916887","0.0-223.0-0.0","92942483","wem/bandit_party_1","A34PK1C7TPHWG3","either","1","1255","","","","","","","0","0","1","","0.1656926355","0.4","0.2","0.8","0.6","0.1656926355","0.2898963007","0.07865608963","0.1805899487","","","","","","","","","","","","","","72","H","0","img/none_selected.jpg","","182","main_expt","",""
"","bandit","265","918918","0.0-224.0-0.0","92942483","wem/bandit_party_1","A34PK1C7TPHWG3","either","1","515","","","","","","","0","0","1","0.1381226487","","0.4","0.2","0.8","0.6","","","","","0.1997223474","0.337419987","0.0695036973","0.1381226487","","","","","","","","","","76","L","3","","","183","main_expt","",""
"","bandit","266","920536","0.0-225.0-0.0","92942483","wem/bandit_party_1","A34PK1C7TPHWG3","either","1","103","","","","","","","1","0","0","0.09883674892","","0.4","0.2","0.8","0.6","","","","","0.1936006223","0.3334404967","0.09883674892","0.1157029232","","","","","","","","","","75","K","2","","","184","main_expt","",""
"","bandit","267","922327","0.0-226.0-0.0","92942483","wem/bandit_party_1","A34PK1C7TPHWG3","either","1","274","","","","","","","0","0","1","0.1344132801","","0.4","0.2","0.8","0.6","","","","","0.1794548994","0.3049781316","0.1344132801","0.09007466759","","","","","","","","","","75","K","2","","","185","main_expt","",""
"","bandit","268","924358","0.0-227.0-0.0","92942483","wem/bandit_party_1","A34PK1C7TPHWG3","either","1","516","","","","","","","0","0","1","0.1194183803","","0.4","0.2","0.8","0.6","","","","","0.1679588243","0.322039184","0.1194183803","0.07784091677","","","","","","","","","","75","K","2","","","186","main_expt","",""
"","bandit","269","926405","0.0-228.0-0.0","92942483","wem/bandit_party_1","A34PK1C7TPHWG3","either","1","533","","","","","","","1","0","0","0.1456002269","","0.4","0.2","0.8","0.6","","","","","0.1692259204","0.2898485093","0.1456002269","0.1332261693","","","","","","","","","","75","K","2","","","187","main_expt","",""
"","bandit","270","928422","0.0-229.0-0.0","92942483","wem/bandit_party_1","A34PK1C7TPHWG3","either","1","505","","","","","","","0","0","1","","0.1008589119","0.4","0.2","0.8","0.6","0.1796926114","0.3046836684","0.1008589119","0.1302169342","","","","","","","","","","","","","","75","K","2","","","188","main_expt","",""
"","bandit","271","930261","0.0-230.0-0.0","92942483","wem/bandit_party_1","A34PK1C7TPHWG3","either","1","327","","","","","","","0","0","1","0.09109327247","","0.4","0.2","0.8","0.6","","","","","0.1463090895","0.3437642557","0.09109327247","0.1459867673","","","","","","","","","","75","K","2","","","189","main_expt","",""
"","bandit","272","932249","0.0-231.0-0.0","92942483","wem/bandit_party_1","A34PK1C7TPHWG3","either","1","473","","","","","","","0","0","1","","0.133333279","0.4","0.2","0.8","0.6","0.1670442817","0.3685715368","0.133333279","0.1930387326","","","","","","","","","","","","","","75","K","2","","","190","main_expt","",""
"","bandit","273","937128","0.0-232.0-0.0","92942483","wem/bandit_party_1","A34PK1C7TPHWG3","either","1","3363","","","","","","","0","0","1","","0.2148667481","0.4","0.2","0.8","0.6","0.2148667481","0.4063368095","0.1253338948","0.1447045196","","","","","","","","","","","","","","72","H","0","img/none_selected.jpg","","191","main_expt","",""
"","bandit","274","939431","0.0-233.0-0.0","92942483","wem/bandit_party_1","A34PK1C7TPHWG3","either","1","785","","","","","","","0","0","1","0.1891029698","","0.4","0.2","0.8","0.6","","","","","0.1891029698","0.4194789623","0.1371372983","0.1521301445","","","","","","","","","","72","H","0","img/none_selected.jpg","","192","main_expt","",""
"","bandit","275","943655","0.0-234.0-0.0","92942483","wem/bandit_party_1","A34PK1C7TPHWG3","either","1","2711","","","","","","","0","0","1","0.1269519223","","0.4","0.2","0.8","0.6","","","","","0.1818436489","0.3914453041","0.1269519223","0.1216552598","","","","","","","","","","75","K","2","","","193","main_expt","",""
"","bandit","276","945687","0.0-235.0-0.0","92942483","wem/bandit_party_1","A34PK1C7TPHWG3","either","1","516","","","","","","","1","0","0","0.3988429791","","0.4","0.2","0.8","0.6","","","","","0.2036833838","0.3988429791","0.1253972088","0.07681554104","","","","","","","","","","74","J","1","","","194","main_expt","",""
"","bandit","277","947479","0.0-236.0-0.0","92942483","wem/bandit_party_1","A34PK1C7TPHWG3","either","1","276","","","","","","","0","0","1","","0.4212514022","0.4","0.2","0.8","0.6","0.2189502041","0.4212514022","0.1231557279","0.07468822185","","","","","","","","","","","","","","74","J","1","","","195","main_expt","",""
"","bandit","278","949285","0.0-237.0-0.0","92942483","wem/bandit_party_1","A34PK1C7TPHWG3","either","1","294","","","","","","","0","1","0","","0.4128950903","0.4","0.2","0.8","0.6","0.2011136523","0.4128950903","0.2304226507","0.07634526252","","","","","","","","","","","","","","74","J","1","","","196","main_expt","",""
"","bandit","279","951205","0.0-238.0-0.0","92942483","wem/bandit_party_1","A34PK1C7TPHWG3","either","1","405","","","","","","","0","0","1","0.3979973083","","0.4","0.2","0.8","0.6","","","","","0.2295646827","0.3979973083","0.3102822931","0.06680697181","","","","","","","","","","74","J","1","","","197","main_expt","",""
"","bandit","280","953030","0.0-239.0-0.0","92942483","wem/bandit_party_1","A34PK1C7TPHWG3","either","1","310","","","","","","","0","0","1","0.3153467244","","0.4","0.2","0.8","0.6","","","","","0.2570874699","0.3153467244","0.3222054514","0.05107679344","","","","","","","","","","74","J","1","","","198","main_expt","",""
"","bandit","281","954967","0.0-240.0-0.0","92942483","wem/bandit_party_1","A34PK1C7TPHWG3","either","1","422","","","","","","","0","0","1","","0.3121882746","0.4","0.2","0.8","0.6","0.2215013189","0.3121882746","0.3416159467","0.06140804873","","","","","","","","","","","","","","74","J","1","","","199","main_expt","",""
"","bandit","282","956950","0.0-241.0-0.0","92942483","wem/bandit_party_1","A34PK1C7TPHWG3","either","1","468","","","","","","","0","1","0","","0.3789620948","0.4","0.2","0.8","0.6","0.1681318695","0.3789620948","0.3826655938","0.05697288244","","","","","","","","","","","","","","74","J","1","","","200","main_expt","",""
"","bandit","283","959014","0.0-242.0-0.0","92942483","wem/bandit_party_1","A34PK1C7TPHWG3","either","1","549","","","","","","","0","1","0","","0.3575696279","0.4","0.2","0.8","0.6","0.1787039029","0.3575696279","0.4117435103","0.04802221103","","","","","","","","","","","","","","74","J","1","","","201","main_expt","",""
"","bandit","284","960678","0.0-243.0-0.0","92942483","wem/bandit_party_1","A34PK1C7TPHWG3","either","1","150","","","","","","","0","1","0","","0.3937046418","0.4","0.2","0.8","0.6","0.2180442152","0.3937046418","0.4023622846","0.04583536071","","","","","","","","","","","","","","74","J","1","","","202","main_expt","",""
"","bandit","285","962677","0.0-244.0-0.0","92942483","wem/bandit_party_1","A34PK1C7TPHWG3","either","1","487","","","","","","","0","0","1","","0.3901943722","0.4","0.2","0.8","0.6","0.262784421","0.3901943722","0.4225273878","0.03655969434","","","","","","","","","","","","","","74","J","1","","","203","main_expt","",""
"","bandit","286","964405","0.0-245.0-0.0","92942483","wem/bandit_party_1","A34PK1C7TPHWG3","either","1","211","","","","","","","1","0","0","0.4151046429","","0.4","0.2","0.8","0.6","","","","","0.2843732649","0.4099131859","0.4151046429","0.05773518339","","","","","","","","","","75","K","2","","","204","main_expt","",""
"","bandit","287","966071","0.0-246.0-0.0","92942483","wem/bandit_party_1","A34PK1C7TPHWG3","either","1","152","","","","","","","0","1","0","","0.4288165897","0.4","0.2","0.8","0.6","0.2549063301","0.4238238901","0.4288165897","0.06616346658","","","","","","","","","","","","","","75","K","2","","","205","main_expt","",""
"","bandit","288","967863","0.0-247.0-0.0","92942483","wem/bandit_party_1","A34PK1C7TPHWG3","either","1","276","","","","","","","0","0","1","0.436745712","","0.4","0.2","0.8","0.6","","","","","0.2982701688","0.4139837541","0.436745712","0.09055598832","","","","","","","","","","75","K","2","","","206","main_expt","",""
"","bandit","289","969669","0.0-248.0-0.0","92942483","wem/bandit_party_1","A34PK1C7TPHWG3","either","1","292","","","","","","","1","0","0","0.4484652972","","0.4","0.2","0.8","0.6","","","","","0.3423773839","0.3544894801","0.4484652972","0.07583085731","","","","","","","","","","75","K","2","","","207","main_expt","",""
"","bandit","290","971479","0.0-249.0-0.0","92942483","wem/bandit_party_1","A34PK1C7TPHWG3","either","1","294","","","","","","","0","0","1","0.3321535101","","0.4","0.2","0.8","0.6","","","","","0.3321535101","0.3703609936","0.4516947584","0.09768014643","","","","","","","","","","72","H","0","img/none_selected.jpg","","208","main_expt","",""
"","bandit","291","973094","0.0-250.0-0.0","92942483","wem/bandit_party_1","A34PK1C7TPHWG3","either","1","99","","","","","","","0","0","1","","0.3467721984","0.4","0.2","0.8","0.6","0.3467721984","0.3590511704","0.4590139285","0.08389795445","","","","","","","","","","","","","","72","H","0","img/none_selected.jpg","","209","main_expt","",""
"","bandit","292","974790","0.0-251.0-0.0","92942483","wem/bandit_party_1","A34PK1C7TPHWG3","either","1","183","","","","","","","0","1","0","","0.3781523972","0.4","0.2","0.8","0.6","0.3513447539","0.3781523972","0.4378910613","0.07846525543","","","","","","","","","","","","","","74","J","1","","","210","main_expt","",""
"","bandit","293","976343","0.0-252.0-0.0","92942483","wem/bandit_party_1","A34PK1C7TPHWG3","either","1","38","","","","","","","1","0","0","0.3895188655","","0.4","0.2","0.8","0.6","","","","","0.4003692624","0.3895188655","0.4139384991","0.05906932722","","","","","","","","","","74","J","1","","","211","main_expt","",""
"","bandit","294","978055","0.0-253.0-0.0","92942483","wem/bandit_party_1","A34PK1C7TPHWG3","either","1","198","","","","","","","0","1","0","","0.4075098947","0.4","0.2","0.8","0.6","0.3949660502","0.4075098947","0.3659234609","0.04754192311","","","","","","","","","","","","","","74","J","1","","","212","main_expt","",""
"","bandit","295","979846","0.0-254.0-0.0","92942483","wem/bandit_party_1","A34PK1C7TPHWG3","either","1","274","","","","","","","1","0","0","0.4191075236","","0.4","0.2","0.8","0.6","","","","","0.4233479157","0.4191075236","0.3180572988","0.05481920189","","","","","","","","","","74","J","1","","","213","main_expt","",""
"","bandit","296","981671","0.0-255.0-0.0","92942483","wem/bandit_party_1","A34PK1C7TPHWG3","either","1","305","","","","","","","0","0","1","","0.3799529118","0.4","0.2","0.8","0.6","0.4182751871","0.3799529118","0.2611162072","0.07954578011","","","","","","","","","","","","","","74","J","1","","","214","main_expt","",""
"","bandit","297","983445","0.0-256.0-0.0","92942483","wem/bandit_party_1","A34PK1C7TPHWG3","either","1","258","","","","","","","0","0","1","","0.3924699069","0.4","0.2","0.8","0.6","0.3745823719","0.3924699069","0.2331309726","0.1078137614","","","","","","","","","","","","","","74","J","1","","","215","main_expt","",""
"","bandit","298","985349","0.0-257.0-0.0","92942483","wem/bandit_party_1","A34PK1C7TPHWG3","either","1","389","","","","","","","0","1","0","","0.3556657658","0.4","0.2","0.8","0.6","0.3809837923","0.3556657658","0.2428402293","0.1269525553","","","","","","","","","","","","","","74","J","1","","","216","main_expt","",""
"","bandit","299","987255","0.0-258.0-0.0","92942483","wem/bandit_party_1","A34PK1C7TPHWG3","either","1","392","","","","","","","0","0","1","","0.3870416945","0.4","0.2","0.8","0.6","0.4144294186","0.3870416945","0.2317762644","0.1849794572","","","","","","","","","","","","","","74","J","1","","","217","main_expt","",""
"","bandit","300","989174","0.0-259.0-0.0","92942483","wem/bandit_party_1","A34PK1C7TPHWG3","either","1","403","","","","","","","0","1","0","","0.3944581396","0.4","0.2","0.8","0.6","0.4090742927","0.3944581396","0.204309912","0.1903787706","","","","","","","","","","","","","","74","J","1","","","218","main_expt","",""
"","bandit","301","990774","0.0-260.0-0.0","92942483","wem/bandit_party_1","A34PK1C7TPHWG3","either","1","86","","","","","","","0","1","0","","0.4256173987","0.4","0.2","0.8","0.6","0.3869695378","0.4256173987","0.1685596251","0.1768508397","","","","","","","","","","","","","","74","J","1","","","219","main_expt","",""
"","bandit","302","993030","0.0-261.0-0.0","92942483","wem/bandit_party_1","A34PK1C7TPHWG3","either","1","743","","","","","","","0","1","0","","0.4240862242","0.4","0.2","0.8","0.6","0.3814250035","0.4240862242","0.2488487331","0.2176561852","","","","","","","","","","","","","","74","J","1","","","220","main_expt","",""
"","bandit","303","994886","0.0-262.0-0.0","92942483","wem/bandit_party_1","A34PK1C7TPHWG3","either","1","343","","","","","","","0","1","0","","0.4364702466","0.4","0.2","0.8","0.6","0.3560431311","0.4364702466","0.2789816034","0.2075488201","","","","","","","","","","","","","","74","J","1","","","221","main_expt","",""
"","bandit","304","999351","0.0-263.0-0.0","92942483","wem/bandit_party_1","A34PK1C7TPHWG3","either","1","2950","","","","","","","0","0","1","","0.4512924842","0.4","0.2","0.8","0.6","0.3424215647","0.4512924842","0.242729834","0.2260831429","","","","","","","","","","","","","","74","J","1","","","222","main_expt","",""
"","bandit","305","1001237","0.0-264.0-0.0","92942483","wem/bandit_party_1","A34PK1C7TPHWG3","either","1","368","","","","","","","0","0","1","0.196538567","","0.4","0.2","0.8","0.6","","","","","0.3118962833","0.4649948574","0.196538567","0.2512075751","","","","","","","","","","75","K","2","","","223","main_expt","",""
"","bandit","306","1003285","0.0-265.0-0.0","92942483","wem/bandit_party_1","A34PK1C7TPHWG3","either","1","530","","","","","","","0","0","1","0.3072691987","","0.4","0.2","0.8","0.6","","","","","0.261290028","0.4692106987","0.2189223785","0.3072691987","","","","","","","","","","76","L","3","","","224","main_expt","",""
"","bandit","307","1006934","0.0-266.0-0.0","92942483","wem/bandit_party_1","A34PK1C7TPHWG3","either","1","2135","","","","","","","0","0","1","","0.4772226815","0.4","0.2","0.8","0.6","0.2748104332","0.4772226815","0.2131207899","0.3358063032","","","","","","","","","","","","","","74","J","1","","","225","main_expt","",""
"","bandit","308","1008646","0.0-267.0-0.0","92942483","wem/bandit_party_1","A34PK1C7TPHWG3","either","1","196","","","","","","","1","0","0","0.2994610032","","0.4","0.2","0.8","0.6","","","","","0.2112523614","0.4828013869","0.187439681","0.2994610032","","","","","","","","","","76","L","3","","","226","main_expt","",""
"","bandit","309","1010440","0.0-268.0-0.0","92942483","wem/bandit_party_1","A34PK1C7TPHWG3","either","1","280","","","","","","","0","0","1","","0.2719992041","0.4","0.2","0.8","0.6","0.1879164098","0.4805292857","0.1522087394","0.2719992041","","","","","","","","","","","","","","76","L","3","","","227","main_expt","",""
"","bandit","310","1012247","0.0-269.0-0.0","92942483","wem/bandit_party_1","A34PK1C7TPHWG3","either","1","290","","","","","","","0","0","1","0.2601066631","","0.4","0.2","0.8","0.6","","","","","0.1857646906","0.4770879938","0.1975586059","0.2601066631","","","","","","","","","","76","L","3","","","228","main_expt","",""
"","bandit","311","1014135","0.0-270.0-0.0","92942483","wem/bandit_party_1","A34PK1C7TPHWG3","either","1","370","","","","","","","0","0","1","0.2333982712","","0.4","0.2","0.8","0.6","","","","","0.1608888173","0.4830225504","0.2280604414","0.2333982712","","","","","","","","","","76","L","3","","","229","main_expt","",""
"","bandit","312","1016150","0.0-271.0-0.0","92942483","wem/bandit_party_1","A34PK1C7TPHWG3","either","1","499","","","","","","","0","0","1","","0.2179366985","0.4","0.2","0.8","0.6","0.1139945837","0.4827210916","0.2120359748","0.2179366985","","","","","","","","","","","","","","76","L","3","","","230","main_expt","",""
"","bandit","313","1017973","0.0-272.0-0.0","92942483","wem/bandit_party_1","A34PK1C7TPHWG3","either","1","309","","","","","","","0","0","1","0.210335649","","0.4","0.2","0.8","0.6","","","","","0.1071229599","0.4764813513","0.2260377558","0.210335649","","","","","","","","","","76","L","3","","","231","main_expt","",""
"","bandit","314","1019877","0.0-273.0-0.0","92942483","wem/bandit_party_1","A34PK1C7TPHWG3","either","1","389","","","","","","","1","0","0","0.2154905401","","0.4","0.2","0.8","0.6","","","","","0.1250262501","0.4794978353","0.2810037348","0.2154905401","","","","","","","","","","76","L","3","","","232","main_expt","",""
