"consent","trial_type","trial_index","time_elapsed","internal_node_id","subjID","study","MID","cond","drift","rt","responses","button_pressed","key_press","like","value","connected","gems","bombs","no_reward","GemPrChosen","BombPrChosen","GainOverPainPr_0","GainOverPainPr_1","GainOverPainPr_2","GainOverPainPr_3","LosePr_0","LosePr_1","LosePr_2","LosePr_3","WinPr_0","WinPr_1","WinPr_2","WinPr_3","Q0","Q1","Q2","gender","age","ethnicity","label","expt_phase","target","respCharCode","respKey","respChoiceNum","respChoice","practice","trial_counter","trial_label","Q0_index"
"GDM/GDM_behavioral_consent_30min_online.html","consent","0","20123","0.0-0.0","93103298","wem/bandit_party_1","A3GM78FCDY293T","either","2","","","","","","","","","","","","","","","","","","","","","","","","","","","","","","","","","","","","","","","","",""
"","survey-text","1","25107","0.0-1.0","93103298","wem/bandit_party_1","A3GM78FCDY293T","either","2","3956","{""Q0"":""A3GM78FCDY293T""}","","","","","","","","","","","","","","","","","","","","","","","","","","","","","","","","","","","","","","",""
"","button-response","2","31186","0.0-2.0","93103298","wem/bandit_party_1","A3GM78FCDY293T","either","2","5066","","1","","","","","","","","","","","","","","","","","","","","","","","","","","","","","","","","","","","","","",""
"","text-replacement","3","45906","0.0-3.0","93103298","wem/bandit_party_1","A3GM78FCDY293T","either","2","13711","","","32","","","","","","","","","","","","","","","","","","","","","","","","","","","","","","","","","","","","",""
"","text-replacement","4","99181","0.0-4.0","93103298","wem/bandit_party_1","A3GM78FCDY293T","either","2","53270","","","32","","","","","","","","","","","","","","","","","","","","","","","","","","","","","","","","","","","","",""
"","identification","5","105019","0.0-6.0-0.0","93103298","wem/bandit_party_1","A3GM78FCDY293T","either","2","5786","","","","0","0","0","","","","","","","","","","","","","","","","","","","","","","","","pre","identification_pre","the Republican party","","","","","","","",""
"","identification","6","111492","0.0-6.0-1.0","93103298","wem/bandit_party_1","A3GM78FCDY293T","either","2","5430","","","","4","5","5","","","","","","","","","","","","","","","","","","","","","","","","pre","identification_pre","the Democratic Party","","","","","","","",""
"","text-replacement","7","121003","0.0-7.0","93103298","wem/bandit_party_1","A3GM78FCDY293T","either","2","8504","","","32","","","","","","","","","","","","","","","","","","","","","","","","","","","","","","","","","","","","",""
"","text-replacement","8","127658","0.0-8.0","93103298","wem/bandit_party_1","A3GM78FCDY293T","either","2","6651","","","32","","","","","","","","","","","","","","","","","","","","","","","","","","","","","","","","","","","","",""
"","text-replacement","9","141789","0.0-9.0","93103298","wem/bandit_party_1","A3GM78FCDY293T","either","2","14123","","","32","","","","","","","","","","","","","","","","","","","","","","","","","","","","","","","","","","","","",""
"","text-replacement","10","144978","0.0-10.0","93103298","wem/bandit_party_1","A3GM78FCDY293T","either","2","3185","","","32","","","","","","","","","","","","","","","","","","","","","","","","","","","","","","","","","","","","",""
"","text-replacement","11","150613","0.0-11.0","93103298","wem/bandit_party_1","A3GM78FCDY293T","either","2","5630","","","32","","","","","","","","","","","","","","","","","","","","","","","","","","","","","","","","","","","","",""
"","bandit","12","154710","0.0-12.0-0.0","93103298","wem/bandit_party_1","A3GM78FCDY293T","either","2","2578","","","","","","","0","0","1","0","0","","","","","0","","","","0","","","","","","","","","","","","","74","J","0","img/none_selected_demo.jpg","true","0","",""
"","bandit","13","157181","0.0-13.0-0.0","93103298","wem/bandit_party_1","A3GM78FCDY293T","either","2","955","","","","","","","0","0","1","0","0","","","","","0","","","","0","","","","","","","","","","","","","75","K","0","img/none_selected_demo.jpg","true","0","",""
"","text-replacement","14","161749","0.0-14.0","93103298","wem/bandit_party_1","A3GM78FCDY293T","either","2","4563","","","32","","","","","","","","","","","","","","","","","","","","","","","","","","","","","","","","","","","","",""
"","text-replacement","15","172589","0.0-15.0","93103298","wem/bandit_party_1","A3GM78FCDY293T","either","2","10836","","","32","","","","","","","","","","","","","","","","","","","","","","","","","","","","","","","","","","","","",""
"","text-replacement","16","180209","0.0-16.0","93103298","wem/bandit_party_1","A3GM78FCDY293T","either","2","7617","","","32","","","","","","","","","","","","","","","","","","","","","","","","","","","","","","","","","","","","",""
"","text-replacement","17","200254","0.0-17.0","93103298","wem/bandit_party_1","A3GM78FCDY293T","either","2","20040","","","32","","","","","","","","","","","","","","","","","","","","","","","","","","","","","","","","","","","","",""
"","bandit","18","203774","0.0-18.0-0.0","93103298","wem/bandit_party_1","A3GM78FCDY293T","either","2","2009","","","","","","","0","0","1","0.2","","0.5","0.5","","","","","","","0.8","0.2","","","","","","","","","","","","75","K","1","","true","0","80_20_practice",""
"","bandit","19","206954","0.0-18.0-1.0","93103298","wem/bandit_party_1","A3GM78FCDY293T","either","2","1664","","","","","","","1","0","0","0.8","","0.5","0.5","","","","","","","0.8","0.2","","","","","","","","","","","","74","J","0","img/none_selected_demo.jpg","true","0","80_20_practice",""
"","bandit","20","209577","0.0-18.0-2.0","93103298","wem/bandit_party_1","A3GM78FCDY293T","either","2","1106","","","","","","","0","1","0","","0.8","0.5","0.5","","","0.8","0.2","","","","","","","","","","","","","","","","74","J","0","img/none_selected_demo.jpg","true","0","80_20_practice",""
"","bandit","21","211970","0.0-18.0-3.0","93103298","wem/bandit_party_1","A3GM78FCDY293T","either","2","877","","","","","","","1","0","0","0.8","","0.5","0.5","","","","","","","0.8","0.2","","","","","","","","","","","","74","J","0","img/none_selected_demo.jpg","true","0","80_20_practice",""
"","bandit","22","214223","0.0-18.0-4.0","93103298","wem/bandit_party_1","A3GM78FCDY293T","either","2","739","","","","","","","1","0","0","0.8","","0.5","0.5","","","","","","","0.8","0.2","","","","","","","","","","","","74","J","0","img/none_selected_demo.jpg","true","0","80_20_practice",""
"","bandit","23","216720","0.0-18.0-5.0","93103298","wem/bandit_party_1","A3GM78FCDY293T","either","2","980","","","","","","","0","1","0","","0.8","0.5","0.5","","","0.8","0.2","","","","","","","","","","","","","","","","74","J","0","img/none_selected_demo.jpg","true","0","80_20_practice",""
"","bandit","24","219520","0.0-18.0-6.0","93103298","wem/bandit_party_1","A3GM78FCDY293T","either","2","1285","","","","","","","1","0","0","0.8","","0.5","0.5","","","","","","","0.8","0.2","","","","","","","","","","","","74","J","0","img/none_selected_demo.jpg","true","0","80_20_practice",""
"","bandit","25","222419","0.0-18.0-7.0","93103298","wem/bandit_party_1","A3GM78FCDY293T","either","2","1383","","","","","","","1","0","0","0.8","","0.5","0.5","","","","","","","0.8","0.2","","","","","","","","","","","","74","J","0","img/none_selected_demo.jpg","true","0","80_20_practice",""
"","bandit","26","225319","0.0-18.0-8.0","93103298","wem/bandit_party_1","A3GM78FCDY293T","either","2","1383","","","","","","","1","0","0","0.8","","0.5","0.5","","","","","","","0.8","0.2","","","","","","","","","","","","74","J","0","img/none_selected_demo.jpg","true","0","80_20_practice",""
"","bandit","27","228823","0.0-18.0-9.0","93103298","wem/bandit_party_1","A3GM78FCDY293T","either","2","1990","","","","","","","0","0","1","","0.8","0.5","0.5","","","0.8","0.2","","","","","","","","","","","","","","","","74","J","0","img/none_selected_demo.jpg","true","0","80_20_practice",""
"","bandit","28","231489","0.0-18.0-10.0","93103298","wem/bandit_party_1","A3GM78FCDY293T","either","2","1146","","","","","","","0","0","1","","0.2","0.5","0.5","","","0.8","0.2","","","","","","","","","","","","","","","","75","K","1","","true","0","80_20_practice",""
"","bandit","29","233610","0.0-18.0-11.0","93103298","wem/bandit_party_1","A3GM78FCDY293T","either","2","605","","","","","","","0","1","0","","0.8","0.5","0.5","","","0.8","0.2","","","","","","","","","","","","","","","","74","J","0","img/none_selected_demo.jpg","true","0","80_20_practice",""
"","bandit","30","236035","0.0-18.0-12.0","93103298","wem/bandit_party_1","A3GM78FCDY293T","either","2","907","","","","","","","0","1","0","","0.8","0.5","0.5","","","0.8","0.2","","","","","","","","","","","","","","","","74","J","0","img/none_selected_demo.jpg","true","0","80_20_practice",""
"","bandit","31","238744","0.0-18.0-13.0","93103298","wem/bandit_party_1","A3GM78FCDY293T","either","2","1195","","","","","","","1","0","0","0.8","","0.5","0.5","","","","","","","0.8","0.2","","","","","","","","","","","","74","J","0","img/none_selected_demo.jpg","true","0","80_20_practice",""
"","bandit","32","242598","0.0-18.0-14.0","93103298","wem/bandit_party_1","A3GM78FCDY293T","either","2","2340","","","","","","","1","0","0","0.8","","0.5","0.5","","","","","","","0.8","0.2","","","","","","","","","","","","74","J","0","img/none_selected_demo.jpg","true","0","80_20_practice",""
"","bandit","33","245186","0.0-18.0-15.0","93103298","wem/bandit_party_1","A3GM78FCDY293T","either","2","1073","","","","","","","1","0","0","0.8","","0.5","0.5","","","","","","","0.8","0.2","","","","","","","","","","","","74","J","0","img/none_selected_demo.jpg","true","0","80_20_practice",""
"","bandit","34","249350","0.0-18.0-16.0","93103298","wem/bandit_party_1","A3GM78FCDY293T","either","2","2650","","","","","","","0","1","0","","0.8","0.5","0.5","","","0.8","0.2","","","","","","","","","","","","","","","","74","J","0","img/none_selected_demo.jpg","true","0","80_20_practice",""
"","bandit","35","251654","0.0-18.0-17.0","93103298","wem/bandit_party_1","A3GM78FCDY293T","either","2","789","","","","","","","0","1","0","","0.8","0.5","0.5","","","0.8","0.2","","","","","","","","","","","","","","","","74","J","0","img/none_selected_demo.jpg","true","0","80_20_practice",""
"","bandit","36","255777","0.0-18.0-18.0","93103298","wem/bandit_party_1","A3GM78FCDY293T","either","2","2604","","","","","","","0","1","0","","0.8","0.5","0.5","","","0.8","0.2","","","","","","","","","","","","","","","","74","J","0","img/none_selected_demo.jpg","true","0","80_20_practice",""
"","bandit","37","258619","0.0-18.0-19.0","93103298","wem/bandit_party_1","A3GM78FCDY293T","either","2","1329","","","","","","","0","1","0","","0.8","0.5","0.5","","","0.8","0.2","","","","","","","","","","","","","","","","74","J","0","img/none_selected_demo.jpg","true","0","80_20_practice",""
"","text-replacement","38","264539","0.0-19.0","93103298","wem/bandit_party_1","A3GM78FCDY293T","either","2","5916","","","32","","","","","","","","","","","","","","","","","","","","","","","","","","","","","","","","","","","","",""
"","bandit","39","267548","0.0-20.0-0.0","93103298","wem/bandit_party_1","A3GM78FCDY293T","either","2","1495","","","","","","","1","0","0","1","0","","","","","0","1","","","1","0","","","","","","","","","","","","74","J","0","img/none_selected_demo.jpg","true","0","",""
"","text-replacement","40","271498","0.0-21.0","93103298","wem/bandit_party_1","A3GM78FCDY293T","either","2","3944","","","74","","","","","","","","","","","","","","","","","","","","","","","","","","","","","","","","","","","","",""
"","text-replacement","41","275706","0.0-22.0","93103298","wem/bandit_party_1","A3GM78FCDY293T","either","2","4202","","","32","","","","","","","","","","","","","","","","","","","","","","","","","","","","","","","","","","","","",""
"","text-replacement","42","278106","0.0-23.0","93103298","wem/bandit_party_1","A3GM78FCDY293T","either","2","2392","","","32","","","","","","","","","","","","","","","","","","","","","","","","","","","","","","","","","","","","",""
"","text-replacement","43","280945","0.0-24.0","93103298","wem/bandit_party_1","A3GM78FCDY293T","either","2","2835","","","32","","","","","","","","","","","","","","","","","","","","","","","","","","","","","","","","","","","","",""
"","text-replacement","44","286972","0.0-25.0","93103298","wem/bandit_party_1","A3GM78FCDY293T","either","2","6022","","","32","","","","","","","","","","","","","","","","","","","","","","","","","","","","","","","","","","","","",""
"","text-replacement","45","289281","0.0-26.0","93103298","wem/bandit_party_1","A3GM78FCDY293T","either","2","2305","","","32","","","","","","","","","","","","","","","","","","","","","","","","","","","","","","","","","","","","",""
"","text-replacement","46","293401","0.0-27.0","93103298","wem/bandit_party_1","A3GM78FCDY293T","either","2","4115","","","32","","","","","","","","","","","","","","","","","","","","","","","","","","","","","","","","","","","","",""
"","text-replacement","47","298142","0.0-28.0","93103298","wem/bandit_party_1","A3GM78FCDY293T","either","2","4737","","","32","","","","","","","","","","","","","","","","","","","","","","","","","","","","","","","","","","","","",""
"","text-replacement","48","301528","0.0-29.0","93103298","wem/bandit_party_1","A3GM78FCDY293T","either","2","3370","","","32","","","","","","","","","","","","","","","","","","","","","","","","","","","","","","","","","","","","",""
"","text-replacement","49","303272","0.0-30.0","93103298","wem/bandit_party_1","A3GM78FCDY293T","either","2","1738","","","32","","","","","","","","","","","","","","","","","","","","","","","","","","","","","","","","","","","","",""
"","text-replacement","50","306033","0.0-31.0","93103298","wem/bandit_party_1","A3GM78FCDY293T","either","2","2756","","","32","","","","","","","","","","","","","","","","","","","","","","","","","","","","","","","","","","","","",""
"","bandit","51","308975","0.0-32.0-0.0","93103298","wem/bandit_party_1","A3GM78FCDY293T","either","2","1422","","","","","","","1","0","0","0.6","","0.5","0.5","0.5","0.5","","","","","0.8","0.2","0.6","0.2","","","","","","","","","","75","K","2","","true","0","full_practice",""
"","bandit","52","311534","0.0-32.0-1.0","93103298","wem/bandit_party_1","A3GM78FCDY293T","either","2","1038","","","","","","","0","0","1","0.6","","0.5","0.5","0.5","0.5","","","","","0.8","0.2","0.6","0.2","","","","","","","","","","75","K","2","","true","0","full_practice",""
"","bandit","53","313732","0.0-32.0-2.0","93103298","wem/bandit_party_1","A3GM78FCDY293T","either","2","679","","","","","","","0","0","1","0.6","","0.5","0.5","0.5","0.5","","","","","0.8","0.2","0.6","0.2","","","","","","","","","","75","K","2","","true","0","full_practice",""
"","bandit","54","315844","0.0-32.0-3.0","93103298","wem/bandit_party_1","A3GM78FCDY293T","either","2","592","","","","","","","1","0","0","0.6","","0.5","0.5","0.5","0.5","","","","","0.8","0.2","0.6","0.2","","","","","","","","","","75","K","2","","true","0","full_practice",""
"","bandit","55","318035","0.0-32.0-4.0","93103298","wem/bandit_party_1","A3GM78FCDY293T","either","2","676","","","","","","","0","0","1","0.6","","0.5","0.5","0.5","0.5","","","","","0.8","0.2","0.6","0.2","","","","","","","","","","75","K","2","","true","0","full_practice",""
"","bandit","56","320404","0.0-32.0-5.0","93103298","wem/bandit_party_1","A3GM78FCDY293T","either","2","851","","","","","","","0","0","1","0.8","","0.5","0.5","0.5","0.5","","","","","0.8","0.2","0.6","0.2","","","","","","","","","","72","H","0","img/none_selected.jpg","true","0","full_practice",""
"","bandit","57","322622","0.0-32.0-6.0","93103298","wem/bandit_party_1","A3GM78FCDY293T","either","2","698","","","","","","","1","0","0","0.8","","0.5","0.5","0.5","0.5","","","","","0.8","0.2","0.6","0.2","","","","","","","","","","72","H","0","img/none_selected.jpg","true","0","full_practice",""
"","bandit","58","324890","0.0-32.0-7.0","93103298","wem/bandit_party_1","A3GM78FCDY293T","either","2","753","","","","","","","0","0","1","0.8","","0.5","0.5","0.5","0.5","","","","","0.8","0.2","0.6","0.2","","","","","","","","","","72","H","0","img/none_selected.jpg","true","0","full_practice",""
"","bandit","59","326964","0.0-32.0-8.0","93103298","wem/bandit_party_1","A3GM78FCDY293T","either","2","558","","","","","","","0","1","0","","0.8","0.5","0.5","0.5","0.5","0.8","0.2","0.6","0.2","","","","","","","","","","","","","","72","H","0","img/none_selected.jpg","true","0","full_practice",""
"","bandit","60","329227","0.0-32.0-9.0","93103298","wem/bandit_party_1","A3GM78FCDY293T","either","2","746","","","","","","","0","0","1","","0.2","0.5","0.5","0.5","0.5","0.8","0.2","0.6","0.2","","","","","","","","","","","","","","76","L","3","","true","0","full_practice",""
"","bandit","61","331381","0.0-32.0-10.0","93103298","wem/bandit_party_1","A3GM78FCDY293T","either","2","634","","","","","","","0","0","1","","0.2","0.5","0.5","0.5","0.5","0.8","0.2","0.6","0.2","","","","","","","","","","","","","","76","L","3","","true","0","full_practice",""
"","bandit","62","333613","0.0-32.0-11.0","93103298","wem/bandit_party_1","A3GM78FCDY293T","either","2","712","","","","","","","0","0","1","","0.2","0.5","0.5","0.5","0.5","0.8","0.2","0.6","0.2","","","","","","","","","","","","","","76","L","3","","true","0","full_practice",""
"","bandit","63","336003","0.0-32.0-12.0","93103298","wem/bandit_party_1","A3GM78FCDY293T","either","2","874","","","","","","","0","0","1","","0.2","0.5","0.5","0.5","0.5","0.8","0.2","0.6","0.2","","","","","","","","","","","","","","76","L","3","","true","0","full_practice",""
"","bandit","64","338285","0.0-32.0-13.0","93103298","wem/bandit_party_1","A3GM78FCDY293T","either","2","735","","","","","","","0","0","1","0.2","","0.5","0.5","0.5","0.5","","","","","0.8","0.2","0.6","0.2","","","","","","","","","","76","L","3","","true","0","full_practice",""
"","bandit","65","340811","0.0-32.0-14.0","93103298","wem/bandit_party_1","A3GM78FCDY293T","either","2","1009","","","","","","","0","0","1","0.2","","0.5","0.5","0.5","0.5","","","","","0.8","0.2","0.6","0.2","","","","","","","","","","74","J","1","","true","0","full_practice",""
"","bandit","66","342979","0.0-32.0-15.0","93103298","wem/bandit_party_1","A3GM78FCDY293T","either","2","651","","","","","","","0","1","0","","0.2","0.5","0.5","0.5","0.5","0.8","0.2","0.6","0.2","","","","","","","","","","","","","","74","J","1","","true","0","full_practice",""
"","bandit","67","345198","0.0-32.0-16.0","93103298","wem/bandit_party_1","A3GM78FCDY293T","either","2","700","","","","","","","0","0","1","","0.2","0.5","0.5","0.5","0.5","0.8","0.2","0.6","0.2","","","","","","","","","","","","","","74","J","1","","true","0","full_practice",""
"","bandit","68","347722","0.0-32.0-17.0","93103298","wem/bandit_party_1","A3GM78FCDY293T","either","2","1007","","","","","","","0","1","0","","0.2","0.5","0.5","0.5","0.5","0.8","0.2","0.6","0.2","","","","","","","","","","","","","","74","J","1","","true","0","full_practice",""
"","bandit","69","350028","0.0-32.0-18.0","93103298","wem/bandit_party_1","A3GM78FCDY293T","either","2","788","","","","","","","0","0","1","","0.2","0.5","0.5","0.5","0.5","0.8","0.2","0.6","0.2","","","","","","","","","","","","","","74","J","1","","true","0","full_practice",""
"","bandit","70","352346","0.0-32.0-19.0","93103298","wem/bandit_party_1","A3GM78FCDY293T","either","2","802","","","","","","","0","0","1","0.2","","0.5","0.5","0.5","0.5","","","","","0.8","0.2","0.6","0.2","","","","","","","","","","74","J","1","","true","0","full_practice",""
"","text","71","356068","0.0-33.0","93103298","wem/bandit_party_1","A3GM78FCDY293T","either","2","3691","","","32","","","","","","","","","","","","","","","","","","","","","","","","","","","","","","","","","","","","",""
"","text-replacement","72","369668","0.0-34.0","93103298","wem/bandit_party_1","A3GM78FCDY293T","either","2","12591","","","32","","","","","","","","","","","","","","","","","","","","","","","","","","","","","","","","","","","","",""
"","text-replacement","73","381371","0.0-35.0","93103298","wem/bandit_party_1","A3GM78FCDY293T","either","2","11697","","","32","","","","","","","","","","","","","","","","","","","","","","","","","","","","","","","","","","","","",""
"","text-replacement","74","385776","0.0-36.0","93103298","wem/bandit_party_1","A3GM78FCDY293T","either","2","4399","","","32","","","","","","","","","","","","","","","","","","","","","","","","","","","","","","","","","","","","",""
"","text-replacement","75","392427","0.0-37.0","93103298","wem/bandit_party_1","A3GM78FCDY293T","either","2","6644","","","32","","","","","","","","","","","","","","","","","","","","","","","","","","","","","","","","","","","","",""
"","text-replacement","76","398176","0.0-38.0","93103298","wem/bandit_party_1","A3GM78FCDY293T","either","2","5742","","","32","","","","","","","","","","","","","","","","","","","","","","","","","","","","","","","","","","","","",""
"","survey-multi-choice-replacement","77","405629","0.0-39.0-0.0","93103298","wem/bandit_party_1","A3GM78FCDY293T","either","2","7418","","","","","","","","","","","","","","","","","","","","","","","","Money will be added to the pool for <span style='color:blue;'>DEMOCRATS</span>","","","","","","","attn_check","","","","","","","","","0"
"","survey-multi-choice-replacement","78","412841","0.0-40.0-0.0","93103298","wem/bandit_party_1","A3GM78FCDY293T","either","2","6183","","","","","","","","","","","","","","","","","","","","","","","","Equal amounts of money will be added to the pool for <span style='color:blue;'>DEMOCRATS</span> and subtracted from the pool for <span style='color:red;'>REPUBLICANS</span>","","","","","","","attn_check","","","","","","","","","2"
"","survey-multi-choice-replacement","79","422282","0.0-41.0-0.0","93103298","wem/bandit_party_1","A3GM78FCDY293T","either","2","8416","","","","","","","","","","","","","","","","","","","","","","","","No money will be added to either pool","","","","","","","attn_check","","","","","","","","","3"
"","bandit","80","427043","0.0-42.0-0.0","93103298","wem/bandit_party_1","A3GM78FCDY293T","either","2","2236","","","","","","","0","0","1","","0.326135308","0.4","0.8","0.2","0.6","0.362799796","0.3653736811","0.326135308","0.4781977867","","","","","","","","","","","","","","75","K","2","","","1","main_expt",""
"","bandit","81","429742","0.0-43.0-0.0","93103298","wem/bandit_party_1","A3GM78FCDY293T","either","2","1181","","","","","","","0","1","0","","0.3564958201","0.4","0.8","0.2","0.6","0.3891507205","0.3999069229","0.3564958201","0.4765481994","","","","","","","","","","","","","","75","K","2","","","2","main_expt",""
"","bandit","82","431986","0.0-44.0-0.0","93103298","wem/bandit_party_1","A3GM78FCDY293T","either","2","728","","","","","","","0","0","1","","0.3309056029","0.4","0.8","0.2","0.6","0.3151339382","0.4363582421","0.3309056029","0.4722158263","","","","","","","","","","","","","","75","K","2","","","3","main_expt",""
"","bandit","83","434204","0.0-45.0-0.0","93103298","wem/bandit_party_1","A3GM78FCDY293T","either","2","699","","","","","","","0","0","1","","0.308467875","0.4","0.8","0.2","0.6","0.250648122","0.4300921111","0.308467875","0.4609570051","","","","","","","","","","","","","","75","K","2","","","4","main_expt",""
"","bandit","84","436610","0.0-46.0-0.0","93103298","wem/bandit_party_1","A3GM78FCDY293T","either","2","887","","","","","","","0","0","1","","0.3349995635","0.4","0.8","0.2","0.6","0.2382585344","0.3863220662","0.3349995635","0.4707799186","","","","","","","","","","","","","","75","K","2","","","5","main_expt",""
"","bandit","85","439172","0.0-47.0-0.0","93103298","wem/bandit_party_1","A3GM78FCDY293T","either","2","1041","","","","","","","0","0","1","","0.3743101545","0.4","0.8","0.2","0.6","0.2088101903","0.4192648028","0.3743101545","0.4676743975","","","","","","","","","","","","","","75","K","2","","","6","main_expt",""
"","bandit","86","441829","0.0-48.0-0.0","93103298","wem/bandit_party_1","A3GM78FCDY293T","either","2","1140","","","","","","","1","0","0","0.4218548145","","0.4","0.8","0.2","0.6","","","","","0.1884279889","0.4218548145","0.377506125","0.4767364015","","","","","","","","","","74","J","1","","","7","main_expt",""
"","bandit","87","444355","0.0-49.0-0.0","93103298","wem/bandit_party_1","A3GM78FCDY293T","either","2","1008","","","","","","","1","0","0","0.4298914749","","0.4","0.8","0.2","0.6","","","","","0.2297930851","0.4298914749","0.3452849142","0.4837409877","","","","","","","","","","74","J","1","","","8","main_expt",""
"","bandit","88","446490","0.0-50.0-0.0","93103298","wem/bandit_party_1","A3GM78FCDY293T","either","2","617","","","","","","","1","0","0","0.4215440671","","0.4","0.8","0.2","0.6","","","","","0.2219539873","0.4215440671","0.2713567333","0.4825212187","","","","","","","","","","74","J","1","","","9","main_expt",""
"","bandit","89","449169","0.0-51.0-0.0","93103298","wem/bandit_party_1","A3GM78FCDY293T","either","2","1157","","","","","","","1","0","0","0.3991616263","","0.4","0.8","0.2","0.6","","","","","0.2398128751","0.3991616263","0.2712708503","0.4791264729","","","","","","","","","","74","J","1","","","10","main_expt",""
"","bandit","90","451745","0.0-52.0-0.0","93103298","wem/bandit_party_1","A3GM78FCDY293T","either","2","1061","","","","","","","0","0","1","0.4002673883","","0.4","0.8","0.2","0.6","","","","","0.2551733424","0.4002673883","0.2635531688","0.4762013833","","","","","","","","","","74","J","1","","","11","main_expt",""
"","bandit","91","454084","0.0-53.0-0.0","93103298","wem/bandit_party_1","A3GM78FCDY293T","either","2","820","","","","","","","0","0","1","","0.368629831","0.4","0.8","0.2","0.6","0.2593424883","0.368629831","0.2669056975","0.4729837645","","","","","","","","","","","","","","74","J","1","","","12","main_expt",""
"","bandit","92","456706","0.0-54.0-0.0","93103298","wem/bandit_party_1","A3GM78FCDY293T","either","2","1104","","","","","","","0","0","1","","0.4189726289","0.4","0.8","0.2","0.6","0.2493591627","0.4189726289","0.3204456557","0.4749786695","","","","","","","","","","","","","","74","J","1","","","13","main_expt",""
"","bandit","93","459840","0.0-55.0-0.0","93103298","wem/bandit_party_1","A3GM78FCDY293T","either","2","1608","","","","","","","0","0","1","0.4352425359","","0.4","0.8","0.2","0.6","","","","","0.2686446846","0.4352425359","0.3466526728","0.4810115094","","","","","","","","","","74","J","1","","","14","main_expt",""
"","bandit","94","462608","0.0-56.0-0.0","93103298","wem/bandit_party_1","A3GM78FCDY293T","either","2","1250","","","","","","","0","1","0","","0.2690169042","0.4","0.8","0.2","0.6","0.2690169042","0.3819090161","0.3736671224","0.4705329286","","","","","","","","","","","","","","72","H","0","img/none_selected.jpg","","15","main_expt",""
"","bandit","95","465283","0.0-57.0-0.0","93103298","wem/bandit_party_1","A3GM78FCDY293T","either","2","1159","","","","","","","0","0","1","","0.2518303543","0.4","0.8","0.2","0.6","0.2518303543","0.3737760256","0.3778143907","0.4687419894","","","","","","","","","","","","","","72","H","0","img/none_selected.jpg","","16","main_expt",""
"","bandit","96","467897","0.0-58.0-0.0","93103298","wem/bandit_party_1","A3GM78FCDY293T","either","2","1093","","","","","","","1","0","0","0.2406549936","","0.4","0.8","0.2","0.6","","","","","0.2406549936","0.4151791473","0.3845750066","0.4594180265","","","","","","","","","","72","H","0","img/none_selected.jpg","","17","main_expt",""
"","bandit","97","470409","0.0-59.0-0.0","93103298","wem/bandit_party_1","A3GM78FCDY293T","either","2","929","","","","","","","0","0","1","","0.2670149403","0.4","0.8","0.2","0.6","0.2670149403","0.4137363134","0.4041286345","0.425397146","","","","","","","","","","","","","","72","H","0","img/none_selected.jpg","","18","main_expt",""
"","bandit","98","472762","0.0-60.0-0.0","93103298","wem/bandit_party_1","A3GM78FCDY293T","either","2","831","","","","","","","0","1","0","","0.2658482338","0.4","0.8","0.2","0.6","0.2658482338","0.4084056464","0.4127350431","0.4201246927","","","","","","","","","","","","","","72","H","0","img/none_selected.jpg","","19","main_expt",""
"","bandit","99","475065","0.0-61.0-0.0","93103298","wem/bandit_party_1","A3GM78FCDY293T","either","2","785","","","","","","","0","0","1","0.2452433766","","0.4","0.8","0.2","0.6","","","","","0.2452433766","0.4129175496","0.4107359536","0.3954271328","","","","","","","","","","72","H","0","img/none_selected.jpg","","20","main_expt",""
"","bandit","100","477379","0.0-62.0-0.0","93103298","wem/bandit_party_1","A3GM78FCDY293T","either","2","798","","","","","","","0","1","0","","0.2298761452","0.4","0.8","0.2","0.6","0.2298761452","0.3888488162","0.3954861765","0.4196431029","","","","","","","","","","","","","","72","H","0","img/none_selected.jpg","","21","main_expt",""
"","bandit","101","480426","0.0-63.0-0.0","93103298","wem/bandit_party_1","A3GM78FCDY293T","either","2","1527","","","","","","","0","0","1","","0.266827693","0.4","0.8","0.2","0.6","0.266827693","0.3873149631","0.3805979297","0.3843335182","","","","","","","","","","","","","","72","H","0","img/none_selected.jpg","","22","main_expt",""
"","bandit","102","483401","0.0-64.0-0.0","93103298","wem/bandit_party_1","A3GM78FCDY293T","either","2","1456","","","","","","","0","0","1","","0.2519769849","0.4","0.8","0.2","0.6","0.2519769849","0.3659772031","0.425451992","0.3839977458","","","","","","","","","","","","","","72","H","0","img/none_selected.jpg","","23","main_expt",""
"","bandit","103","486719","0.0-65.0-0.0","93103298","wem/bandit_party_1","A3GM78FCDY293T","either","2","1799","","","","","","","1","0","0","0.3338939571","","0.4","0.8","0.2","0.6","","","","","0.2447613107","0.3594327093","0.4699447661","0.3338939571","","","","","","","","","","76","L","3","","","24","main_expt",""
"","bandit","104","489179","0.0-66.0-0.0","93103298","wem/bandit_party_1","A3GM78FCDY293T","either","2","943","","","","","","","0","1","0","","0.324486952","0.4","0.8","0.2","0.6","0.2350413847","0.3719143394","0.4484050393","0.324486952","","","","","","","","","","","","","","76","L","3","","","25","main_expt",""
"","bandit","105","491538","0.0-67.0-0.0","93103298","wem/bandit_party_1","A3GM78FCDY293T","either","2","837","","","","","","","0","0","1","","0.3095710384","0.4","0.8","0.2","0.6","0.207774486","0.3690014044","0.4190234423","0.3095710384","","","","","","","","","","","","","","76","L","3","","","26","main_expt",""
"","bandit","106","493762","0.0-68.0-0.0","93103298","wem/bandit_party_1","A3GM78FCDY293T","either","2","705","","","","","","","0","0","1","0.3355629191","","0.4","0.8","0.2","0.6","","","","","0.2164182795","0.3940030818","0.4251478254","0.3355629191","","","","","","","","","","76","L","3","","","27","main_expt",""
"","bandit","107","496073","0.0-69.0-0.0","93103298","wem/bandit_party_1","A3GM78FCDY293T","either","2","792","","","","","","","0","1","0","","0.4287328697","0.4","0.8","0.2","0.6","0.2164031865","0.4111080327","0.4287328697","0.3668681485","","","","","","","","","","","","","","75","K","2","","","28","main_expt",""
"","bandit","108","499230","0.0-70.0-0.0","93103298","wem/bandit_party_1","A3GM78FCDY293T","either","2","1638","","","","","","","0","1","0","","0.4106025245","0.4","0.8","0.2","0.6","0.2770000278","0.41290056","0.4106025245","0.343198694","","","","","","","","","","","","","","75","K","2","","","29","main_expt",""
"","bandit","109","501985","0.0-71.0-0.0","93103298","wem/bandit_party_1","A3GM78FCDY293T","either","2","1237","","","","","","","0","1","0","","0.3942494676","0.4","0.8","0.2","0.6","0.2354797847","0.3937480262","0.3942494676","0.326069126","","","","","","","","","","","","","","75","K","2","","","30","main_expt",""
"","bandit","110","504619","0.0-72.0-0.0","93103298","wem/bandit_party_1","A3GM78FCDY293T","either","2","1111","","","","","","","0","1","0","","0.4285056211","0.4","0.8","0.2","0.6","0.2692030882","0.3997016236","0.4285056211","0.3390127419","","","","","","","","","","","","","","75","K","2","","","31","main_expt",""
"","bandit","111","506959","0.0-73.0-0.0","93103298","wem/bandit_party_1","A3GM78FCDY293T","either","2","824","","","","","","","0","0","1","","0.4249454459","0.4","0.8","0.2","0.6","0.2471118655","0.3574295763","0.4249454459","0.3360649894","","","","","","","","","","","","","","75","K","2","","","32","main_expt",""
"","bandit","112","509192","0.0-74.0-0.0","93103298","wem/bandit_party_1","A3GM78FCDY293T","either","2","713","","","","","","","0","0","1","","0.416417765","0.4","0.8","0.2","0.6","0.2879199001","0.3877818659","0.416417765","0.3052602024","","","","","","","","","","","","","","75","K","2","","","33","main_expt",""
"","bandit","113","511444","0.0-75.0-0.0","93103298","wem/bandit_party_1","A3GM78FCDY293T","either","2","732","","","","","","","0","0","1","","0.4623714429","0.4","0.8","0.2","0.6","0.3180115212","0.3799496232","0.4623714429","0.3594788954","","","","","","","","","","","","","","75","K","2","","","34","main_expt",""
"","bandit","114","513713","0.0-76.0-0.0","93103298","wem/bandit_party_1","A3GM78FCDY293T","either","2","740","","","","","","","0","1","0","","0.4591977302","0.4","0.8","0.2","0.6","0.2524306687","0.3577573403","0.4591977302","0.380235832","","","","","","","","","","","","","","75","K","2","","","35","main_expt",""
"","bandit","115","516258","0.0-77.0-0.0","93103298","wem/bandit_party_1","A3GM78FCDY293T","either","2","1025","","","","","","","0","1","0","","0.4686235256","0.4","0.8","0.2","0.6","0.2351869563","0.3895375856","0.4686235256","0.3459989602","","","","","","","","","","","","","","75","K","2","","","36","main_expt",""
"","bandit","116","518673","0.0-78.0-0.0","93103298","wem/bandit_party_1","A3GM78FCDY293T","either","2","894","","","","","","","0","1","0","","0.4571547709","0.4","0.8","0.2","0.6","0.2629170466","0.3783527007","0.4571547709","0.3320905149","","","","","","","","","","","","","","75","K","2","","","37","main_expt",""
"","bandit","117","521096","0.0-79.0-0.0","93103298","wem/bandit_party_1","A3GM78FCDY293T","either","2","905","","","","","","","0","1","0","","0.4688430709","0.4","0.8","0.2","0.6","0.3090194305","0.284076782","0.4688430709","0.3471020919","","","","","","","","","","","","","","75","K","2","","","38","main_expt",""
"","bandit","118","523443","0.0-80.0-0.0","93103298","wem/bandit_party_1","A3GM78FCDY293T","either","2","825","","","","","","","0","0","1","","0.4612923778","0.4","0.8","0.2","0.6","0.2845371228","0.3388972186","0.4612923778","0.3401763967","","","","","","","","","","","","","","75","K","2","","","39","main_expt",""
"","bandit","119","526416","0.0-81.0-0.0","93103298","wem/bandit_party_1","A3GM78FCDY293T","either","2","1455","","","","","","","0","1","0","","0.4576194683","0.4","0.8","0.2","0.6","0.3076259244","0.2663655232","0.4576194683","0.3260487483","","","","","","","","","","","","","","75","K","2","","","40","main_expt",""
"","bandit","120","528695","0.0-82.0-0.0","93103298","wem/bandit_party_1","A3GM78FCDY293T","either","2","759","","","","","","","0","0","1","0.4473921051","","0.4","0.8","0.2","0.6","","","","","0.2888769276","0.2608266697","0.4473921051","0.3390218734","","","","","","","","","","75","K","2","","","41","main_expt",""
"","bandit","121","531226","0.0-83.0-0.0","93103298","wem/bandit_party_1","A3GM78FCDY293T","either","2","1008","","","","","","","0","0","1","","0.425470286","0.4","0.8","0.2","0.6","0.2639198141","0.2287676803","0.425470286","0.2889680017","","","","","","","","","","","","","","75","K","2","","","42","main_expt",""
"","bandit","122","533781","0.0-84.0-0.0","93103298","wem/bandit_party_1","A3GM78FCDY293T","either","2","1016","","","","","","","0","0","1","0.4030522017","","0.4","0.8","0.2","0.6","","","","","0.2255441472","0.2043112358","0.4030522017","0.2784828801","","","","","","","","","","75","K","2","","","43","main_expt",""
"","bandit","123","536232","0.0-85.0-0.0","93103298","wem/bandit_party_1","A3GM78FCDY293T","either","2","932","","","","","","","0","1","0","","0.4106315797","0.4","0.8","0.2","0.6","0.2050272072","0.1957049551","0.4106315797","0.2805729819","","","","","","","","","","","","","","75","K","2","","","44","main_expt",""
"","bandit","124","538487","0.0-86.0-0.0","93103298","wem/bandit_party_1","A3GM78FCDY293T","either","2","736","","","","","","","0","0","1","","0.4258527362","0.4","0.8","0.2","0.6","0.239455925","0.2207366272","0.4258527362","0.2195119073","","","","","","","","","","","","","","75","K","2","","","45","main_expt",""
"","bandit","125","540737","0.0-87.0-0.0","93103298","wem/bandit_party_1","A3GM78FCDY293T","either","2","730","","","","","","","0","0","1","","0.4425966235","0.4","0.8","0.2","0.6","0.2414778298","0.1727988076","0.4425966235","0.2657932304","","","","","","","","","","","","","","75","K","2","","","46","main_expt",""
"","bandit","126","543112","0.0-88.0-0.0","93103298","wem/bandit_party_1","A3GM78FCDY293T","either","2","853","","","","","","","1","0","0","0.1446735631","","0.4","0.8","0.2","0.6","","","","","0.1884211613","0.1446735631","0.4428977597","0.2678398397","","","","","","","","","","74","J","1","","","47","main_expt",""
"","bandit","127","545547","0.0-89.0-0.0","93103298","wem/bandit_party_1","A3GM78FCDY293T","either","2","915","","","","","","","0","0","1","0.1681765936","","0.4","0.8","0.2","0.6","","","","","0.1755274282","0.1681765936","0.4479964269","0.2866904938","","","","","","","","","","74","J","1","","","48","main_expt",""
"","bandit","128","548135","0.0-90.0-0.0","93103298","wem/bandit_party_1","A3GM78FCDY293T","either","2","1068","","","","","","","0","1","0","","0.1473883531","0.4","0.8","0.2","0.6","0.1646396384","0.1473883531","0.4660387519","0.2803848884","","","","","","","","","","","","","","74","J","1","","","49","main_expt",""
"","bandit","129","550448","0.0-91.0-0.0","93103298","wem/bandit_party_1","A3GM78FCDY293T","either","2","795","","","","","","","0","0","1","0.1378170987","","0.4","0.8","0.2","0.6","","","","","0.2024226619","0.1378170987","0.4345757832","0.2587411269","","","","","","","","","","74","J","1","","","50","main_expt",""
"","bandit","130","552816","0.0-92.0-0.0","93103298","wem/bandit_party_1","A3GM78FCDY293T","either","2","848","","","","","","","0","0","1","","0.1430360168","0.4","0.8","0.2","0.6","0.1976760068","0.1430360168","0.4450950844","0.2212901065","","","","","","","","","","","","","","74","J","1","","","51","main_expt",""
"","bandit","131","555132","0.0-93.0-0.0","93103298","wem/bandit_party_1","A3GM78FCDY293T","either","2","761","","","","","","","0","0","1","","0.1731798725","0.4","0.8","0.2","0.6","0.1796352224","0.1731798725","0.4475354499","0.236006857","","","","","","","","","","","","","","74","J","1","","","52","main_expt",""
"","bandit","132","557491","0.0-94.0-0.0","93103298","wem/bandit_party_1","A3GM78FCDY293T","either","2","823","","","","","","","0","0","1","0.1312409056","","0.4","0.8","0.2","0.6","","","","","0.2451732725","0.1312409056","0.4627294295","0.2660825342","","","","","","","","","","74","J","1","","","53","main_expt",""
"","bandit","133","560287","0.0-95.0-0.0","93103298","wem/bandit_party_1","A3GM78FCDY293T","either","2","1278","","","","","","","0","0","1","0.1862053218","","0.4","0.8","0.2","0.6","","","","","0.2621482643","0.1862053218","0.44829207","0.2458345041","","","","","","","","","","74","J","1","","","54","main_expt",""
"","bandit","134","562944","0.0-96.0-0.0","93103298","wem/bandit_party_1","A3GM78FCDY293T","either","2","1137","","","","","","","0","0","1","0.1733563037","","0.4","0.8","0.2","0.6","","","","","0.2441780383","0.1733563037","0.4505537928","0.2265690781","","","","","","","","","","74","J","1","","","55","main_expt",""
"","bandit","135","565185","0.0-97.0-0.0","93103298","wem/bandit_party_1","A3GM78FCDY293T","either","2","717","","","","","","","0","0","1","","0.1728369204","0.4","0.8","0.2","0.6","0.199729785","0.1728369204","0.4686400132","0.2741820357","","","","","","","","","","","","","","74","J","1","","","56","main_expt",""
"","bandit","136","567439","0.0-98.0-0.0","93103298","wem/bandit_party_1","A3GM78FCDY293T","either","2","735","","","","","","","0","0","1","","0.09176359954","0.4","0.8","0.2","0.6","0.1945085845","0.09176359954","0.4572679106","0.2937641054","","","","","","","","","","","","","","74","J","1","","","57","main_expt",""
"","bandit","137","569673","0.0-99.0-0.0","93103298","wem/bandit_party_1","A3GM78FCDY293T","either","2","712","","","","","","","0","0","1","","0.2949827607","0.4","0.8","0.2","0.6","0.2614759052","0.04991422033","0.4300169527","0.2949827607","","","","","","","","","","","","","","76","L","3","","","58","main_expt",""
"","bandit","138","572145","0.0-100.0-0.0","93103298","wem/bandit_party_1","A3GM78FCDY293T","either","2","950","","","","","","","0","0","1","0.2710075273","","0.4","0.8","0.2","0.6","","","","","0.2426118991","0.053239915","0.4050829606","0.2710075273","","","","","","","","","","76","L","3","","","59","main_expt",""
"","bandit","139","574510","0.0-101.0-0.0","93103298","wem/bandit_party_1","A3GM78FCDY293T","either","2","844","","","","","","","0","0","1","","0.2766623035","0.4","0.8","0.2","0.6","0.2623750897","0.06994226662","0.4070720156","0.2766623035","","","","","","","","","","","","","","76","L","3","","","60","main_expt",""
"","bandit","140","576942","0.0-102.0-0.0","93103298","wem/bandit_party_1","A3GM78FCDY293T","either","2","911","","","","","","","1","0","0","0.2574592035","","0.4","0.8","0.2","0.6","","","","","0.2139103784","0.07064832373","0.3895400789","0.2574592035","","","","","","","","","","76","L","3","","","61","main_expt",""
"","bandit","141","579286","0.0-103.0-0.0","93103298","wem/bandit_party_1","A3GM78FCDY293T","either","2","825","","","","","","","0","0","1","0.2425209234","","0.4","0.8","0.2","0.6","","","","","0.2566580444","0.08925217872","0.4050708951","0.2425209234","","","","","","","","","","76","L","3","","","62","main_expt",""
"","bandit","142","581888","0.0-104.0-0.0","93103298","wem/bandit_party_1","A3GM78FCDY293T","either","2","1080","","","","","","","0","1","0","","0.2393402704","0.4","0.8","0.2","0.6","0.2393402704","0.08505035955","0.3765761212","0.2294211584","","","","","","","","","","","","","","72","H","0","img/none_selected.jpg","","63","main_expt",""
"","bandit","143","584151","0.0-105.0-0.0","93103298","wem/bandit_party_1","A3GM78FCDY293T","either","2","739","","","","","","","0","0","1","","0.300105392","0.4","0.8","0.2","0.6","0.300105392","0.09892528285","0.3859881554","0.2350173232","","","","","","","","","","","","","","72","H","0","img/none_selected.jpg","","64","main_expt",""
"","bandit","144","586383","0.0-106.0-0.0","93103298","wem/bandit_party_1","A3GM78FCDY293T","either","2","710","","","","","","","0","0","1","","0.2584268813","0.4","0.8","0.2","0.6","0.2584268813","0.1428545766","0.3817039273","0.2775473173","","","","","","","","","","","","","","72","H","0","img/none_selected.jpg","","65","main_expt",""
"","bandit","145","588514","0.0-107.0-0.0","93103298","wem/bandit_party_1","A3GM78FCDY293T","either","2","604","","","","","","","0","1","0","","0.2536378703","0.4","0.8","0.2","0.6","0.2536378703","0.120440259","0.3622232449","0.298861572","","","","","","","","","","","","","","72","H","0","img/none_selected.jpg","","66","main_expt",""
"","bandit","146","590789","0.0-108.0-0.0","93103298","wem/bandit_party_1","A3GM78FCDY293T","either","2","755","","","","","","","0","0","1","","0.2548884231","0.4","0.8","0.2","0.6","0.2548884231","0.2019700983","0.3768721334","0.3043747659","","","","","","","","","","","","","","72","H","0","img/none_selected.jpg","","67","main_expt",""
"","bandit","147","592869","0.0-109.0-0.0","93103298","wem/bandit_party_1","A3GM78FCDY293T","either","2","557","","","","","","","0","0","1","","0.2105458193","0.4","0.8","0.2","0.6","0.2105458193","0.1467862533","0.3826604183","0.2533072519","","","","","","","","","","","","","","72","H","0","img/none_selected.jpg","","68","main_expt",""
"","bandit","148","595148","0.0-110.0-0.0","93103298","wem/bandit_party_1","A3GM78FCDY293T","either","2","760","","","","","","","0","0","1","0.2901666962","","0.4","0.8","0.2","0.6","","","","","0.2901666962","0.09022805221","0.3981811202","0.2451677402","","","","","","","","","","72","H","0","img/none_selected.jpg","","69","main_expt",""
"","bandit","149","597475","0.0-111.0-0.0","93103298","wem/bandit_party_1","A3GM78FCDY293T","either","2","803","","","","","","","0","0","1","","0.3936557204","0.4","0.8","0.2","0.6","0.2973761433","0.1128827508","0.3936557204","0.2403061491","","","","","","","","","","","","","","75","K","2","","","70","main_expt",""
"","bandit","150","599947","0.0-112.0-0.0","93103298","wem/bandit_party_1","A3GM78FCDY293T","either","2","942","","","","","","","0","1","0","","0.3949471057","0.4","0.8","0.2","0.6","0.2737706179","0.1184182172","0.3949471057","0.1917576795","","","","","","","","","","","","","","75","K","2","","","71","main_expt",""
"","bandit","151","602252","0.0-113.0-0.0","93103298","wem/bandit_party_1","A3GM78FCDY293T","either","2","781","","","","","","","0","1","0","","0.3888869603","0.4","0.8","0.2","0.6","0.3005227265","0.1038133506","0.3888869603","0.1894079546","","","","","","","","","","","","","","75","K","2","","","72","main_expt",""
"","bandit","152","604552","0.0-114.0-0.0","93103298","wem/bandit_party_1","A3GM78FCDY293T","either","2","778","","","","","","","0","1","0","","0.4015056825","0.4","0.8","0.2","0.6","0.3205676235","0.07830871569","0.4015056825","0.235909594","","","","","","","","","","","","","","75","K","2","","","73","main_expt",""
"","bandit","153","606970","0.0-115.0-0.0","93103298","wem/bandit_party_1","A3GM78FCDY293T","either","2","889","","","","","","","0","0","1","","0.4200542591","0.4","0.8","0.2","0.6","0.3040473008","0.09226686474","0.4200542591","0.2772030277","","","","","","","","","","","","","","75","K","2","","","74","main_expt",""
"","bandit","154","609149","0.0-116.0-0.0","93103298","wem/bandit_party_1","A3GM78FCDY293T","either","2","657","","","","","","","0","0","1","","0.4353174817","0.4","0.8","0.2","0.6","0.2686744794","0.07948082514","0.4353174817","0.2237268092","","","","","","","","","","","","","","75","K","2","","","75","main_expt",""
"","bandit","155","611212","0.0-117.0-0.0","93103298","wem/bandit_party_1","A3GM78FCDY293T","either","2","541","","","","","","","0","0","1","","0.4196821318","0.4","0.8","0.2","0.6","0.258707356","0.1279570505","0.4196821318","0.1739375455","","","","","","","","","","","","","","75","K","2","","","76","main_expt",""
"","bandit","156","613348","0.0-118.0-0.0","93103298","wem/bandit_party_1","A3GM78FCDY293T","either","2","613","","","","","","","0","0","1","0.1202820049","","0.4","0.8","0.2","0.6","","","","","0.3010070056","0.1202820049","0.3787369199","0.1648796623","","","","","","","","","","74","J","1","","","77","main_expt",""
"","bandit","157","615454","0.0-119.0-0.0","93103298","wem/bandit_party_1","A3GM78FCDY293T","either","2","585","","","","","","","0","0","1","0.1054071572","","0.4","0.8","0.2","0.6","","","","","0.2648586626","0.1054071572","0.4314930014","0.1637798684","","","","","","","","","","74","J","1","","","78","main_expt",""
"","bandit","158","617745","0.0-120.0-0.0","93103298","wem/bandit_party_1","A3GM78FCDY293T","either","2","772","","","","","","","0","0","1","0.1403095361","","0.4","0.8","0.2","0.6","","","","","0.1984114041","0.1403095361","0.4155078174","0.1490076182","","","","","","","","","","74","J","1","","","79","main_expt",""
"","bandit","159","620028","0.0-121.0-0.0","93103298","wem/bandit_party_1","A3GM78FCDY293T","either","2","758","","","","","","","0","0","1","0.1891235553","","0.4","0.8","0.2","0.6","","","","","0.180325551","0.1891235553","0.4226243671","0.1093198388","","","","","","","","","","74","J","1","","","80","main_expt",""
"","bandit","160","622340","0.0-122.0-0.0","93103298","wem/bandit_party_1","A3GM78FCDY293T","either","2","788","","","","","","","1","0","0","0.08868186825","","0.4","0.8","0.2","0.6","","","","","0.224531153","0.1858030354","0.4474166549","0.08868186825","","","","","","","","","","76","L","3","","","81","main_expt",""
"","bandit","161","624637","0.0-123.0-0.0","93103298","wem/bandit_party_1","A3GM78FCDY293T","either","2","775","","","","","","","0","0","1","","0.1073880826","0.4","0.8","0.2","0.6","0.221125015","0.2476542501","0.4636297045","0.1073880826","","","","","","","","","","","","","","76","L","3","","","82","main_expt",""
"","bandit","162","626894","0.0-124.0-0.0","93103298","wem/bandit_party_1","A3GM78FCDY293T","either","2","730","","","","","","","0","0","1","","0.1022587498","0.4","0.8","0.2","0.6","0.2143237207","0.2188241074","0.467509749","0.1022587498","","","","","","","","","","","","","","76","L","3","","","83","main_expt",""
"","bandit","163","629203","0.0-125.0-0.0","93103298","wem/bandit_party_1","A3GM78FCDY293T","either","2","784","","","","","","","0","0","1","0.1085807699","","0.4","0.8","0.2","0.6","","","","","0.2097367537","0.2754771977","0.4551111531","0.1085807699","","","","","","","","","","76","L","3","","","84","main_expt",""
"","bandit","164","631845","0.0-126.0-0.0","93103298","wem/bandit_party_1","A3GM78FCDY293T","either","2","1118","","","","","","","0","0","1","0.1263918358","","0.4","0.8","0.2","0.6","","","","","0.1661536269","0.2965575968","0.4621419017","0.1263918358","","","","","","","","","","76","L","3","","","85","main_expt",""
"","bandit","165","634894","0.0-127.0-0.0","93103298","wem/bandit_party_1","A3GM78FCDY293T","either","2","1516","","","","","","","0","0","1","","0.1364458955","0.4","0.8","0.2","0.6","0.1364458955","0.257129161","0.4612050897","0.1481941301","","","","","","","","","","","","","","72","H","0","img/none_selected.jpg","","86","main_expt",""
"","bandit","166","637320","0.0-128.0-0.0","93103298","wem/bandit_party_1","A3GM78FCDY293T","either","2","902","","","","","","","0","0","1","","0.08235553135","0.4","0.8","0.2","0.6","0.08235553135","0.2338967043","0.4334675206","0.1447872846","","","","","","","","","","","","","","72","H","0","img/none_selected.jpg","","87","main_expt",""
"","bandit","167","639676","0.0-129.0-0.0","93103298","wem/bandit_party_1","A3GM78FCDY293T","either","2","830","","","","","","","1","0","0","0.0754832669","","0.4","0.8","0.2","0.6","","","","","0.0754832669","0.2161535794","0.4397617206","0.1391637727","","","","","","","","","","72","H","0","img/none_selected.jpg","","88","main_expt",""
"","bandit","168","644306","0.0-130.0-0.0","93103298","wem/bandit_party_1","A3GM78FCDY293T","either","2","3108","","","","","","","0","0","1","","0.109361408","0.4","0.8","0.2","0.6","0.109361408","0.2043146745","0.4635478967","0.1476089376","","","","","","","","","","","","","","72","H","0","img/none_selected.jpg","","89","main_expt",""
"","bandit","169","647059","0.0-131.0-0.0","93103298","wem/bandit_party_1","A3GM78FCDY293T","either","2","1231","","","","","","","0","0","1","","0.07391079866","0.4","0.8","0.2","0.6","0.07391079866","0.2346009907","0.4234969579","0.2081489191","","","","","","","","","","","","","","72","H","0","img/none_selected.jpg","","90","main_expt",""
"","bandit","170","649382","0.0-132.0-0.0","93103298","wem/bandit_party_1","A3GM78FCDY293T","either","2","742","","","","","","","0","0","1","0.1164594673","","0.4","0.8","0.2","0.6","","","","","0.1164594673","0.2333967219","0.4267507071","0.1834039029","","","","","","","","","","72","H","0","img/none_selected.jpg","","91","main_expt",""
"","bandit","171","652674","0.0-133.0-0.0","93103298","wem/bandit_party_1","A3GM78FCDY293T","either","2","1768","","","","","","","0","0","1","0.113043345","","0.4","0.8","0.2","0.6","","","","","0.113043345","0.2150480475","0.4089505196","0.2027314649","","","","","","","","","","72","H","0","img/none_selected.jpg","","92","main_expt",""
"","bandit","172","654968","0.0-134.0-0.0","93103298","wem/bandit_party_1","A3GM78FCDY293T","either","2","765","","","","","","","0","0","1","","0.1714352716","0.4","0.8","0.2","0.6","0.1714352716","0.2588080464","0.4112501448","0.1738894496","","","","","","","","","","","","","","72","H","0","img/none_selected.jpg","","93","main_expt",""
"","bandit","173","657370","0.0-135.0-0.0","93103298","wem/bandit_party_1","A3GM78FCDY293T","either","2","875","","","","","","","1","0","0","0.452415855","","0.4","0.8","0.2","0.6","","","","","0.1253024032","0.2748849181","0.452415855","0.2484708832","","","","","","","","","","75","K","2","","","94","main_expt",""
"","bandit","174","659662","0.0-136.0-0.0","93103298","wem/bandit_party_1","A3GM78FCDY293T","either","2","762","","","","","","","0","0","1","","0.4589197587","0.4","0.8","0.2","0.6","0.1401284447","0.2791739054","0.4589197587","0.2914685715","","","","","","","","","","","","","","75","K","2","","","95","main_expt",""
"","bandit","175","662250","0.0-137.0-0.0","93103298","wem/bandit_party_1","A3GM78FCDY293T","either","2","1063","","","","","","","0","0","1","","0.4481870348","0.4","0.8","0.2","0.6","0.1320491369","0.3149564315","0.4481870348","0.2417524935","","","","","","","","","","","","","","75","K","2","","","96","main_expt",""
"","bandit","176","665308","0.0-138.0-0.0","93103298","wem/bandit_party_1","A3GM78FCDY293T","either","2","1533","","","","","","","0","0","1","","0.4597072186","0.4","0.8","0.2","0.6","0.1518453759","0.372564007","0.4597072186","0.2492821404","","","","","","","","","","","","","","75","K","2","","","97","main_expt",""
"","bandit","177","668065","0.0-139.0-0.0","93103298","wem/bandit_party_1","A3GM78FCDY293T","either","2","1235","","","","","","","0","1","0","","0.4705619112","0.4","0.8","0.2","0.6","0.2173959583","0.393328365","0.4705619112","0.3002958449","","","","","","","","","","","","","","75","K","2","","","98","main_expt",""
"","bandit","178","670469","0.0-140.0-0.0","93103298","wem/bandit_party_1","A3GM78FCDY293T","either","2","879","","","","","","","0","1","0","","0.4800968761","0.4","0.8","0.2","0.6","0.2618725657","0.421239771","0.4800968761","0.3544832656","","","","","","","","","","","","","","75","K","2","","","99","main_expt",""
"","bandit","179","672755","0.0-141.0-0.0","93103298","wem/bandit_party_1","A3GM78FCDY293T","either","2","762","","","","","","","0","1","0","","0.4780143146","0.4","0.8","0.2","0.6","0.2487788848","0.4130759476","0.4780143146","0.3810954338","","","","","","","","","","","","","","75","K","2","","","100","main_expt",""
"","bandit","180","675027","0.0-142.0-0.0","93103298","wem/bandit_party_1","A3GM78FCDY293T","either","2","749","","","","","","","0","0","1","","0.4849002763","0.4","0.8","0.2","0.6","0.2890792313","0.4089462913","0.4849002763","0.4042362267","","","","","","","","","","","","","","75","K","2","","","101","main_expt",""
"","bandit","181","678049","0.0-143.0-0.0","93103298","wem/bandit_party_1","A3GM78FCDY293T","either","2","1499","","","","","","","0","0","1","","0.4886078379","0.4","0.8","0.2","0.6","0.3136369757","0.370330464","0.4886078379","0.4594696392","","","","","","","","","","","","","","75","K","2","","","102","main_expt",""
"","bandit","182","680153","0.0-144.0-0.0","93103298","wem/bandit_party_1","A3GM78FCDY293T","either","2","583","","","","","","","0","1","0","","0.47121906","0.4","0.8","0.2","0.6","0.2364671533","0.3306315663","0.47121906","0.4588766667","","","","","","","","","","","","","","75","K","2","","","103","main_expt",""
"","bandit","183","681909","0.0-145.0-0.0","93103298","wem/bandit_party_1","A3GM78FCDY293T","either","2","233","","","","","","","0","0","1","0.4760763377","","0.4","0.8","0.2","0.6","","","","","0.2202486688","0.354634178","0.4760763377","0.4372785745","","","","","","","","","","75","K","2","","","104","main_expt",""
"","bandit","184","684130","0.0-146.0-0.0","93103298","wem/bandit_party_1","A3GM78FCDY293T","either","2","697","","","","","","","1","0","0","0.4701389446","","0.4","0.8","0.2","0.6","","","","","0.1854418088","0.3896605338","0.4701389446","0.4063887309","","","","","","","","","","75","K","2","","","105","main_expt",""
"","bandit","185","686324","0.0-147.0-0.0","93103298","wem/bandit_party_1","A3GM78FCDY293T","either","2","672","","","","","","","0","0","1","","0.471324938","0.4","0.8","0.2","0.6","0.1596754559","0.414339711","0.471324938","0.3778019321","","","","","","","","","","","","","","75","K","2","","","106","main_expt",""
"","bandit","186","688643","0.0-148.0-0.0","93103298","wem/bandit_party_1","A3GM78FCDY293T","either","2","795","","","","","","","0","1","0","","0.4786694594","0.4","0.8","0.2","0.6","0.137099288","0.4164239898","0.4786694594","0.3614143111","","","","","","","","","","","","","","75","K","2","","","107","main_expt",""
"","bandit","187","692764","0.0-149.0-0.0","93103298","wem/bandit_party_1","A3GM78FCDY293T","either","2","2597","","","","","","","0","0","1","","0.4810065258","0.4","0.8","0.2","0.6","0.1443984823","0.3836571442","0.4810065258","0.3681250399","","","","","","","","","","","","","","75","K","2","","","108","main_expt",""
"","bandit","188","697247","0.0-150.0-0.0","93103298","wem/bandit_party_1","A3GM78FCDY293T","either","2","2961","","","","","","","0","0","1","","0.4816764674","0.4","0.8","0.2","0.6","0.1409511773","0.3881214568","0.4816764674","0.3446081275","","","","","","","","","","","","","","75","K","2","","","109","main_expt",""
"","bandit","189","702703","0.0-151.0-0.0","93103298","wem/bandit_party_1","A3GM78FCDY293T","either","2","3931","","","","","","","0","0","1","","0.4882082215","0.4","0.8","0.2","0.6","0.1787750665","0.4266873791","0.4882082215","0.3681270965","","","","","","","","","","","","","","75","K","2","","","110","main_expt",""
"","bandit","190","706898","0.0-152.0-0.0","93103298","wem/bandit_party_1","A3GM78FCDY293T","either","2","2672","","","","","","","0","0","1","","0.478642168","0.4","0.8","0.2","0.6","0.1862786225","0.4475699482","0.478642168","0.391379093","","","","","","","","","","","","","","75","K","2","","","111","main_expt",""
"","bandit","191","711583","0.0-153.0-0.0","93103298","wem/bandit_party_1","A3GM78FCDY293T","either","2","3165","","","","","","","0","0","1","","0.4841415165","0.4","0.8","0.2","0.6","0.1654620982","0.4190314983","0.4841415165","0.4131544452","","","","","","","","","","","","","","75","K","2","","","112","main_expt",""
"","bandit","192","714591","0.0-154.0-0.0","93103298","wem/bandit_party_1","A3GM78FCDY293T","either","2","1480","","","","","","","0","0","1","","0.4883212127","0.4","0.8","0.2","0.6","0.1582981878","0.3666128881","0.4883212127","0.3963985948","","","","","","","","","","","","","","75","K","2","","","113","main_expt",""
"","bandit","193","717828","0.0-155.0-0.0","93103298","wem/bandit_party_1","A3GM78FCDY293T","either","2","1710","","","","","","","0","0","1","0.4883790739","","0.4","0.8","0.2","0.6","","","","","0.1922757069","0.3866259854","0.4883790739","0.4117985871","","","","","","","","","","75","K","2","","","114","main_expt",""
"","bandit","194","721344","0.0-156.0-0.0","93103298","wem/bandit_party_1","A3GM78FCDY293T","either","2","1993","","","","","","","0","0","1","","0.4902011966","0.4","0.8","0.2","0.6","0.185618385","0.354161152","0.4902011966","0.394381103","","","","","","","","","","","","","","75","K","2","","","115","main_expt",""
"","bandit","195","723936","0.0-157.0-0.0","93103298","wem/bandit_party_1","A3GM78FCDY293T","either","2","1066","","","","","","","0","0","1","","0.4844723045","0.4","0.8","0.2","0.6","0.2057277395","0.3170745426","0.4844723045","0.3762408663","","","","","","","","","","","","","","75","K","2","","","116","main_expt",""
"","bandit","196","726319","0.0-158.0-0.0","93103298","wem/bandit_party_1","A3GM78FCDY293T","either","2","855","","","","","","","0","1","0","","0.304536318","0.4","0.8","0.2","0.6","0.2288411079","0.304536318","0.4895589844","0.3823674378","","","","","","","","","","","","","","74","J","1","","","117","main_expt",""
"","bandit","197","729432","0.0-159.0-0.0","93103298","wem/bandit_party_1","A3GM78FCDY293T","either","2","1584","","","","","","","0","0","1","0.3411026949","","0.4","0.8","0.2","0.6","","","","","0.2207517482","0.3411026949","0.4899729034","0.4050195855","","","","","","","","","","74","J","1","","","118","main_expt",""
"","bandit","198","732047","0.0-160.0-0.0","93103298","wem/bandit_party_1","A3GM78FCDY293T","either","2","1091","","","","","","","0","0","1","0.3447942488","","0.4","0.8","0.2","0.6","","","","","0.1955286499","0.3447942488","0.4947041593","0.4227562767","","","","","","","","","","74","J","1","","","119","main_expt",""
"","bandit","199","735143","0.0-161.0-0.0","93103298","wem/bandit_party_1","A3GM78FCDY293T","either","2","1570","","","","","","","0","0","1","0.3686185352","","0.4","0.8","0.2","0.6","","","","","0.2427950695","0.3686185352","0.4916865355","0.4163810796","","","","","","","","","","74","J","1","","","120","main_expt",""
"","bandit","200","738342","0.0-162.0-0.0","93103298","wem/bandit_party_1","A3GM78FCDY293T","either","2","1675","","","","","","","1","0","0","0.3547669752","","0.4","0.8","0.2","0.6","","","","","0.2479682904","0.3547669752","0.4860386064","0.406821829","","","","","","","","","","74","J","1","","","121","main_expt",""
"","bandit","201","742608","0.0-163.0-0.0","93103298","wem/bandit_party_1","A3GM78FCDY293T","either","2","2740","","","","","","","0","0","1","0.365994073","","0.4","0.8","0.2","0.6","","","","","0.3081985406","0.365994073","0.483083859","0.3999449125","","","","","","","","","","74","J","1","","","122","main_expt",""
"","bandit","202","746725","0.0-164.0-0.0","93103298","wem/bandit_party_1","A3GM78FCDY293T","either","2","2593","","","","","","","0","0","1","0.3120596142","","0.4","0.8","0.2","0.6","","","","","0.3089359708","0.3120596142","0.4791491275","0.366626489","","","","","","","","","","74","J","1","","","123","main_expt",""
"","bandit","203","750059","0.0-165.0-0.0","93103298","wem/bandit_party_1","A3GM78FCDY293T","either","2","1812","","","","","","","0","0","1","0.302161917","","0.4","0.8","0.2","0.6","","","","","0.3298338218","0.302161917","0.4776777384","0.3706278578","","","","","","","","","","74","J","1","","","124","main_expt",""
"","bandit","204","753990","0.0-166.0-0.0","93103298","wem/bandit_party_1","A3GM78FCDY293T","either","2","2408","","","","","","","0","1","0","","0.478983255","0.4","0.8","0.2","0.6","0.2795250441","0.2794370347","0.478983255","0.3545504723","","","","","","","","","","","","","","75","K","2","","","125","main_expt",""
"","bandit","205","759029","0.0-167.0-0.0","93103298","wem/bandit_party_1","A3GM78FCDY293T","either","2","3512","","","","","","","0","0","1","0.4724726719","","0.4","0.8","0.2","0.6","","","","","0.2184127205","0.2466154908","0.4724726719","0.3106298006","","","","","","","","","","75","K","2","","","126","main_expt",""
"","bandit","206","762604","0.0-168.0-0.0","93103298","wem/bandit_party_1","A3GM78FCDY293T","either","2","2052","","","","","","","0","1","0","","0.4796244369","0.4","0.8","0.2","0.6","0.2488858907","0.2712823261","0.4796244369","0.3351405197","","","","","","","","","","","","","","75","K","2","","","127","main_expt",""
"","bandit","207","766245","0.0-169.0-0.0","93103298","wem/bandit_party_1","A3GM78FCDY293T","either","2","2117","","","","","","","0","1","0","","0.4825212971","0.4","0.8","0.2","0.6","0.2850827173","0.2095517986","0.4825212971","0.2984422464","","","","","","","","","","","","","","75","K","2","","","128","main_expt",""
"","bandit","208","769090","0.0-170.0-0.0","93103298","wem/bandit_party_1","A3GM78FCDY293T","either","2","1321","","","","","","","0","0","1","","0.4877535013","0.4","0.8","0.2","0.6","0.2867242009","0.1986866195","0.4877535013","0.2027892291","","","","","","","","","","","","","","75","K","2","","","129","main_expt",""
"","bandit","209","771442","0.0-171.0-0.0","93103298","wem/bandit_party_1","A3GM78FCDY293T","either","2","824","","","","","","","0","0","1","","0.4833646461","0.4","0.8","0.2","0.6","0.2509552002","0.172959111","0.4833646461","0.13768179","","","","","","","","","","","","","","75","K","2","","","130","main_expt",""
"","bandit","210","773602","0.0-172.0-0.0","93103298","wem/bandit_party_1","A3GM78FCDY293T","either","2","636","","","","","","","0","0","1","0.4790990265","","0.4","0.8","0.2","0.6","","","","","0.2172434631","0.163172462","0.4790990265","0.1352832961","","","","","","","","","","75","K","2","","","131","main_expt",""
"","bandit","211","776115","0.0-173.0-0.0","93103298","wem/bandit_party_1","A3GM78FCDY293T","either","2","986","","","","","","","0","0","1","0.4882311922","","0.4","0.8","0.2","0.6","","","","","0.158295755","0.161148659","0.4882311922","0.08660982753","","","","","","","","","","75","K","2","","","132","main_expt",""
"","bandit","212","778973","0.0-174.0-0.0","93103298","wem/bandit_party_1","A3GM78FCDY293T","either","2","1334","","","","","","","1","0","0","0.185310911","","0.4","0.8","0.2","0.6","","","","","0.185310911","0.1735641072","0.4889625365","0.1020907376","","","","","","","","","","72","H","0","img/none_selected.jpg","","133","main_expt",""
"","bandit","213","781362","0.0-175.0-0.0","93103298","wem/bandit_party_1","A3GM78FCDY293T","either","2","865","","","","","","","0","1","0","","0.1966535246","0.4","0.8","0.2","0.6","0.1966535246","0.1597390633","0.4916783795","0.1231499397","","","","","","","","","","","","","","72","H","0","img/none_selected.jpg","","134","main_expt",""
"","bandit","214","783828","0.0-176.0-0.0","93103298","wem/bandit_party_1","A3GM78FCDY293T","either","2","941","","","","","","","0","1","0","","0.2290191974","0.4","0.8","0.2","0.6","0.2290191974","0.1460070414","0.4904315354","0.1524236556","","","","","","","","","","","","","","72","H","0","img/none_selected.jpg","","135","main_expt",""
"","bandit","215","786347","0.0-177.0-0.0","93103298","wem/bandit_party_1","A3GM78FCDY293T","either","2","992","","","","","","","1","0","0","0.2929229053","","0.4","0.8","0.2","0.6","","","","","0.2929229053","0.105474526","0.491666595","0.1954247664","","","","","","","","","","72","H","0","img/none_selected.jpg","","136","main_expt",""
"","bandit","216","788827","0.0-178.0-0.0","93103298","wem/bandit_party_1","A3GM78FCDY293T","either","2","954","","","","","","","1","0","0","0.2780805385","","0.4","0.8","0.2","0.6","","","","","0.2780805385","0.08835118593","0.4917142499","0.1833989084","","","","","","","","","","72","H","0","img/none_selected.jpg","","137","main_expt",""
"","bandit","217","791469","0.0-179.0-0.0","93103298","wem/bandit_party_1","A3GM78FCDY293T","either","2","1119","","","","","","","0","0","1","0.217224157","","0.4","0.8","0.2","0.6","","","","","0.217224157","0.06418360449","0.4870170403","0.1490533902","","","","","","","","","","72","H","0","img/none_selected.jpg","","138","main_expt",""
"","bandit","218","793953","0.0-180.0-0.0","93103298","wem/bandit_party_1","A3GM78FCDY293T","either","2","960","","","","","","","0","0","1","0.03554325754","","0.4","0.8","0.2","0.6","","","","","0.2323391466","0.03554325754","0.4834992155","0.1318817547","","","","","","","","","","74","J","1","","","139","main_expt",""
"","bandit","219","796178","0.0-181.0-0.0","93103298","wem/bandit_party_1","A3GM78FCDY293T","either","2","700","","","","","","","0","0","1","0.04477370895","","0.4","0.8","0.2","0.6","","","","","0.244475209","0.04477370895","0.4927392517","0.1877412345","","","","","","","","","","74","J","1","","","140","main_expt",""
"","bandit","220","798826","0.0-182.0-0.0","93103298","wem/bandit_party_1","A3GM78FCDY293T","either","2","1125","","","","","","","0","0","1","0.03780119019","","0.4","0.8","0.2","0.6","","","","","0.232604034","0.03780119019","0.4872377518","0.2363671377","","","","","","","","","","74","J","1","","","141","main_expt",""
"","bandit","221","800978","0.0-183.0-0.0","93103298","wem/bandit_party_1","A3GM78FCDY293T","either","2","624","","","","","","","0","0","1","0.2546402356","","0.4","0.8","0.2","0.6","","","","","0.2447345556","0.03149913875","0.4846254936","0.2546402356","","","","","","","","","","76","L","3","","","142","main_expt",""
"","bandit","222","803140","0.0-184.0-0.0","93103298","wem/bandit_party_1","A3GM78FCDY293T","either","2","637","","","","","","","1","0","0","0.2825544685","","0.4","0.8","0.2","0.6","","","","","0.26413271","0.04191513266","0.4815328815","0.2825544685","","","","","","","","","","76","L","3","","","143","main_expt",""
"","bandit","223","805337","0.0-185.0-0.0","93103298","wem/bandit_party_1","A3GM78FCDY293T","either","2","670","","","","","","","0","0","1","0.2731230023","","0.4","0.8","0.2","0.6","","","","","0.1988203511","0.05613120157","0.4854048375","0.2731230023","","","","","","","","","","76","L","3","","","144","main_expt",""
"","bandit","224","807609","0.0-186.0-0.0","93103298","wem/bandit_party_1","A3GM78FCDY293T","either","2","745","","","","","","","0","0","1","0.2943814715","","0.4","0.8","0.2","0.6","","","","","0.217822638","0.03827589539","0.4813029389","0.2943814715","","","","","","","","","","76","L","3","","","145","main_expt",""
"","bandit","225","809970","0.0-187.0-0.0","93103298","wem/bandit_party_1","A3GM78FCDY293T","either","2","833","","","","","","","1","0","0","0.328634005","","0.4","0.8","0.2","0.6","","","","","0.2009042904","0.02861175853","0.4884824202","0.328634005","","","","","","","","","","76","L","3","","","146","main_expt",""
"","bandit","226","812210","0.0-188.0-0.0","93103298","wem/bandit_party_1","A3GM78FCDY293T","either","2","715","","","","","","","0","0","1","","0.3511209141","0.4","0.8","0.2","0.6","0.2080446297","0.02140640811","0.4835291327","0.3511209141","","","","","","","","","","","","","","76","L","3","","","147","main_expt",""
"","bandit","227","814420","0.0-189.0-0.0","93103298","wem/bandit_party_1","A3GM78FCDY293T","either","2","682","","","","","","","1","0","0","0.3874996206","","0.4","0.8","0.2","0.6","","","","","0.1536700415","0.0202041473","0.4716003481","0.3874996206","","","","","","","","","","76","L","3","","","148","main_expt",""
"","bandit","228","816593","0.0-190.0-0.0","93103298","wem/bandit_party_1","A3GM78FCDY293T","either","2","649","","","","","","","1","0","0","0.3476646045","","0.4","0.8","0.2","0.6","","","","","0.1593661633","0.01154190459","0.4341886607","0.3476646045","","","","","","","","","","76","L","3","","","149","main_expt",""
"","bandit","229","818714","0.0-191.0-0.0","93103298","wem/bandit_party_1","A3GM78FCDY293T","either","2","592","","","","","","","0","0","1","0.3323010919","","0.4","0.8","0.2","0.6","","","","","0.144955896","0.01291237021","0.4014438172","0.3323010919","","","","","","","","","","76","L","3","","","150","main_expt",""
"","bandit","230","820881","0.0-192.0-0.0","93103298","wem/bandit_party_1","A3GM78FCDY293T","either","2","644","","","","","","","0","0","1","","0.3980713407","0.4","0.8","0.2","0.6","0.2123564028","0.0137789916","0.3980713407","0.3954477196","","","","","","","","","","","","","","75","K","2","","","151","main_expt",""
"","bandit","231","823066","0.0-193.0-0.0","93103298","wem/bandit_party_1","A3GM78FCDY293T","either","2","658","","","","","","","0","0","1","","0.4002357887","0.4","0.8","0.2","0.6","0.2301890466","0.01985271471","0.4002357887","0.4186327087","","","","","","","","","","","","","","75","K","2","","","152","main_expt",""
"","bandit","232","825412","0.0-194.0-0.0","93103298","wem/bandit_party_1","A3GM78FCDY293T","either","2","822","","","","","","","0","0","1","","0.388677987","0.4","0.8","0.2","0.6","0.2295153641","0.02951100453","0.388677987","0.4029566754","","","","","","","","","","","","","","75","K","2","","","153","main_expt",""
"","bandit","233","827601","0.0-195.0-0.0","93103298","wem/bandit_party_1","A3GM78FCDY293T","either","2","663","","","","","","","0","0","1","0.2163321136","","0.4","0.8","0.2","0.6","","","","","0.2163321136","0.02325572033","0.3817747688","0.4037751878","","","","","","","","","","72","H","0","img/none_selected.jpg","","154","main_expt",""
"","bandit","234","829970","0.0-196.0-0.0","93103298","wem/bandit_party_1","A3GM78FCDY293T","either","2","845","","","","","","","0","0","1","","0.2257858177","0.4","0.8","0.2","0.6","0.2257858177","0.03925092562","0.327727533","0.4078727314","","","","","","","","","","","","","","72","H","0","img/none_selected.jpg","","155","main_expt",""
"","bandit","235","832153","0.0-197.0-0.0","93103298","wem/bandit_party_1","A3GM78FCDY293T","either","2","659","","","","","","","0","0","1","0.2077891775","","0.4","0.8","0.2","0.6","","","","","0.2077891775","0.05532081832","0.2821504166","0.3941681487","","","","","","","","","","72","H","0","img/none_selected.jpg","","156","main_expt",""
"","bandit","236","834368","0.0-198.0-0.0","93103298","wem/bandit_party_1","A3GM78FCDY293T","either","2","690","","","","","","","0","0","1","","0.1742908387","0.4","0.8","0.2","0.6","0.1742908387","0.05983660039","0.2784527126","0.3417147062","","","","","","","","","","","","","","72","H","0","img/none_selected.jpg","","157","main_expt",""
"","bandit","237","836620","0.0-199.0-0.0","93103298","wem/bandit_party_1","A3GM78FCDY293T","either","2","726","","","","","","","0","0","1","","0.162057643","0.4","0.8","0.2","0.6","0.162057643","0.09347744845","0.2857058734","0.2963220618","","","","","","","","","","","","","","72","H","0","img/none_selected.jpg","","158","main_expt",""
"","bandit","238","838842","0.0-200.0-0.0","93103298","wem/bandit_party_1","A3GM78FCDY293T","either","2","696","","","","","","","0","0","1","0.1805514511","","0.4","0.8","0.2","0.6","","","","","0.1805514511","0.09649648717","0.2349295223","0.2961528309","","","","","","","","","","72","H","0","img/none_selected.jpg","","159","main_expt",""
"","bandit","239","841009","0.0-201.0-0.0","93103298","wem/bandit_party_1","A3GM78FCDY293T","either","2","639","","","","","","","0","0","1","0.08382429791","","0.4","0.8","0.2","0.6","","","","","0.1724629995","0.08382429791","0.2275717407","0.2842772575","","","","","","","","","","74","J","1","","","160","main_expt",""
"","bandit","240","843234","0.0-202.0-0.0","93103298","wem/bandit_party_1","A3GM78FCDY293T","either","2","699","","","","","","","0","0","1","","0.1466352983","0.4","0.8","0.2","0.6","0.1660992999","0.1466352983","0.2559884592","0.2747674873","","","","","","","","","","","","","","74","J","1","","","161","main_expt",""
"","bandit","241","845929","0.0-203.0-0.0","93103298","wem/bandit_party_1","A3GM78FCDY293T","either","2","1170","","","","","","","0","0","1","0.1569467617","","0.4","0.8","0.2","0.6","","","","","0.2281832109","0.1569467617","0.2670526618","0.2993190406","","","","","","","","","","74","J","1","","","162","main_expt",""
"","bandit","242","848926","0.0-204.0-0.0","93103298","wem/bandit_party_1","A3GM78FCDY293T","either","2","1470","","","","","","","1","0","0","0.1437935099","","0.4","0.8","0.2","0.6","","","","","0.2144285545","0.1437935099","0.2618894379","0.3102408377","","","","","","","","","","74","J","1","","","163","main_expt",""
"","bandit","243","851234","0.0-205.0-0.0","93103298","wem/bandit_party_1","A3GM78FCDY293T","either","2","782","","","","","","","0","0","1","0.1503677763","","0.4","0.8","0.2","0.6","","","","","0.2131293933","0.1503677763","0.2977476978","0.2607878409","","","","","","","","","","74","J","1","","","164","main_expt",""
"","bandit","244","853505","0.0-206.0-0.0","93103298","wem/bandit_party_1","A3GM78FCDY293T","either","2","747","","","","","","","0","0","1","0.1574825995","","0.4","0.8","0.2","0.6","","","","","0.251698227","0.1574825995","0.3138636066","0.2470054868","","","","","","","","","","74","J","1","","","165","main_expt",""
"","bandit","245","855577","0.0-207.0-0.0","93103298","wem/bandit_party_1","A3GM78FCDY293T","either","2","507","","","","","","","0","0","1","","0.3204338644","0.4","0.8","0.2","0.6","0.2831539445","0.1500633275","0.3204338644","0.2629624785","","","","","","","","","","","","","","75","K","2","","","166","main_expt",""
"","bandit","246","857881","0.0-208.0-0.0","93103298","wem/bandit_party_1","A3GM78FCDY293T","either","2","778","","","","","","","0","0","1","","0.2745713682","0.4","0.8","0.2","0.6","0.2496169508","0.1137242654","0.3600517585","0.2745713682","","","","","","","","","","","","","","76","L","3","","","167","main_expt",""
"","bandit","247","860138","0.0-209.0-0.0","93103298","wem/bandit_party_1","A3GM78FCDY293T","either","2","733","","","","","","","0","1","0","","0.2557249153","0.4","0.8","0.2","0.6","0.2315540067","0.145192941","0.3678373827","0.2557249153","","","","","","","","","","","","","","76","L","3","","","168","main_expt",""
"","bandit","248","862519","0.0-210.0-0.0","93103298","wem/bandit_party_1","A3GM78FCDY293T","either","2","856","","","","","","","0","0","1","","0.2016321063","0.4","0.8","0.2","0.6","0.1825517174","0.1863479632","0.3421512568","0.2016321063","","","","","","","","","","","","","","76","L","3","","","169","main_expt",""
"","bandit","249","864809","0.0-211.0-0.0","93103298","wem/bandit_party_1","A3GM78FCDY293T","either","2","761","","","","","","","0","0","1","0.2210696627","","0.4","0.8","0.2","0.6","","","","","0.2535959064","0.142304713","0.3917895485","0.2210696627","","","","","","","","","","76","L","3","","","170","main_expt",""
"","bandit","250","868176","0.0-212.0-0.0","93103298","wem/bandit_party_1","A3GM78FCDY293T","either","2","1840","","","","","","","1","0","0","0.1627904758","","0.4","0.8","0.2","0.6","","","","","0.3004284576","0.1739768979","0.3206692194","0.1627904758","","","","","","","","","","76","L","3","","","171","main_expt",""
"","bandit","251","870517","0.0-213.0-0.0","93103298","wem/bandit_party_1","A3GM78FCDY293T","either","2","811","","","","","","","0","0","1","","0.3198600846","0.4","0.8","0.2","0.6","0.2716191145","0.2172659048","0.3198600846","0.1421076649","","","","","","","","","","","","","","75","K","2","","","172","main_expt",""
"","bandit","252","872736","0.0-214.0-0.0","93103298","wem/bandit_party_1","A3GM78FCDY293T","either","2","691","","","","","","","0","1","0","","0.2641483633","0.4","0.8","0.2","0.6","0.3253138029","0.2419731025","0.2641483633","0.165050165","","","","","","","","","","","","","","75","K","2","","","173","main_expt",""
"","bandit","253","874912","0.0-215.0-0.0","93103298","wem/bandit_party_1","A3GM78FCDY293T","either","2","649","","","","","","","0","0","1","","0.2248062597","0.4","0.8","0.2","0.6","0.3419591401","0.2239571331","0.2248062597","0.1406738207","","","","","","","","","","","","","","75","K","2","","","174","main_expt",""
"","bandit","254","877151","0.0-216.0-0.0","93103298","wem/bandit_party_1","A3GM78FCDY293T","either","2","712","","","","","","","0","0","1","0.2370379408","","0.4","0.8","0.2","0.6","","","","","0.3442692367","0.2311410243","0.2370379408","0.138310495","","","","","","","","","","75","K","2","","","175","main_expt",""
"","bandit","255","879567","0.0-217.0-0.0","93103298","wem/bandit_party_1","A3GM78FCDY293T","either","2","888","","","","","","","0","0","1","","0.2157433706","0.4","0.8","0.2","0.6","0.3397266539","0.2610077479","0.2157433706","0.1675243642","","","","","","","","","","","","","","75","K","2","","","176","main_expt",""
"","bandit","256","882540","0.0-218.0-0.0","93103298","wem/bandit_party_1","A3GM78FCDY293T","either","2","1444","","","","","","","0","0","1","","0.2014791824","0.4","0.8","0.2","0.6","0.2997078274","0.2780938204","0.2014791824","0.1919885971","","","","","","","","","","","","","","75","K","2","","","177","main_expt",""
"","bandit","257","885649","0.0-219.0-0.0","93103298","wem/bandit_party_1","A3GM78FCDY293T","either","2","1578","","","","","","","0","1","0","","0.1913564418","0.4","0.8","0.2","0.6","0.3064007527","0.3151752793","0.1913564418","0.2365392944","","","","","","","","","","","","","","75","K","2","","","178","main_expt",""
"","bandit","258","888048","0.0-220.0-0.0","93103298","wem/bandit_party_1","A3GM78FCDY293T","either","2","871","","","","","","","0","1","0","","0.1980728016","0.4","0.8","0.2","0.6","0.3533432679","0.2799621139","0.1980728016","0.2509455726","","","","","","","","","","","","","","75","K","2","","","179","main_expt",""
"","bandit","259","890359","0.0-221.0-0.0","93103298","wem/bandit_party_1","A3GM78FCDY293T","either","2","784","","","","","","","0","0","1","","0.1833491223","0.4","0.8","0.2","0.6","0.3652522579","0.3170936092","0.1833491223","0.2767223981","","","","","","","","","","","","","","75","K","2","","","180","main_expt",""
"","bandit","260","892954","0.0-222.0-0.0","93103298","wem/bandit_party_1","A3GM78FCDY293T","either","2","1068","","","","","","","0","0","1","","0.1342686697","0.4","0.8","0.2","0.6","0.3383156657","0.28101752","0.1342686697","0.314600373","","","","","","","","","","","","","","75","K","2","","","181","main_expt",""
"","bandit","261","895495","0.0-223.0-0.0","93103298","wem/bandit_party_1","A3GM78FCDY293T","either","2","1017","","","","","","","1","0","0","0.3043342224","","0.4","0.8","0.2","0.6","","","","","0.2902116232","0.3043342224","0.1636660304","0.3943610609","","","","","","","","","","74","J","1","","","182","main_expt",""
"","bandit","262","897648","0.0-224.0-0.0","93103298","wem/bandit_party_1","A3GM78FCDY293T","either","2","623","","","","","","","0","0","1","0.3192524042","","0.4","0.8","0.2","0.6","","","","","0.3026157476","0.3192524042","0.136761637","0.3586422101","","","","","","","","","","74","J","1","","","183","main_expt",""
"","bandit","263","900431","0.0-225.0-0.0","93103298","wem/bandit_party_1","A3GM78FCDY293T","either","2","1255","","","","","","","1","0","0","0.3332516821","","0.4","0.8","0.2","0.6","","","","","0.3360229169","0.3332516821","0.1685989701","0.3879999062","","","","","","","","","","74","J","1","","","184","main_expt",""
"","bandit","264","903025","0.0-226.0-0.0","93103298","wem/bandit_party_1","A3GM78FCDY293T","either","2","1065","","","","","","","0","1","0","","0.3228184693","0.4","0.8","0.2","0.6","0.3336456265","0.3228184693","0.1663529744","0.3831340227","","","","","","","","","","","","","","74","J","1","","","185","main_expt",""
"","bandit","265","905605","0.0-227.0-0.0","93103298","wem/bandit_party_1","A3GM78FCDY293T","either","2","1047","","","","","","","1","0","0","0.3111703144","","0.4","0.8","0.2","0.6","","","","","0.3308881938","0.3111703144","0.1916836285","0.3999004662","","","","","","","","","","74","J","1","","","186","main_expt",""
"","bandit","266","907813","0.0-228.0-0.0","93103298","wem/bandit_party_1","A3GM78FCDY293T","either","2","679","","","","","","","1","0","0","0.3353611299","","0.4","0.8","0.2","0.6","","","","","0.325530054","0.3353611299","0.1686829448","0.3875363153","","","","","","","","","","74","J","1","","","187","main_expt",""
"","bandit","267","910413","0.0-229.0-0.0","93103298","wem/bandit_party_1","A3GM78FCDY293T","either","2","1068","","","","","","","1","0","0","0.3646937268","","0.4","0.8","0.2","0.6","","","","","0.3055482451","0.3646937268","0.1461675531","0.3875691392","","","","","","","","","","74","J","1","","","188","main_expt",""
"","bandit","268","913136","0.0-230.0-0.0","93103298","wem/bandit_party_1","A3GM78FCDY293T","either","2","1193","","","","","","","0","0","1","0.3891323825","","0.4","0.8","0.2","0.6","","","","","0.3002345065","0.3891323825","0.1382971047","0.4166866882","","","","","","","","","","74","J","1","","","189","main_expt",""
"","bandit","269","915308","0.0-231.0-0.0","93103298","wem/bandit_party_1","A3GM78FCDY293T","either","2","643","","","","","","","0","0","1","0.1898135375","","0.4","0.8","0.2","0.6","","","","","0.2693931213","0.3860741766","0.1898135375","0.4124474499","","","","","","","","","","75","K","2","","","190","main_expt",""
"","bandit","270","917469","0.0-232.0-0.0","93103298","wem/bandit_party_1","A3GM78FCDY293T","either","2","630","","","","","","","0","0","1","0.1264917812","","0.4","0.8","0.2","0.6","","","","","0.3009284261","0.3864243721","0.1264917812","0.3638199534","","","","","","","","","","75","K","2","","","191","main_expt",""
"","bandit","271","919725","0.0-233.0-0.0","93103298","wem/bandit_party_1","A3GM78FCDY293T","either","2","727","","","","","","","0","0","1","","0.1185409567","0.4","0.8","0.2","0.6","0.3157917784","0.400448014","0.1185409567","0.3711146034","","","","","","","","","","","","","","75","K","2","","","192","main_expt",""
"","bandit","272","921940","0.0-234.0-0.0","93103298","wem/bandit_party_1","A3GM78FCDY293T","either","2","686","","","","","","","0","0","1","","0.09837948322","0.4","0.8","0.2","0.6","0.2999212614","0.3895367297","0.09837948322","0.3654165885","","","","","","","","","","","","","","75","K","2","","","193","main_expt",""
"","bandit","273","924063","0.0-235.0-0.0","93103298","wem/bandit_party_1","A3GM78FCDY293T","either","2","595","","","","","","","0","1","0","","0.137690802","0.4","0.8","0.2","0.6","0.3287494418","0.4032313792","0.137690802","0.3537818584","","","","","","","","","","","","","","75","K","2","","","194","main_expt",""
"","bandit","274","926187","0.0-236.0-0.0","93103298","wem/bandit_party_1","A3GM78FCDY293T","either","2","596","","","","","","","0","0","1","","0.1683354775","0.4","0.8","0.2","0.6","0.3031978913","0.337234763","0.1683354775","0.3597494918","","","","","","","","","","","","","","75","K","2","","","195","main_expt",""
"","bandit","275","929060","0.0-237.0-0.0","93103298","wem/bandit_party_1","A3GM78FCDY293T","either","2","1343","","","","","","","0","0","1","","0.1561951964","0.4","0.8","0.2","0.6","0.2901303692","0.3950764453","0.1561951964","0.3479121901","","","","","","","","","","","","","","75","K","2","","","196","main_expt",""
"","bandit","276","932115","0.0-238.0-0.0","93103298","wem/bandit_party_1","A3GM78FCDY293T","either","2","1511","","","","","","","0","0","1","0.3596292454","","0.4","0.8","0.2","0.6","","","","","0.2444781728","0.4193743727","0.1329868482","0.3596292454","","","","","","","","","","76","L","3","","","197","main_expt",""
"","bandit","277","935055","0.0-239.0-0.0","93103298","wem/bandit_party_1","A3GM78FCDY293T","either","2","1409","","","","","","","0","0","1","","0.3555371828","0.4","0.8","0.2","0.6","0.2140047665","0.4375347816","0.1730826789","0.3555371828","","","","","","","","","","","","","","76","L","3","","","198","main_expt",""
"","bandit","278","938060","0.0-240.0-0.0","93103298","wem/bandit_party_1","A3GM78FCDY293T","either","2","1477","","","","","","","1","0","0","0.4016486285","","0.4","0.8","0.2","0.6","","","","","0.2077842613","0.4315030007","0.1385649096","0.4016486285","","","","","","","","","","76","L","3","","","199","main_expt",""
"","bandit","279","939755","0.0-241.0-0.0","93103298","wem/bandit_party_1","A3GM78FCDY293T","either","2","167","","","","","","","0","0","1","","0.180488049","0.4","0.8","0.2","0.6","0.180488049","0.4340108373","0.1941139053","0.3871107612","","","","","","","","","","","","","","72","H","0","img/none_selected.jpg","","200","main_expt",""
"","bandit","280","942188","0.0-242.0-0.0","93103298","wem/bandit_party_1","A3GM78FCDY293T","either","2","904","","","","","","","0","0","1","0.3856539452","","0.4","0.8","0.2","0.6","","","","","0.2084987087","0.441078118","0.1825013029","0.3856539452","","","","","","","","","","76","L","3","","","201","main_expt",""
"","bandit","281","944364","0.0-243.0-0.0","93103298","wem/bandit_party_1","A3GM78FCDY293T","either","2","643","","","","","","","1","0","0","0.358588673","","0.4","0.8","0.2","0.6","","","","","0.1869669721","0.4143682719","0.162440572","0.358588673","","","","","","","","","","76","L","3","","","202","main_expt",""
"","bandit","282","946662","0.0-244.0-0.0","93103298","wem/bandit_party_1","A3GM78FCDY293T","either","2","767","","","","","","","0","0","1","0.3460881607","","0.4","0.8","0.2","0.6","","","","","0.1383076553","0.4280720422","0.1914238456","0.3460881607","","","","","","","","","","76","L","3","","","203","main_expt",""
"","bandit","283","949460","0.0-245.0-0.0","93103298","wem/bandit_party_1","A3GM78FCDY293T","either","2","1267","","","","","","","0","0","1","0.3091432968","","0.4","0.8","0.2","0.6","","","","","0.1656187697","0.4113524858","0.1849793247","0.3091432968","","","","","","","","","","76","L","3","","","204","main_expt",""
"","bandit","284","951988","0.0-246.0-0.0","93103298","wem/bandit_party_1","A3GM78FCDY293T","either","2","998","","","","","","","0","1","0","","0.3016396897","0.4","0.8","0.2","0.6","0.1699285253","0.4151465815","0.1722293799","0.3016396897","","","","","","","","","","","","","","76","L","3","","","205","main_expt",""
"","bandit","285","954411","0.0-247.0-0.0","93103298","wem/bandit_party_1","A3GM78FCDY293T","either","2","895","","","","","","","0","1","0","","0.3300702997","0.4","0.8","0.2","0.6","0.161732949","0.4002359997","0.1625694713","0.3300702997","","","","","","","","","","","","","","76","L","3","","","206","main_expt",""
"","bandit","286","956620","0.0-248.0-0.0","93103298","wem/bandit_party_1","A3GM78FCDY293T","either","2","680","","","","","","","0","0","1","0.2648848683","","0.4","0.8","0.2","0.6","","","","","0.1699017951","0.3692387261","0.1079769143","0.2648848683","","","","","","","","","","76","L","3","","","207","main_expt",""
"","bandit","287","958774","0.0-249.0-0.0","93103298","wem/bandit_party_1","A3GM78FCDY293T","either","2","626","","","","","","","0","0","1","","0.2502792914","0.4","0.8","0.2","0.6","0.1592107695","0.3283471685","0.1380178959","0.2502792914","","","","","","","","","","","","","","76","L","3","","","208","main_expt",""
"","bandit","288","961172","0.0-250.0-0.0","93103298","wem/bandit_party_1","A3GM78FCDY293T","either","2","868","","","","","","","0","0","1","0.1538506734","","0.4","0.8","0.2","0.6","","","","","0.1659907122","0.2924758898","0.1538506734","0.2770073026","","","","","","","","","","75","K","2","","","209","main_expt",""
"","bandit","289","963389","0.0-251.0-0.0","93103298","wem/bandit_party_1","A3GM78FCDY293T","either","2","685","","","","","","","0","0","1","","0.1406222791","0.4","0.8","0.2","0.6","0.229525517","0.2279470939","0.1406222791","0.3451435735","","","","","","","","","","","","","","75","K","2","","","210","main_expt",""
"","bandit","290","965643","0.0-252.0-0.0","93103298","wem/bandit_party_1","A3GM78FCDY293T","either","2","723","","","","","","","0","1","0","","0.08987887408","0.4","0.8","0.2","0.6","0.2434605193","0.2131844406","0.08987887408","0.3514478275","","","","","","","","","","","","","","75","K","2","","","211","main_expt",""
"","bandit","291","967883","0.0-253.0-0.0","93103298","wem/bandit_party_1","A3GM78FCDY293T","either","2","709","","","","","","","0","0","1","","0.1277875359","0.4","0.8","0.2","0.6","0.1633214123","0.1601793481","0.1277875359","0.3579324364","","","","","","","","","","","","","","75","K","2","","","212","main_expt",""
"","bandit","292","970363","0.0-254.0-0.0","93103298","wem/bandit_party_1","A3GM78FCDY293T","either","2","949","","","","","","","0","0","1","","0.134271297","0.4","0.8","0.2","0.6","0.1014835246","0.1354109392","0.134271297","0.3231243524","","","","","","","","","","","","","","75","K","2","","","213","main_expt",""
"","bandit","293","973764","0.0-255.0-0.0","93103298","wem/bandit_party_1","A3GM78FCDY293T","either","2","1870","","","","","","","0","0","1","","0.1385204111","0.4","0.8","0.2","0.6","0.09587264096","0.1142105534","0.1385204111","0.2798540136","","","","","","","","","","","","","","75","K","2","","","214","main_expt",""
"","bandit","294","976059","0.0-256.0-0.0","93103298","wem/bandit_party_1","A3GM78FCDY293T","either","2","757","","","","","","","0","0","1","","0.1089132689","0.4","0.8","0.2","0.6","0.08342689115","0.1031311673","0.1089132689","0.2469391402","","","","","","","","","","","","","","75","K","2","","","215","main_expt",""
"","bandit","295","978499","0.0-257.0-0.0","93103298","wem/bandit_party_1","A3GM78FCDY293T","either","2","908","","","","","","","0","0","1","","0.1299508563","0.4","0.8","0.2","0.6","0.05361264496","0.1031732366","0.1299508563","0.3211823944","","","","","","","","","","","","","","75","K","2","","","216","main_expt",""
"","bandit","296","981374","0.0-258.0-0.0","93103298","wem/bandit_party_1","A3GM78FCDY293T","either","2","1345","","","","","","","0","0","1","","0.131109262","0.4","0.8","0.2","0.6","0.09912420903","0.1188097379","0.131109262","0.3545519007","","","","","","","","","","","","","","75","K","2","","","217","main_expt",""
"","bandit","297","984321","0.0-259.0-0.0","93103298","wem/bandit_party_1","A3GM78FCDY293T","either","2","1355","","","","","","","1","0","0","0.1039495344","","0.4","0.8","0.2","0.6","","","","","0.1021137889","0.1096623481","0.1039495344","0.3781539282","","","","","","","","","","75","K","2","","","218","main_expt",""
"","bandit","298","986852","0.0-260.0-0.0","93103298","wem/bandit_party_1","A3GM78FCDY293T","either","2","995","","","","","","","0","0","1","","0.09488552944","0.4","0.8","0.2","0.6","0.1025207236","0.08679630722","0.09488552944","0.3674409598","","","","","","","","","","","","","","75","K","2","","","219","main_expt",""
"","bandit","299","990956","0.0-261.0-0.0","93103298","wem/bandit_party_1","A3GM78FCDY293T","either","2","2572","","","","","","","1","0","0","0.1311925698","","0.4","0.8","0.2","0.6","","","","","0.1049734862","0.1482089448","0.1311925698","0.315237632","","","","","","","","","","75","K","2","","","220","main_expt",""
"","bandit","300","994798","0.0-262.0-0.0","93103298","wem/bandit_party_1","A3GM78FCDY293T","either","2","2307","","","","","","","0","0","1","0.08224132258","","0.4","0.8","0.2","0.6","","","","","0.08244295151","0.217172314","0.08224132258","0.3572442142","","","","","","","","","","75","K","2","","","221","main_expt",""
"","bandit","301","998258","0.0-263.0-0.0","93103298","wem/bandit_party_1","A3GM78FCDY293T","either","2","1908","","","","","","","0","0","1","","0.06870998364","0.4","0.8","0.2","0.6","0.09815111748","0.2227738938","0.06870998364","0.2796125419","","","","","","","","","","","","","","75","K","2","","","222","main_expt",""
"","bandit","302","1000625","0.0-264.0-0.0","93103298","wem/bandit_party_1","A3GM78FCDY293T","either","2","837","","","","","","","0","0","1","","0.111762886","0.4","0.8","0.2","0.6","0.09925351505","0.2768694491","0.111762886","0.2265565182","","","","","","","","","","","","","","75","K","2","","","223","main_expt",""
"","bandit","303","1002793","0.0-265.0-0.0","93103298","wem/bandit_party_1","A3GM78FCDY293T","either","2","638","","","","","","","0","0","1","0.07842644678","","0.4","0.8","0.2","0.6","","","","","0.07842644678","0.2895694018","0.09652303785","0.1727872262","","","","","","","","","","72","H","0","img/none_selected.jpg","","224","main_expt",""
"","bandit","304","1005253","0.0-266.0-0.0","93103298","wem/bandit_party_1","A3GM78FCDY293T","either","2","929","","","","","","","0","0","1","0.05284632075","","0.4","0.8","0.2","0.6","","","","","0.05284632075","0.3515154126","0.09424892582","0.1580797834","","","","","","","","","","72","H","0","img/none_selected.jpg","","225","main_expt",""
"","bandit","305","1008658","0.0-267.0-0.0","93103298","wem/bandit_party_1","A3GM78FCDY293T","either","2","1865","","","","","","","0","0","1","0.06788221328","","0.4","0.8","0.2","0.6","","","","","0.06788221328","0.3960872924","0.1094697254","0.1206031336","","","","","","","","","","72","H","0","img/none_selected.jpg","","226","main_expt",""
"","bandit","306","1010821","0.0-268.0-0.0","93103298","wem/bandit_party_1","A3GM78FCDY293T","either","2","573","","","","","","","0","0","1","","0.3301105445","0.4","0.8","0.2","0.6","0.04226868229","0.3301105445","0.1055794081","0.1218099769","","","","","","","","","","","","","","74","J","1","","","227","main_expt",""
"","bandit","307","1013057","0.0-269.0-0.0","93103298","wem/bandit_party_1","A3GM78FCDY293T","either","2","707","","","","","","","0","0","1","","0.3679650562","0.4","0.8","0.2","0.6","0.06174471126","0.3679650562","0.1210232629","0.08458740206","","","","","","","","","","","","","","74","J","1","","","228","main_expt",""
"","bandit","308","1015365","0.0-270.0-0.0","93103298","wem/bandit_party_1","A3GM78FCDY293T","either","2","777","","","","","","","0","0","1","0.3413725311","","0.4","0.8","0.2","0.6","","","","","0.06122033102","0.3413725311","0.1249199002","0.06311990622","","","","","","","","","","74","J","1","","","229","main_expt",""
"","bandit","309","1017609","0.0-271.0-0.0","93103298","wem/bandit_party_1","A3GM78FCDY293T","either","2","713","","","","","","","0","0","1","","0.1423167866","0.4","0.8","0.2","0.6","0.09369367087","0.3652503211","0.1423167866","0.04674316758","","","","","","","","","","","","","","75","K","2","","","230","main_expt",""
"","bandit","310","1019843","0.0-272.0-0.0","93103298","wem/bandit_party_1","A3GM78FCDY293T","either","2","702","","","","","","","0","0","1","0.1441411413","","0.4","0.8","0.2","0.6","","","","","0.1378364932","0.3774172636","0.1441411413","0.06697327866","","","","","","","","","","75","K","2","","","231","main_expt",""
"","bandit","311","1022178","0.0-273.0-0.0","93103298","wem/bandit_party_1","A3GM78FCDY293T","either","2","799","","","","","","","0","0","1","","0.1132866493","0.4","0.8","0.2","0.6","0.1138343256","0.3507397895","0.1132866493","0.08617656909","","","","","","","","","","","","","","75","K","2","","","232","main_expt",""
"","bandit","312","1024299","0.0-274.0-0.0","93103298","wem/bandit_party_1","A3GM78FCDY293T","either","2","589","","","","","","","0","1","0","","0.07587191469","0.4","0.8","0.2","0.6","0.1602674987","0.3228668676","0.07587191469","0.08388286328","","","","","","","","","","","","","","75","K","2","","","233","main_expt",""
"","bandit","313","1027005","0.0-275.0-0.0","93103298","wem/bandit_party_1","A3GM78FCDY293T","either","2","1172","","","","","","","0","0","1","","0.08330376307","0.4","0.8","0.2","0.6","0.1399599793","0.3219168209","0.08330376307","0.08303297831","","","","","","","","","","","","","","75","K","2","","","234","main_expt",""
"","bandit","314","1029444","0.0-276.0-0.0","93103298","wem/bandit_party_1","A3GM78FCDY293T","either","2","906","","","","","","","0","0","1","","0.07960395758","0.4","0.8","0.2","0.6","0.1577883936","0.2907257894","0.07960395758","0.08228619446","","","","","","","","","","","","","","75","K","2","","","235","main_expt",""
"","bandit","315","1032146","0.0-277.0-0.0","93103298","wem/bandit_party_1","A3GM78FCDY293T","either","2","1167","","","","","","","0","0","1","","0.06703487678","0.4","0.8","0.2","0.6","0.1206463377","0.2879125653","0.06703487678","0.07856112713","","","","","","","","","","","","","","75","K","2","","","236","main_expt",""
"","bandit","316","1034377","0.0-278.0-0.0","93103298","wem/bandit_party_1","A3GM78FCDY293T","either","2","701","","","","","","","0","0","1","","0.07970276757","0.4","0.8","0.2","0.6","0.1224948263","0.3055933028","0.07970276757","0.09394336493","","","","","","","","","","","","","","75","K","2","","","237","main_expt",""
"","bandit","317","1036497","0.0-279.0-0.0","93103298","wem/bandit_party_1","A3GM78FCDY293T","either","2","588","","","","","","","0","0","1","","0.1163601633","0.4","0.8","0.2","0.6","0.1163601633","0.3197806133","0.05589422377","0.1044036833","","","","","","","","","","","","","","72","H","0","img/none_selected.jpg","","238","main_expt",""
