"consent","trial_type","trial_index","time_elapsed","internal_node_id","subjID","study","MID","cond","drift","rt","responses","button_pressed","key_press","like","value","connected","gems","bombs","no_reward","GemPrChosen","BombPrChosen","GainOverPainPr_0","GainOverPainPr_1","GainOverPainPr_2","GainOverPainPr_3","LosePr_0","LosePr_1","LosePr_2","LosePr_3","WinPr_0","WinPr_1","WinPr_2","WinPr_3","Q0","Q1","Q2","gender","age","ethnicity","label","expt_phase","target","respCharCode","respKey","respChoiceNum","respChoice","practice","trial_counter","trial_label","Q0_index","view_history"
"GDM/GDM_behavioral_consent_30min_online.html","consent","0","3196","0.0-0.0","93844785","wem/bandit_party_1","AEHONA1BIY9JB","either","7","","","","","","","","","","","","","","","","","","","","","","","","","","","","","","","","","","","","","","","","","",""
"","survey-text","1","5309","0.0-1.0","93844785","wem/bandit_party_1","AEHONA1BIY9JB","either","7","1107","{""Q0"":""AEHONA1BIY9JB""}","","","","","","","","","","","","","","","","","","","","","","","","","","","","","","","","","","","","","","","",""
"","button-response","2","7920","0.0-2.0","93844785","wem/bandit_party_1","AEHONA1BIY9JB","either","7","1607","","1","","","","","","","","","","","","","","","","","","","","","","","","","","","","","","","","","","","","","","",""
"","text-replacement","3","15285","0.0-3.0","93844785","wem/bandit_party_1","AEHONA1BIY9JB","either","7","6359","","","32","","","","","","","","","","","","","","","","","","","","","","","","","","","","","","","","","","","","","",""
"","text-replacement","4","18020","0.0-4.0","93844785","wem/bandit_party_1","AEHONA1BIY9JB","either","7","2733","","","32","","","","","","","","","","","","","","","","","","","","","","","","","","","","","","","","","","","","","",""
"","identification","5","21069","0.0-6.0-0.0","93844785","wem/bandit_party_1","AEHONA1BIY9JB","either","7","3042","","","","3","3","3","","","","","","","","","","","","","","","","","","","","","","","","pre","identification_pre","the Democratic Party","","","","","","","","",""
"","identification","6","23973","0.0-6.0-1.0","93844785","wem/bandit_party_1","AEHONA1BIY9JB","either","7","1894","","","","2","2","2","","","","","","","","","","","","","","","","","","","","","","","","pre","identification_pre","the Republican party","","","","","","","","",""
"","text-replacement","7","26660","0.0-7.0","93844785","wem/bandit_party_1","AEHONA1BIY9JB","either","7","1685","","","32","","","","","","","","","","","","","","","","","","","","","","","","","","","","","","","","","","","","","",""
"","text-replacement","8","28011","0.0-8.0","93844785","wem/bandit_party_1","AEHONA1BIY9JB","either","7","1350","","","32","","","","","","","","","","","","","","","","","","","","","","","","","","","","","","","","","","","","","",""
"","text-replacement","9","36788","0.0-9.0","93844785","wem/bandit_party_1","AEHONA1BIY9JB","either","7","8775","","","32","","","","","","","","","","","","","","","","","","","","","","","","","","","","","","","","","","","","","",""
"","text-replacement","10","39108","0.0-10.0","93844785","wem/bandit_party_1","AEHONA1BIY9JB","either","7","2319","","","32","","","","","","","","","","","","","","","","","","","","","","","","","","","","","","","","","","","","","",""
"","text-replacement","11","41068","0.0-11.0","93844785","wem/bandit_party_1","AEHONA1BIY9JB","either","7","1959","","","32","","","","","","","","","","","","","","","","","","","","","","","","","","","","","","","","","","","","","",""
"","bandit","12","46987","0.0-12.0-0.0","93844785","wem/bandit_party_1","AEHONA1BIY9JB","either","7","4412","","","","","","","0","0","1","0","0","","","","","0","","","","0","","","","","","","","","","","","","74","J","0","img/none_selected_demo.jpg","true","0","","",""
"","bandit","13","48915","0.0-13.0-0.0","93844785","wem/bandit_party_1","AEHONA1BIY9JB","either","7","424","","","","","","","0","0","1","0","0","","","","","0","","","","0","","","","","","","","","","","","","75","K","0","img/none_selected_demo.jpg","true","0","","",""
"","text-replacement","14","50332","0.0-14.0","93844785","wem/bandit_party_1","AEHONA1BIY9JB","either","7","1417","","","32","","","","","","","","","","","","","","","","","","","","","","","","","","","","","","","","","","","","","",""
"","text-replacement","15","51588","0.0-15.0","93844785","wem/bandit_party_1","AEHONA1BIY9JB","either","7","1254","","","32","","","","","","","","","","","","","","","","","","","","","","","","","","","","","","","","","","","","","",""
"","text-replacement","16","53836","0.0-16.0","93844785","wem/bandit_party_1","AEHONA1BIY9JB","either","7","2247","","","32","","","","","","","","","","","","","","","","","","","","","","","","","","","","","","","","","","","","","",""
"","text-replacement","17","55740","0.0-17.0","93844785","wem/bandit_party_1","AEHONA1BIY9JB","either","7","1902","","","32","","","","","","","","","","","","","","","","","","","","","","","","","","","","","","","","","","","","","",""
"","bandit","18","58547","0.0-18.0-0.0","93844785","wem/bandit_party_1","AEHONA1BIY9JB","either","7","1302","","","","","","","0","0","1","","0.2","0.5","0.5","","","0.8","0.2","","","","","","","","","","","","","","","","75","K","1","","true","0","80_20_practice","",""
"","bandit","19","60963","0.0-18.0-1.0","93844785","wem/bandit_party_1","AEHONA1BIY9JB","either","7","911","","","","","","","1","0","0","0.8","","0.5","0.5","","","","","","","0.8","0.2","","","","","","","","","","","","74","J","0","img/none_selected_demo.jpg","true","0","80_20_practice","",""
"","bandit","20","62563","0.0-18.0-2.0","93844785","wem/bandit_party_1","AEHONA1BIY9JB","either","7","95","","","","","","","1","0","0","0.8","","0.5","0.5","","","","","","","0.8","0.2","","","","","","","","","","","","74","J","0","img/none_selected_demo.jpg","true","0","80_20_practice","",""
"","bandit","21","64162","0.0-18.0-3.0","93844785","wem/bandit_party_1","AEHONA1BIY9JB","either","7","95","","","","","","","0","0","1","0.8","","0.5","0.5","","","","","","","0.8","0.2","","","","","","","","","","","","74","J","0","img/none_selected_demo.jpg","true","0","80_20_practice","",""
"","bandit","22","65955","0.0-18.0-4.0","93844785","wem/bandit_party_1","AEHONA1BIY9JB","either","7","289","","","","","","","1","0","0","0.8","","0.5","0.5","","","","","","","0.8","0.2","","","","","","","","","","","","74","J","0","img/none_selected_demo.jpg","true","0","80_20_practice","",""
"","bandit","23","67467","0.0-18.0-5.0","93844785","wem/bandit_party_1","AEHONA1BIY9JB","either","7","5","","","","","","","0","1","0","","0.8","0.5","0.5","","","0.8","0.2","","","","","","","","","","","","","","","","74","J","0","img/none_selected_demo.jpg","true","0","80_20_practice","",""
"","bandit","24","69243","0.0-18.0-6.0","93844785","wem/bandit_party_1","AEHONA1BIY9JB","either","7","271","","","","","","","1","0","0","0.8","","0.5","0.5","","","","","","","0.8","0.2","","","","","","","","","","","","74","J","0","img/none_selected_demo.jpg","true","0","80_20_practice","",""
"","bandit","25","70818","0.0-18.0-7.0","93844785","wem/bandit_party_1","AEHONA1BIY9JB","either","7","71","","","","","","","1","0","0","0.8","","0.5","0.5","","","","","","","0.8","0.2","","","","","","","","","","","","74","J","0","img/none_selected_demo.jpg","true","0","80_20_practice","",""
"","bandit","26","72339","0.0-18.0-8.0","93844785","wem/bandit_party_1","AEHONA1BIY9JB","either","7","16","","","","","","","0","1","0","","0.8","0.5","0.5","","","0.8","0.2","","","","","","","","","","","","","","","","74","J","0","img/none_selected_demo.jpg","true","0","80_20_practice","",""
"","bandit","27","73866","0.0-18.0-9.0","93844785","wem/bandit_party_1","AEHONA1BIY9JB","either","7","23","","","","","","","1","0","0","0.8","","0.5","0.5","","","","","","","0.8","0.2","","","","","","","","","","","","74","J","0","img/none_selected_demo.jpg","true","0","80_20_practice","",""
"","bandit","28","75410","0.0-18.0-10.0","93844785","wem/bandit_party_1","AEHONA1BIY9JB","either","7","40","","","","","","","1","0","0","0.8","","0.5","0.5","","","","","","","0.8","0.2","","","","","","","","","","","","74","J","0","img/none_selected_demo.jpg","true","0","80_20_practice","",""
"","bandit","29","77042","0.0-18.0-11.0","93844785","wem/bandit_party_1","AEHONA1BIY9JB","either","7","126","","","","","","","1","0","0","0.8","","0.5","0.5","","","","","","","0.8","0.2","","","","","","","","","","","","74","J","0","img/none_selected_demo.jpg","true","0","80_20_practice","",""
"","bandit","30","78548","0.0-18.0-12.0","93844785","wem/bandit_party_1","AEHONA1BIY9JB","either","7","0","","","","","","","0","1","0","","0.8","0.5","0.5","","","0.8","0.2","","","","","","","","","","","","","","","","74","J","0","img/none_selected_demo.jpg","true","0","80_20_practice","",""
"","bandit","31","80090","0.0-18.0-13.0","93844785","wem/bandit_party_1","AEHONA1BIY9JB","either","7","38","","","","","","","1","0","0","0.8","","0.5","0.5","","","","","","","0.8","0.2","","","","","","","","","","","","74","J","0","img/none_selected_demo.jpg","true","0","80_20_practice","",""
"","bandit","32","81732","0.0-18.0-14.0","93844785","wem/bandit_party_1","AEHONA1BIY9JB","either","7","135","","","","","","","0","1","0","","0.8","0.5","0.5","","","0.8","0.2","","","","","","","","","","","","","","","","74","J","0","img/none_selected_demo.jpg","true","0","80_20_practice","",""
"","bandit","33","83331","0.0-18.0-15.0","93844785","wem/bandit_party_1","AEHONA1BIY9JB","either","7","94","","","","","","","0","0","1","","0.8","0.5","0.5","","","0.8","0.2","","","","","","","","","","","","","","","","74","J","0","img/none_selected_demo.jpg","true","0","80_20_practice","",""
"","bandit","34","84914","0.0-18.0-16.0","93844785","wem/bandit_party_1","AEHONA1BIY9JB","either","7","79","","","","","","","0","0","1","","0.8","0.5","0.5","","","0.8","0.2","","","","","","","","","","","","","","","","74","J","0","img/none_selected_demo.jpg","true","0","80_20_practice","",""
"","bandit","35","86482","0.0-18.0-17.0","93844785","wem/bandit_party_1","AEHONA1BIY9JB","either","7","63","","","","","","","1","0","0","0.8","","0.5","0.5","","","","","","","0.8","0.2","","","","","","","","","","","","74","J","0","img/none_selected_demo.jpg","true","0","80_20_practice","",""
"","bandit","36","88143","0.0-18.0-18.0","93844785","wem/bandit_party_1","AEHONA1BIY9JB","either","7","156","","","","","","","0","0","1","","0.8","0.5","0.5","","","0.8","0.2","","","","","","","","","","","","","","","","74","J","0","img/none_selected_demo.jpg","true","0","80_20_practice","",""
"","bandit","37","89781","0.0-18.0-19.0","93844785","wem/bandit_party_1","AEHONA1BIY9JB","either","7","130","","","","","","","0","0","1","0.2","","0.5","0.5","","","","","","","0.8","0.2","","","","","","","","","","","","75","K","1","","true","0","80_20_practice","",""
"","text-replacement","38","92644","0.0-19.0","93844785","wem/bandit_party_1","AEHONA1BIY9JB","either","7","2855","","","32","","","","","","","","","","","","","","","","","","","","","","","","","","","","","","","","","","","","","",""
"","bandit","39","94721","0.0-20.0-0.0","93844785","wem/bandit_party_1","AEHONA1BIY9JB","either","7","572","","","","","","","1","0","0","1","0","","","","","0","1","","","1","0","","","","","","","","","","","","74","J","0","img/none_selected_demo.jpg","true","0","","",""
"","text-replacement","40","95308","0.0-21.0","93844785","wem/bandit_party_1","AEHONA1BIY9JB","either","7","586","","","32","","","","","","","","","","","","","","","","","","","","","","","","","","","","","","","","","","","","","",""
"","text-replacement","41","96572","0.0-22.0","93844785","wem/bandit_party_1","AEHONA1BIY9JB","either","7","1263","","","32","","","","","","","","","","","","","","","","","","","","","","","","","","","","","","","","","","","","","",""
"","text-replacement","42","96892","0.0-23.0","93844785","wem/bandit_party_1","AEHONA1BIY9JB","either","7","319","","","32","","","","","","","","","","","","","","","","","","","","","","","","","","","","","","","","","","","","","",""
"","text-replacement","43","97180","0.0-24.0","93844785","wem/bandit_party_1","AEHONA1BIY9JB","either","7","287","","","32","","","","","","","","","","","","","","","","","","","","","","","","","","","","","","","","","","","","","",""
"","text-replacement","44","97460","0.0-25.0","93844785","wem/bandit_party_1","AEHONA1BIY9JB","either","7","279","","","32","","","","","","","","","","","","","","","","","","","","","","","","","","","","","","","","","","","","","",""
"","text-replacement","45","97724","0.0-26.0","93844785","wem/bandit_party_1","AEHONA1BIY9JB","either","7","263","","","32","","","","","","","","","","","","","","","","","","","","","","","","","","","","","","","","","","","","","",""
"","text-replacement","46","97996","0.0-27.0","93844785","wem/bandit_party_1","AEHONA1BIY9JB","either","7","271","","","32","","","","","","","","","","","","","","","","","","","","","","","","","","","","","","","","","","","","","",""
"","text-replacement","47","98316","0.0-28.0","93844785","wem/bandit_party_1","AEHONA1BIY9JB","either","7","319","","","32","","","","","","","","","","","","","","","","","","","","","","","","","","","","","","","","","","","","","",""
"","text-replacement","48","98564","0.0-29.0","93844785","wem/bandit_party_1","AEHONA1BIY9JB","either","7","246","","","32","","","","","","","","","","","","","","","","","","","","","","","","","","","","","","","","","","","","","",""
"","text-replacement","49","98875","0.0-30.0","93844785","wem/bandit_party_1","AEHONA1BIY9JB","either","7","309","","","32","","","","","","","","","","","","","","","","","","","","","","","","","","","","","","","","","","","","","",""
"","text-replacement","50","99204","0.0-31.0","93844785","wem/bandit_party_1","AEHONA1BIY9JB","either","7","328","","","32","","","","","","","","","","","","","","","","","","","","","","","","","","","","","","","","","","","","","",""
"","bandit","51","102426","0.0-32.0-0.0","93844785","wem/bandit_party_1","AEHONA1BIY9JB","either","7","1716","","","","","","","1","0","0","0.8","","0.5","0.5","0.5","0.5","","","","","0.8","0.2","0.6","0.2","","","","","","","","","","72","H","0","img/none_selected.jpg","true","0","full_practice","",""
"","bandit","52","104027","0.0-32.0-1.0","93844785","wem/bandit_party_1","AEHONA1BIY9JB","either","7","96","","","","","","","1","0","0","0.8","","0.5","0.5","0.5","0.5","","","","","0.8","0.2","0.6","0.2","","","","","","","","","","72","H","0","img/none_selected.jpg","true","0","full_practice","",""
"","bandit","53","105620","0.0-32.0-2.0","93844785","wem/bandit_party_1","AEHONA1BIY9JB","either","7","87","","","","","","","0","1","0","","0.8","0.5","0.5","0.5","0.5","0.8","0.2","0.6","0.2","","","","","","","","","","","","","","72","H","0","img/none_selected.jpg","true","0","full_practice","",""
"","bandit","54","107129","0.0-32.0-3.0","93844785","wem/bandit_party_1","AEHONA1BIY9JB","either","7","5","","","","","","","0","1","0","","0.8","0.5","0.5","0.5","0.5","0.8","0.2","0.6","0.2","","","","","","","","","","","","","","72","H","0","img/none_selected.jpg","true","0","full_practice","",""
"","bandit","55","108755","0.0-32.0-4.0","93844785","wem/bandit_party_1","AEHONA1BIY9JB","either","7","121","","","","","","","0","1","0","","0.8","0.5","0.5","0.5","0.5","0.8","0.2","0.6","0.2","","","","","","","","","","","","","","72","H","0","img/none_selected.jpg","true","0","full_practice","",""
"","bandit","56","110275","0.0-32.0-5.0","93844785","wem/bandit_party_1","AEHONA1BIY9JB","either","7","15","","","","","","","1","0","0","0.8","","0.5","0.5","0.5","0.5","","","","","0.8","0.2","0.6","0.2","","","","","","","","","","72","H","0","img/none_selected.jpg","true","0","full_practice","",""
"","bandit","57","111875","0.0-32.0-6.0","93844785","wem/bandit_party_1","AEHONA1BIY9JB","either","7","96","","","","","","","0","1","0","","0.8","0.5","0.5","0.5","0.5","0.8","0.2","0.6","0.2","","","","","","","","","","","","","","72","H","0","img/none_selected.jpg","true","0","full_practice","",""
"","bandit","58","113379","0.0-32.0-7.0","93844785","wem/bandit_party_1","AEHONA1BIY9JB","either","7","1","","","","","","","0","0","1","","0.2","0.5","0.5","0.5","0.5","0.8","0.2","0.6","0.2","","","","","","","","","","","","","","74","J","1","","true","0","full_practice","",""
"","bandit","59","114922","0.0-32.0-8.0","93844785","wem/bandit_party_1","AEHONA1BIY9JB","either","7","38","","","","","","","1","0","0","0.6","","0.5","0.5","0.5","0.5","","","","","0.8","0.2","0.6","0.2","","","","","","","","","","75","K","2","","true","0","full_practice","",""
"","bandit","60","116515","0.0-32.0-9.0","93844785","wem/bandit_party_1","AEHONA1BIY9JB","either","7","87","","","","","","","0","0","1","0.6","","0.5","0.5","0.5","0.5","","","","","0.8","0.2","0.6","0.2","","","","","","","","","","75","K","2","","true","0","full_practice","",""
"","bandit","61","118146","0.0-32.0-10.0","93844785","wem/bandit_party_1","AEHONA1BIY9JB","either","7","125","","","","","","","0","1","0","","0.6","0.5","0.5","0.5","0.5","0.8","0.2","0.6","0.2","","","","","","","","","","","","","","75","K","2","","true","0","full_practice","",""
"","bandit","62","119763","0.0-32.0-11.0","93844785","wem/bandit_party_1","AEHONA1BIY9JB","either","7","111","","","","","","","0","0","1","","0.2","0.5","0.5","0.5","0.5","0.8","0.2","0.6","0.2","","","","","","","","","","","","","","76","L","3","","true","0","full_practice","",""
"","bandit","63","121339","0.0-32.0-12.0","93844785","wem/bandit_party_1","AEHONA1BIY9JB","either","7","70","","","","","","","0","1","0","","0.8","0.5","0.5","0.5","0.5","0.8","0.2","0.6","0.2","","","","","","","","","","","","","","72","H","0","img/none_selected.jpg","true","0","full_practice","",""
"","bandit","64","122899","0.0-32.0-13.0","93844785","wem/bandit_party_1","AEHONA1BIY9JB","either","7","55","","","","","","","0","1","0","","0.8","0.5","0.5","0.5","0.5","0.8","0.2","0.6","0.2","","","","","","","","","","","","","","72","H","0","img/none_selected.jpg","true","0","full_practice","",""
"","bandit","65","124442","0.0-32.0-14.0","93844785","wem/bandit_party_1","AEHONA1BIY9JB","either","7","38","","","","","","","0","1","0","","0.6","0.5","0.5","0.5","0.5","0.8","0.2","0.6","0.2","","","","","","","","","","","","","","75","K","2","","true","0","full_practice","",""
"","bandit","66","126339","0.0-32.0-15.0","93844785","wem/bandit_party_1","AEHONA1BIY9JB","either","7","392","","","","","","","1","0","0","0.8","","0.5","0.5","0.5","0.5","","","","","0.8","0.2","0.6","0.2","","","","","","","","","","72","H","0","img/none_selected.jpg","true","0","full_practice","",""
"","bandit","67","127994","0.0-32.0-16.0","93844785","wem/bandit_party_1","AEHONA1BIY9JB","either","7","151","","","","","","","1","0","0","0.8","","0.5","0.5","0.5","0.5","","","","","0.8","0.2","0.6","0.2","","","","","","","","","","72","H","0","img/none_selected.jpg","true","0","full_practice","",""
"","bandit","68","129570","0.0-32.0-17.0","93844785","wem/bandit_party_1","AEHONA1BIY9JB","either","7","71","","","","","","","1","0","0","0.8","","0.5","0.5","0.5","0.5","","","","","0.8","0.2","0.6","0.2","","","","","","","","","","72","H","0","img/none_selected.jpg","true","0","full_practice","",""
"","bandit","69","131219","0.0-32.0-18.0","93844785","wem/bandit_party_1","AEHONA1BIY9JB","either","7","143","","","","","","","0","1","0","","0.8","0.5","0.5","0.5","0.5","0.8","0.2","0.6","0.2","","","","","","","","","","","","","","72","H","0","img/none_selected.jpg","true","0","full_practice","",""
"","bandit","70","132866","0.0-32.0-19.0","93844785","wem/bandit_party_1","AEHONA1BIY9JB","either","7","142","","","","","","","0","0","1","0.8","","0.5","0.5","0.5","0.5","","","","","0.8","0.2","0.6","0.2","","","","","","","","","","72","H","0","img/none_selected.jpg","true","0","full_practice","",""
"","text","71","136932","0.0-33.0","93844785","wem/bandit_party_1","AEHONA1BIY9JB","either","7","4061","","","32","","","","","","","","","","","","","","","","","","","","","","","","","","","","","","","","","","","","","",""
"","text-replacement","72","139548","0.0-34.0","93844785","wem/bandit_party_1","AEHONA1BIY9JB","either","7","1613","","","32","","","","","","","","","","","","","","","","","","","","","","","","","","","","","","","","","","","","","",""
"","text-replacement","73","139972","0.0-35.0","93844785","wem/bandit_party_1","AEHONA1BIY9JB","either","7","422","","","32","","","","","","","","","","","","","","","","","","","","","","","","","","","","","","","","","","","","","",""
"","text-replacement","74","140379","0.0-36.0","93844785","wem/bandit_party_1","AEHONA1BIY9JB","either","7","406","","","32","","","","","","","","","","","","","","","","","","","","","","","","","","","","","","","","","","","","","",""
"","text-replacement","75","140684","0.0-37.0","93844785","wem/bandit_party_1","AEHONA1BIY9JB","either","7","303","","","32","","","","","","","","","","","","","","","","","","","","","","","","","","","","","","","","","","","","","",""
"","text-replacement","76","141012","0.0-38.0","93844785","wem/bandit_party_1","AEHONA1BIY9JB","either","7","327","","","32","","","","","","","","","","","","","","","","","","","","","","","","","","","","","","","","","","","","","",""
"","survey-multi-choice-replacement","77","144660","0.0-39.0-0.0","93844785","wem/bandit_party_1","AEHONA1BIY9JB","either","7","3642","","","","","","","","","","","","","","","","","","","","","","","","Money will be added to the pool for <span style='color:blue;'>DEMOCRATS</span>","","","","","","","attn_check","","","","","","","","","0",""
"","survey-multi-choice-replacement","78","147524","0.0-40.0-0.0","93844785","wem/bandit_party_1","AEHONA1BIY9JB","either","7","1858","","","","","","","","","","","","","","","","","","","","","","","","Money will be subtracted from the pool for <span style='color:red;'>REPUBLICANS</span>","","","","","","","attn_check","","","","","","","","","1",""
"","instructions","79","149392","0.0-40.0-1.0-0.0","93844785","wem/bandit_party_1","AEHONA1BIY9JB","either","7","865","","","","","","","","","","","","","","","","","","","","","","","","","","","","","","","","","","","","","","","","","[{""page_index"":0,""viewing_time"":865}]"
"","survey-multi-choice-replacement","80","160264","0.0-40.1-0.1","93844785","wem/bandit_party_1","AEHONA1BIY9JB","either","7","9865","","","","","","","","","","","","","","","","","","","","","","","","Equal amounts of money will be added to the pool for <span style='color:blue;'>DEMOCRATS</span> and subtracted from the pool for <span style='color:red;'>REPUBLICANS</span>","","","","","","","attn_check","","","","","","","","","2",""
"","survey-multi-choice-replacement","81","163827","0.0-41.0-0.0","93844785","wem/bandit_party_1","AEHONA1BIY9JB","either","7","2556","","","","","","","","","","","","","","","","","","","","","","","","No money will be added to either pool","","","","","","","attn_check","","","","","","","","","3",""
"","bandit","82","167731","0.0-42.0-0.0","93844785","wem/bandit_party_1","AEHONA1BIY9JB","either","7","1396","","","","","","","0","0","1","0.06530018083","","0.8","0.6","0.4","0.2","","","","","0.06530018083","0.1480066451","0.1952616071","0.01738065524","","","","","","","","","","72","H","0","img/none_selected.jpg","","1","main_expt","",""
"","bandit","83","169242","0.0-43.0-0.0","93844785","wem/bandit_party_1","AEHONA1BIY9JB","either","7","6","","","","","","","0","0","1","0.1053714073","","0.8","0.6","0.4","0.2","","","","","0.1011701763","0.1053714073","0.1652234336","0.0196943787","","","","","","","","","","74","J","1","","","2","main_expt","",""
"","bandit","84","170777","0.0-44.0-0.0","93844785","wem/bandit_party_1","AEHONA1BIY9JB","either","7","31","","","","","","","0","0","1","0.1347382479","","0.8","0.6","0.4","0.2","","","","","0.09486719381","0.1460078221","0.1347382479","0.01678573497","","","","","","","","","","75","K","2","","","3","main_expt","",""
"","bandit","85","172385","0.0-45.0-0.0","93844785","wem/bandit_party_1","AEHONA1BIY9JB","either","7","104","","","","","","","0","0","1","","0.02981965743","0.8","0.6","0.4","0.2","0.06705802814","0.1866138214","0.1684625442","0.02981965743","","","","","","","","","","","","","","76","L","3","","","4","main_expt","",""
"","bandit","86","174074","0.0-46.0-0.0","93844785","wem/bandit_party_1","AEHONA1BIY9JB","either","7","183","","","","","","","0","0","1","0.1792029032","","0.8","0.6","0.4","0.2","","","","","0.0822298525","0.2445348717","0.1792029032","0.02600208211","","","","","","","","","","75","K","2","","","5","main_expt","",""
"","bandit","87","175634","0.0-47.0-0.0","93844785","wem/bandit_party_1","AEHONA1BIY9JB","either","7","55","","","","","","","0","0","1","0.2546962146","","0.8","0.6","0.4","0.2","","","","","0.09162209411","0.2546962146","0.2153873139","0.02332436933","","","","","","","","","","74","J","1","","","6","main_expt","",""
"","bandit","88","177140","0.0-48.0-0.0","93844785","wem/bandit_party_1","AEHONA1BIY9JB","either","7","0","","","","","","","0","0","1","0.1028820098","","0.8","0.6","0.4","0.2","","","","","0.1028820098","0.2344841702","0.1757762721","0.02864040813","","","","","","","","","","72","H","0","img/none_selected.jpg","","7","main_expt","",""
"","bandit","89","178748","0.0-49.0-0.0","93844785","wem/bandit_party_1","AEHONA1BIY9JB","either","7","101","","","","","","","1","0","0","0.1532270122","","0.8","0.6","0.4","0.2","","","","","0.1532270122","0.2473344203","0.2241229746","0.02951264166","","","","","","","","","","72","H","0","img/none_selected.jpg","","8","main_expt","",""
"","bandit","90","180325","0.0-50.0-0.0","93844785","wem/bandit_party_1","AEHONA1BIY9JB","either","7","68","","","","","","","1","0","0","0.2131450397","","0.8","0.6","0.4","0.2","","","","","0.2131450397","0.2642160399","0.2199426203","0.02997011939","","","","","","","","","","72","H","0","img/none_selected.jpg","","9","main_expt","",""
"","bandit","91","181921","0.0-51.0-0.0","93844785","wem/bandit_party_1","AEHONA1BIY9JB","either","7","93","","","","","","","0","0","1","0.2985754635","","0.8","0.6","0.4","0.2","","","","","0.2985754635","0.2104627424","0.1520686932","0.02489651457","","","","","","","","","","72","H","0","img/none_selected.jpg","","10","main_expt","",""
"","bandit","92","183450","0.0-52.0-0.0","93844785","wem/bandit_party_1","AEHONA1BIY9JB","either","7","21","","","","","","","1","0","0","0.2924640086","","0.8","0.6","0.4","0.2","","","","","0.2924640086","0.219372878","0.2013349999","0.01651058827","","","","","","","","","","72","H","0","img/none_selected.jpg","","11","main_expt","",""
"","bandit","93","185076","0.0-53.0-0.0","93844785","wem/bandit_party_1","AEHONA1BIY9JB","either","7","121","","","","","","","0","0","1","0.3264291113","","0.8","0.6","0.4","0.2","","","","","0.3264291113","0.2105839871","0.2156800105","0.02341729431","","","","","","","","","","72","H","0","img/none_selected.jpg","","12","main_expt","",""
"","bandit","94","186604","0.0-54.0-0.0","93844785","wem/bandit_party_1","AEHONA1BIY9JB","either","7","21","","","","","","","1","0","0","0.3254913314","","0.8","0.6","0.4","0.2","","","","","0.3254913314","0.2511698571","0.1833947696","0.0257410372","","","","","","","","","","72","H","0","img/none_selected.jpg","","13","main_expt","",""
"","bandit","95","188210","0.0-55.0-0.0","93844785","wem/bandit_party_1","AEHONA1BIY9JB","either","7","102","","","","","","","0","0","1","0.3428504842","","0.8","0.6","0.4","0.2","","","","","0.3428504842","0.2158977649","0.243643366","0.02570014082","","","","","","","","","","72","H","0","img/none_selected.jpg","","14","main_expt","",""
"","bandit","96","189802","0.0-56.0-0.0","93844785","wem/bandit_party_1","AEHONA1BIY9JB","either","7","86","","","","","","","0","0","1","","0.3244047679","0.8","0.6","0.4","0.2","0.3244047679","0.2762480727","0.2265365198","0.04268316416","","","","","","","","","","","","","","72","H","0","img/none_selected.jpg","","15","main_expt","",""
"","bandit","97","191347","0.0-57.0-0.0","93844785","wem/bandit_party_1","AEHONA1BIY9JB","either","7","39","","","","","","","1","0","0","0.3025313629","","0.8","0.6","0.4","0.2","","","","","0.3025313629","0.3202890724","0.2484951132","0.04667408308","","","","","","","","","","72","H","0","img/none_selected.jpg","","16","main_expt","",""
"","bandit","98","193008","0.0-58.0-0.0","93844785","wem/bandit_party_1","AEHONA1BIY9JB","either","7","155","","","","","","","1","0","0","0.3291216938","","0.8","0.6","0.4","0.2","","","","","0.3291216938","0.3680552247","0.2570267238","0.0506688767","","","","","","","","","","72","H","0","img/none_selected.jpg","","17","main_expt","",""
"","bandit","99","194658","0.0-59.0-0.0","93844785","wem/bandit_party_1","AEHONA1BIY9JB","either","7","145","","","","","","","1","0","0","0.2987881532","","0.8","0.6","0.4","0.2","","","","","0.2987881532","0.3968593921","0.287418789","0.02988526167","","","","","","","","","","72","H","0","img/none_selected.jpg","","18","main_expt","",""
"","bandit","100","196324","0.0-60.0-0.0","93844785","wem/bandit_party_1","AEHONA1BIY9JB","either","7","159","","","","","","","1","0","0","0.281207523","","0.8","0.6","0.4","0.2","","","","","0.281207523","0.4192996399","0.2338710899","0.03476350355","","","","","","","","","","72","H","0","img/none_selected.jpg","","19","main_expt","",""
"","bandit","101","197890","0.0-61.0-0.0","93844785","wem/bandit_party_1","AEHONA1BIY9JB","either","7","62","","","","","","","1","0","0","0.291129981","","0.8","0.6","0.4","0.2","","","","","0.291129981","0.4362768361","0.2335293464","0.0233687216","","","","","","","","","","72","H","0","img/none_selected.jpg","","20","main_expt","",""
"","bandit","102","199436","0.0-62.0-0.0","93844785","wem/bandit_party_1","AEHONA1BIY9JB","either","7","38","","","","","","","0","0","1","0.2729578326","","0.8","0.6","0.4","0.2","","","","","0.2729578326","0.4599691003","0.2434826965","0.01272547494","","","","","","","","","","72","H","0","img/none_selected.jpg","","21","main_expt","",""
"","bandit","103","201020","0.0-63.0-0.0","93844785","wem/bandit_party_1","AEHONA1BIY9JB","either","7","77","","","","","","","0","0","1","0.2805141014","","0.8","0.6","0.4","0.2","","","","","0.2805141014","0.44353765","0.2702300591","0.01739491555","","","","","","","","","","72","H","0","img/none_selected.jpg","","22","main_expt","",""
"","bandit","104","202577","0.0-64.0-0.0","93844785","wem/bandit_party_1","AEHONA1BIY9JB","either","7","52","","","","","","","0","1","0","","0.4105594395","0.8","0.6","0.4","0.2","0.3016389313","0.4105594395","0.2424740502","0.006692102231","","","","","","","","","","","","","","74","J","1","","","23","main_expt","",""
"","bandit","105","204226","0.0-65.0-0.0","93844785","wem/bandit_party_1","AEHONA1BIY9JB","either","7","144","","","","","","","0","0","1","","0.4243351486","0.8","0.6","0.4","0.2","0.2475621169","0.4243351486","0.1754503809","0.01209419849","","","","","","","","","","","","","","74","J","1","","","24","main_expt","",""
"","bandit","106","205890","0.0-66.0-0.0","93844785","wem/bandit_party_1","AEHONA1BIY9JB","either","7","158","","","","","","","1","0","0","0.4172780312","","0.8","0.6","0.4","0.2","","","","","0.2607476102","0.4172780312","0.2023019753","0.009734580702","","","","","","","","","","74","J","1","","","25","main_expt","",""
"","bandit","107","207480","0.0-67.0-0.0","93844785","wem/bandit_party_1","AEHONA1BIY9JB","either","7","86","","","","","","","0","0","1","0.3981062588","","0.8","0.6","0.4","0.2","","","","","0.292589008","0.3981062588","0.1887270612","0.008596148908","","","","","","","","","","74","J","1","","","26","main_expt","",""
"","bandit","108","209074","0.0-68.0-0.0","93844785","wem/bandit_party_1","AEHONA1BIY9JB","either","7","88","","","","","","","0","0","1","0.2978950393","","0.8","0.6","0.4","0.2","","","","","0.2978950393","0.3889188119","0.2526986378","0.01380650739","","","","","","","","","","72","H","0","img/none_selected.jpg","","27","main_expt","",""
"","bandit","109","210636","0.0-69.0-0.0","93844785","wem/bandit_party_1","AEHONA1BIY9JB","either","7","55","","","","","","","0","0","1","0.337392419","","0.8","0.6","0.4","0.2","","","","","0.337392419","0.3699095679","0.2536033627","0.01160852189","","","","","","","","","","72","H","0","img/none_selected.jpg","","28","main_expt","",""
"","bandit","110","212242","0.0-70.0-0.0","93844785","wem/bandit_party_1","AEHONA1BIY9JB","either","7","100","","","","","","","0","0","1","","0.3830759015","0.8","0.6","0.4","0.2","0.3830759015","0.4087832773","0.258258936","0.02858314752","","","","","","","","","","","","","","72","H","0","img/none_selected.jpg","","29","main_expt","",""
"","bandit","111","213836","0.0-71.0-0.0","93844785","wem/bandit_party_1","AEHONA1BIY9JB","either","7","87","","","","","","","1","0","0","0.3152574144","","0.8","0.6","0.4","0.2","","","","","0.3778881599","0.4162513677","0.3152574144","0.0265596094","","","","","","","","","","75","K","2","","","30","main_expt","",""
"","bandit","112","215667","0.0-72.0-0.0","93844785","wem/bandit_party_1","AEHONA1BIY9JB","either","7","326","","","","","","","0","0","1","","0.3508579725","0.8","0.6","0.4","0.2","0.3585458117","0.43337534","0.3508579725","0.02828816112","","","","","","","","","","","","","","75","K","2","","","31","main_expt","",""
"","bandit","113","217242","0.0-73.0-0.0","93844785","wem/bandit_party_1","AEHONA1BIY9JB","either","7","70","","","","","","","0","0","1","0.3902021543","","0.8","0.6","0.4","0.2","","","","","0.3511664436","0.4399105216","0.3902021543","0.03857304495","","","","","","","","","","75","K","2","","","32","main_expt","",""
"","bandit","114","218890","0.0-74.0-0.0","93844785","wem/bandit_party_1","AEHONA1BIY9JB","either","7","143","","","","","","","1","0","0","0.4112626521","","0.8","0.6","0.4","0.2","","","","","0.3924960189","0.3859623535","0.4112626521","0.02642959278","","","","","","","","","","75","K","2","","","33","main_expt","",""
"","bandit","115","220403","0.0-75.0-0.0","93844785","wem/bandit_party_1","AEHONA1BIY9JB","either","7","5","","","","","","","0","0","1","0.3912589523","","0.8","0.6","0.4","0.2","","","","","0.3713907517","0.4231921331","0.3912589523","0.06800028167","","","","","","","","","","75","K","2","","","34","main_expt","",""
"","bandit","116","221908","0.0-76.0-0.0","93844785","wem/bandit_party_1","AEHONA1BIY9JB","either","7","1","","","","","","","0","0","1","","0.3663646496","0.8","0.6","0.4","0.2","0.3929004689","0.3950458867","0.3663646496","0.05710280771","","","","","","","","","","","","","","75","K","2","","","35","main_expt","",""
"","bandit","117","224282","0.0-77.0-0.0","93844785","wem/bandit_party_1","AEHONA1BIY9JB","either","7","869","","","","","","","0","0","1","0.3820467604","","0.8","0.6","0.4","0.2","","","","","0.3820467604","0.4005306787","0.3045225128","0.07756943076","","","","","","","","","","72","H","0","img/none_selected.jpg","","36","main_expt","",""
"","bandit","118","225867","0.0-78.0-0.0","93844785","wem/bandit_party_1","AEHONA1BIY9JB","either","7","79","","","","","","","0","0","1","0.3948022939","","0.8","0.6","0.4","0.2","","","","","0.3948022939","0.3972735937","0.2806474599","0.06074629621","","","","","","","","","","72","H","0","img/none_selected.jpg","","37","main_expt","",""
"","bandit","119","227418","0.0-79.0-0.0","93844785","wem/bandit_party_1","AEHONA1BIY9JB","either","7","46","","","","","","","0","0","1","0.3769579019","","0.8","0.6","0.4","0.2","","","","","0.3769579019","0.38339591","0.3558759705","0.07063042774","","","","","","","","","","72","H","0","img/none_selected.jpg","","38","main_expt","",""
"","bandit","120","228930","0.0-80.0-0.0","93844785","wem/bandit_party_1","AEHONA1BIY9JB","either","7","6","","","","","","","0","0","1","","0.4030344636","0.8","0.6","0.4","0.2","0.4030344636","0.3906354184","0.3194138052","0.06209293178","","","","","","","","","","","","","","72","H","0","img/none_selected.jpg","","39","main_expt","",""
"","bandit","121","230474","0.0-81.0-0.0","93844785","wem/bandit_party_1","AEHONA1BIY9JB","either","7","39","","","","","","","1","0","0","0.3549086085","","0.8","0.6","0.4","0.2","","","","","0.3622335218","0.3623676206","0.3549086085","0.06952578958","","","","","","","","","","75","K","2","","","40","main_expt","",""
"","bandit","122","232082","0.0-82.0-0.0","93844785","wem/bandit_party_1","AEHONA1BIY9JB","either","7","101","","","","","","","1","0","0","0.3452113815","","0.8","0.6","0.4","0.2","","","","","0.3911596719","0.3873704927","0.3452113815","0.1291245709","","","","","","","","","","75","K","2","","","41","main_expt","",""
"","bandit","123","233628","0.0-83.0-0.0","93844785","wem/bandit_party_1","AEHONA1BIY9JB","either","7","39","","","","","","","0","0","1","","0.3522960267","0.8","0.6","0.4","0.2","0.3921858285","0.359823116","0.3522960267","0.1174523948","","","","","","","","","","","","","","75","K","2","","","42","main_expt","",""
"","bandit","124","235234","0.0-84.0-0.0","93844785","wem/bandit_party_1","AEHONA1BIY9JB","either","7","100","","","","","","","0","1","0","","0.3093122096","0.8","0.6","0.4","0.2","0.3831213528","0.3710191411","0.3093122096","0.1201484523","","","","","","","","","","","","","","75","K","2","","","43","main_expt","",""
"","bandit","125","236834","0.0-85.0-0.0","93844785","wem/bandit_party_1","AEHONA1BIY9JB","either","7","95","","","","","","","1","0","0","0.3026159556","","0.8","0.6","0.4","0.2","","","","","0.3518708159","0.3874065465","0.3026159556","0.09958360536","","","","","","","","","","75","K","2","","","44","main_expt","",""
"","bandit","126","238348","0.0-86.0-0.0","93844785","wem/bandit_party_1","AEHONA1BIY9JB","either","7","8","","","","","","","0","0","1","","0.3336294247","0.8","0.6","0.4","0.2","0.3122870636","0.3851533971","0.3336294247","0.05173655998","","","","","","","","","","","","","","75","K","2","","","45","main_expt","",""
"","bandit","127","239915","0.0-87.0-0.0","93844785","wem/bandit_party_1","AEHONA1BIY9JB","either","7","61","","","","","","","0","0","1","0.2635721956","","0.8","0.6","0.4","0.2","","","","","0.2635721956","0.4055883719","0.3400222736","0.05945041096","","","","","","","","","","72","H","0","img/none_selected.jpg","","46","main_expt","",""
"","bandit","128","241451","0.0-88.0-0.0","93844785","wem/bandit_party_1","AEHONA1BIY9JB","either","7","30","","","","","","","0","0","1","","0.2856785865","0.8","0.6","0.4","0.2","0.2856785865","0.3671593179","0.328707825","0.04375763727","","","","","","","","","","","","","","72","H","0","img/none_selected.jpg","","47","main_expt","",""
"","bandit","129","243105","0.0-89.0-0.0","93844785","wem/bandit_party_1","AEHONA1BIY9JB","either","7","149","","","","","","","0","0","1","","0.3307690822","0.8","0.6","0.4","0.2","0.2649087478","0.3198203038","0.3307690822","0.0666370861","","","","","","","","","","","","","","75","K","2","","","48","main_expt","",""
"","bandit","130","244628","0.0-90.0-0.0","93844785","wem/bandit_party_1","AEHONA1BIY9JB","either","7","17","","","","","","","0","0","1","0.2462979357","","0.8","0.6","0.4","0.2","","","","","0.2462979357","0.3111357295","0.3438067684","0.08266213623","","","","","","","","","","72","H","0","img/none_selected.jpg","","49","main_expt","",""
"","bandit","131","246140","0.0-91.0-0.0","93844785","wem/bandit_party_1","AEHONA1BIY9JB","either","7","6","","","","","","","1","0","0","0.2490076798","","0.8","0.6","0.4","0.2","","","","","0.2490076798","0.3196682981","0.4037002216","0.08795051988","","","","","","","","","","72","H","0","img/none_selected.jpg","","50","main_expt","",""
"","bandit","132","247780","0.0-92.0-0.0","93844785","wem/bandit_party_1","AEHONA1BIY9JB","either","7","134","","","","","","","1","0","0","0.305209751","","0.8","0.6","0.4","0.2","","","","","0.305209751","0.3088596379","0.3557518394","0.07533366945","","","","","","","","","","72","H","0","img/none_selected.jpg","","51","main_expt","",""
"","bandit","133","249307","0.0-93.0-0.0","93844785","wem/bandit_party_1","AEHONA1BIY9JB","either","7","22","","","","","","","1","0","0","0.3087204988","","0.8","0.6","0.4","0.2","","","","","0.3087204988","0.3060924957","0.3254324358","0.06506638851","","","","","","","","","","72","H","0","img/none_selected.jpg","","52","main_expt","",""
"","bandit","134","250819","0.0-94.0-0.0","93844785","wem/bandit_party_1","AEHONA1BIY9JB","either","7","5","","","","","","","0","0","1","0.2984188648","","0.8","0.6","0.4","0.2","","","","","0.2984188648","0.3229319808","0.2952150256","0.06562792832","","","","","","","","","","72","H","0","img/none_selected.jpg","","53","main_expt","",""
"","bandit","135","252482","0.0-95.0-0.0","93844785","wem/bandit_party_1","AEHONA1BIY9JB","either","7","159","","","","","","","0","0","1","0.3353917468","","0.8","0.6","0.4","0.2","","","","","0.3353917468","0.3280138586","0.300320608","0.04630081711","","","","","","","","","","72","H","0","img/none_selected.jpg","","54","main_expt","",""
"","bandit","136","254148","0.0-96.0-0.0","93844785","wem/bandit_party_1","AEHONA1BIY9JB","either","7","159","","","","","","","1","0","0","0.3259144651","","0.8","0.6","0.4","0.2","","","","","0.3259144651","0.2777260571","0.2985084879","0.03868373719","","","","","","","","","","72","H","0","img/none_selected.jpg","","55","main_expt","",""
"","bandit","137","255699","0.0-97.0-0.0","93844785","wem/bandit_party_1","AEHONA1BIY9JB","either","7","45","","","","","","","1","0","0","0.3259049121","","0.8","0.6","0.4","0.2","","","","","0.3259049121","0.1791004868","0.2607009345","0.06235362297","","","","","","","","","","72","H","0","img/none_selected.jpg","","56","main_expt","",""
"","bandit","138","257292","0.0-98.0-0.0","93844785","wem/bandit_party_1","AEHONA1BIY9JB","either","7","86","","","","","","","1","0","0","0.3687904078","","0.8","0.6","0.4","0.2","","","","","0.3687904078","0.2182265394","0.2565854794","0.04639461243","","","","","","","","","","72","H","0","img/none_selected.jpg","","57","main_expt","",""
"","bandit","139","258851","0.0-99.0-0.0","93844785","wem/bandit_party_1","AEHONA1BIY9JB","either","7","54","","","","","","","0","0","1","0.3422038875","","0.8","0.6","0.4","0.2","","","","","0.3422038875","0.2970860181","0.319121847","0.08954448139","","","","","","","","","","72","H","0","img/none_selected.jpg","","58","main_expt","",""
"","bandit","140","260484","0.0-100.0-0.0","93844785","wem/bandit_party_1","AEHONA1BIY9JB","either","7","125","","","","","","","1","0","0","0.3771421139","","0.8","0.6","0.4","0.2","","","","","0.3771421139","0.3249685468","0.3269923399","0.07390342289","","","","","","","","","","72","H","0","img/none_selected.jpg","","59","main_expt","",""
"","bandit","141","262003","0.0-101.0-0.0","93844785","wem/bandit_party_1","AEHONA1BIY9JB","either","7","14","","","","","","","0","0","1","0.3620124399","","0.8","0.6","0.4","0.2","","","","","0.3620124399","0.2931470039","0.3150968823","0.05801548519","","","","","","","","","","72","H","0","img/none_selected.jpg","","60","main_expt","",""
"","bandit","142","263538","0.0-102.0-0.0","93844785","wem/bandit_party_1","AEHONA1BIY9JB","either","7","29","","","","","","","0","1","0","","0.3958116198","0.8","0.6","0.4","0.2","0.3958116198","0.2646536279","0.324539239","0.07333263924","","","","","","","","","","","","","","72","H","0","img/none_selected.jpg","","61","main_expt","",""
"","bandit","143","265194","0.0-103.0-0.0","93844785","wem/bandit_party_1","AEHONA1BIY9JB","either","7","153","","","","","","","0","0","1","0.3615218546","","0.8","0.6","0.4","0.2","","","","","0.3615218546","0.242461968","0.3066306166","0.07563430262","","","","","","","","","","72","H","0","img/none_selected.jpg","","62","main_expt","",""
"","bandit","144","266708","0.0-104.0-0.0","93844785","wem/bandit_party_1","AEHONA1BIY9JB","either","7","7","","","","","","","1","0","0","0.3574266064","","0.8","0.6","0.4","0.2","","","","","0.3574266064","0.2206683029","0.3068900116","0.06826526778","","","","","","","","","","72","H","0","img/none_selected.jpg","","63","main_expt","",""
"","bandit","145","268228","0.0-105.0-0.0","93844785","wem/bandit_party_1","AEHONA1BIY9JB","either","7","14","","","","","","","0","0","1","0.3541915859","","0.8","0.6","0.4","0.2","","","","","0.3541915859","0.2288959862","0.2936494982","0.1175271989","","","","","","","","","","72","H","0","img/none_selected.jpg","","64","main_expt","",""
"","bandit","146","269845","0.0-106.0-0.0","93844785","wem/bandit_party_1","AEHONA1BIY9JB","either","7","110","","","","","","","0","0","1","","0.3339820985","0.8","0.6","0.4","0.2","0.3339820985","0.2346523549","0.290236101","0.1273865191","","","","","","","","","","","","","","72","H","0","img/none_selected.jpg","","65","main_expt","",""
"","bandit","147","271458","0.0-107.0-0.0","93844785","wem/bandit_party_1","AEHONA1BIY9JB","either","7","104","","","","","","","1","0","0","0.3195467083","","0.8","0.6","0.4","0.2","","","","","0.3195467083","0.1881688105","0.2512036594","0.09075088943","","","","","","","","","","72","H","0","img/none_selected.jpg","","66","main_expt","",""
"","bandit","148","273021","0.0-108.0-0.0","93844785","wem/bandit_party_1","AEHONA1BIY9JB","either","7","56","","","","","","","0","0","1","0.3477383846","","0.8","0.6","0.4","0.2","","","","","0.3477383846","0.231043846","0.263747572","0.08077075725","","","","","","","","","","72","H","0","img/none_selected.jpg","","67","main_expt","",""
"","bandit","149","274644","0.0-109.0-0.0","93844785","wem/bandit_party_1","AEHONA1BIY9JB","either","7","118","","","","","","","0","0","1","","0.3365352069","0.8","0.6","0.4","0.2","0.3365352069","0.2576664243","0.2892519303","0.08810311296","","","","","","","","","","","","","","72","H","0","img/none_selected.jpg","","68","main_expt","",""
"","bandit","150","276252","0.0-110.0-0.0","93844785","wem/bandit_party_1","AEHONA1BIY9JB","either","7","101","","","","","","","0","0","1","","0.3148812039","0.8","0.6","0.4","0.2","0.3148812039","0.2183283259","0.2383664846","0.1260156682","","","","","","","","","","","","","","72","H","0","img/none_selected.jpg","","69","main_expt","",""
"","bandit","151","277827","0.0-111.0-0.0","93844785","wem/bandit_party_1","AEHONA1BIY9JB","either","7","70","","","","","","","0","0","1","0.3154014692","","0.8","0.6","0.4","0.2","","","","","0.3154014692","0.2260484764","0.2497111545","0.08773951932","","","","","","","","","","72","H","0","img/none_selected.jpg","","70","main_expt","",""
"","bandit","152","279483","0.0-112.0-0.0","93844785","wem/bandit_party_1","AEHONA1BIY9JB","either","7","150","","","","","","","0","0","1","0.3196469567","","0.8","0.6","0.4","0.2","","","","","0.219815459","0.3196469567","0.2095843002","0.1154304285","","","","","","","","","","74","J","1","","","71","main_expt","",""
"","bandit","153","281170","0.0-113.0-0.0","93844785","wem/bandit_party_1","AEHONA1BIY9JB","either","7","181","","","","","","","0","1","0","","0.1972488467","0.8","0.6","0.4","0.2","0.2623730272","0.3644141189","0.1972488467","0.10097247","","","","","","","","","","","","","","75","K","2","","","72","main_expt","",""
"","bandit","154","282722","0.0-114.0-0.0","93844785","wem/bandit_party_1","AEHONA1BIY9JB","either","7","47","","","","","","","0","0","1","","0.15494396","0.8","0.6","0.4","0.2","0.2639805735","0.4081842109","0.15494396","0.0746930591","","","","","","","","","","","","","","75","K","2","","","73","main_expt","",""
"","bandit","155","284292","0.0-115.0-0.0","93844785","wem/bandit_party_1","AEHONA1BIY9JB","either","7","63","","","","","","","0","0","1","0.1324790415","","0.8","0.6","0.4","0.2","","","","","0.2770925356","0.4506698749","0.1324790415","0.1124392477","","","","","","","","","","75","K","2","","","74","main_expt","",""
"","bandit","156","285812","0.0-116.0-0.0","93844785","wem/bandit_party_1","AEHONA1BIY9JB","either","7","14","","","","","","","0","0","1","","0.179195356","0.8","0.6","0.4","0.2","0.2796652475","0.454520075","0.179195356","0.113494578","","","","","","","","","","","","","","75","K","2","","","75","main_expt","",""
"","bandit","157","287403","0.0-117.0-0.0","93844785","wem/bandit_party_1","AEHONA1BIY9JB","either","7","84","","","","","","","0","0","1","0.3153427244","","0.8","0.6","0.4","0.2","","","","","0.3153427244","0.466199952","0.215808919","0.1469344428","","","","","","","","","","72","H","0","img/none_selected.jpg","","76","main_expt","",""
"","bandit","158","289106","0.0-118.0-0.0","93844785","wem/bandit_party_1","AEHONA1BIY9JB","either","7","198","","","","","","","0","1","0","","0.3676911864","0.8","0.6","0.4","0.2","0.3676911864","0.4402141775","0.2312347408","0.2152215887","","","","","","","","","","","","","","72","H","0","img/none_selected.jpg","","77","main_expt","",""
"","bandit","159","290699","0.0-119.0-0.0","93844785","wem/bandit_party_1","AEHONA1BIY9JB","either","7","87","","","","","","","0","0","1","0.3434277392","","0.8","0.6","0.4","0.2","","","","","0.3434277392","0.4525957793","0.2197025874","0.2055177618","","","","","","","","","","72","H","0","img/none_selected.jpg","","78","main_expt","",""
"","bandit","160","292363","0.0-120.0-0.0","93844785","wem/bandit_party_1","AEHONA1BIY9JB","either","7","157","","","","","","","0","0","1","0.3758616161","","0.8","0.6","0.4","0.2","","","","","0.3758616161","0.4630799716","0.2227420924","0.222262525","","","","","","","","","","72","H","0","img/none_selected.jpg","","79","main_expt","",""
"","bandit","161","293947","0.0-121.0-0.0","93844785","wem/bandit_party_1","AEHONA1BIY9JB","either","7","79","","","","","","","0","0","1","0.3862393514","","0.8","0.6","0.4","0.2","","","","","0.3862393514","0.423693353","0.2283057493","0.2700860438","","","","","","","","","","72","H","0","img/none_selected.jpg","","80","main_expt","",""
"","bandit","162","314800","0.0-122.0-0.0","93844785","wem/bandit_party_1","AEHONA1BIY9JB","either","7","19348","","","","","","","0","0","1","","0.3593770893","0.8","0.6","0.4","0.2","0.3593770893","0.4319112677","0.2721525977","0.2642688004","","","","","","","","","","","","","","72","H","0","img/none_selected.jpg","","81","main_expt","",""
"","bandit","163","316441","0.0-123.0-0.0","93844785","wem/bandit_party_1","AEHONA1BIY9JB","either","7","136","","","","","","","1","0","0","0.4035110645","","0.8","0.6","0.4","0.2","","","","","0.4035110645","0.441827487","0.2850237184","0.2824164754","","","","","","","","","","72","H","0","img/none_selected.jpg","","82","main_expt","",""
"","bandit","164","318011","0.0-124.0-0.0","93844785","wem/bandit_party_1","AEHONA1BIY9JB","either","7","63","","","","","","","0","0","1","0.3719627038","","0.8","0.6","0.4","0.2","","","","","0.3719627038","0.4288861504","0.3236436683","0.2819095575","","","","","","","","","","72","H","0","img/none_selected.jpg","","83","main_expt","",""
"","bandit","165","328161","0.0-125.0-0.0","93844785","wem/bandit_party_1","AEHONA1BIY9JB","either","7","8643","","","","","","","0","0","1","","0.3349288927","0.8","0.6","0.4","0.2","0.3349288927","0.4350385517","0.3339638593","0.2589745902","","","","","","","","","","","","","","72","H","0","img/none_selected.jpg","","84","main_expt","",""
"","bandit","166","329698","0.0-126.0-0.0","93844785","wem/bandit_party_1","AEHONA1BIY9JB","either","7","30","","","","","","","0","0","1","0.3247899262","","0.8","0.6","0.4","0.2","","","","","0.3247899262","0.4255505645","0.3795022601","0.3626504113","","","","","","","","","","72","H","0","img/none_selected.jpg","","85","main_expt","",""
"","bandit","167","331227","0.0-127.0-0.0","93844785","wem/bandit_party_1","AEHONA1BIY9JB","either","7","22","","","","","","","0","0","1","0.3443557019","","0.8","0.6","0.4","0.2","","","","","0.3443557019","0.4330938692","0.3835523064","0.3598915268","","","","","","","","","","72","H","0","img/none_selected.jpg","","86","main_expt","",""
"","bandit","168","332761","0.0-128.0-0.0","93844785","wem/bandit_party_1","AEHONA1BIY9JB","either","7","29","","","","","","","0","0","1","0.3648776167","","0.8","0.6","0.4","0.2","","","","","0.3648776167","0.4548398529","0.3772514457","0.3433052933","","","","","","","","","","72","H","0","img/none_selected.jpg","","87","main_expt","",""
"","bandit","169","336169","0.0-129.0-0.0","93844785","wem/bandit_party_1","AEHONA1BIY9JB","either","7","1902","","","","","","","1","0","0","0.3609631839","","0.8","0.6","0.4","0.2","","","","","0.3609631839","0.4493124031","0.3766830519","0.4022938878","","","","","","","","","","72","H","0","img/none_selected.jpg","","88","main_expt","",""
"","bandit","170","337802","0.0-130.0-0.0","93844785","wem/bandit_party_1","AEHONA1BIY9JB","either","7","126","","","","","","","0","0","1","0.3636167192","","0.8","0.6","0.4","0.2","","","","","0.3636167192","0.4161110063","0.3537755119","0.4141493151","","","","","","","","","","72","H","0","img/none_selected.jpg","","89","main_expt","",""
"","bandit","171","339322","0.0-131.0-0.0","93844785","wem/bandit_party_1","AEHONA1BIY9JB","either","7","14","","","","","","","0","0","1","0.3563441379","","0.8","0.6","0.4","0.2","","","","","0.3563441379","0.405260856","0.3014761449","0.4136124289","","","","","","","","","","72","H","0","img/none_selected.jpg","","90","main_expt","",""
"","bandit","172","340890","0.0-132.0-0.0","93844785","wem/bandit_party_1","AEHONA1BIY9JB","either","7","61","","","","","","","0","0","1","","0.3389138503","0.8","0.6","0.4","0.2","0.3389138503","0.3827048226","0.2694038268","0.4184852842","","","","","","","","","","","","","","72","H","0","img/none_selected.jpg","","91","main_expt","",""
"","bandit","173","342417","0.0-133.0-0.0","93844785","wem/bandit_party_1","AEHONA1BIY9JB","either","7","21","","","","","","","0","0","1","0.3263360165","","0.8","0.6","0.4","0.2","","","","","0.3263360165","0.3552182969","0.2651536323","0.4456808576","","","","","","","","","","72","H","0","img/none_selected.jpg","","92","main_expt","",""
"","bandit","174","373600","0.0-134.0-0.0","93844785","wem/bandit_party_1","AEHONA1BIY9JB","either","7","29175","","","","","","","0","0","1","0.2844131911","","0.8","0.6","0.4","0.2","","","","","0.2844131911","0.3286897504","0.1997208586","0.4355219805","","","","","","","","","","72","H","0","img/none_selected.jpg","","93","main_expt","",""
"","bandit","175","394635","0.0-135.0-0.0","93844785","wem/bandit_party_1","AEHONA1BIY9JB","either","7","19527","","","","","","","1","0","0","0.2978465223","","0.8","0.6","0.4","0.2","","","","","0.2978465223","0.3422490236","0.2442555344","0.4609821192","","","","","","","","","","72","H","0","img/none_selected.jpg","","94","main_expt","",""
"","bandit","176","396284","0.0-136.0-0.0","93844785","wem/bandit_party_1","AEHONA1BIY9JB","either","7","142","","","","","","","1","0","0","0.2638723705","","0.8","0.6","0.4","0.2","","","","","0.2638723705","0.3160161054","0.2638839348","0.4419374505","","","","","","","","","","72","H","0","img/none_selected.jpg","","95","main_expt","",""
"","bandit","177","400387","0.0-137.0-0.0","93844785","wem/bandit_party_1","AEHONA1BIY9JB","either","7","2593","","","","","","","1","0","0","0.2276010735","","0.8","0.6","0.4","0.2","","","","","0.2276010735","0.2945538732","0.2265245807","0.39438674","","","","","","","","","","72","H","0","img/none_selected.jpg","","96","main_expt","",""
"","bandit","178","401946","0.0-138.0-0.0","93844785","wem/bandit_party_1","AEHONA1BIY9JB","either","7","52","","","","","","","0","0","1","0.2045446072","","0.8","0.6","0.4","0.2","","","","","0.2045446072","0.393563827","0.1969189177","0.3617668419","","","","","","","","","","72","H","0","img/none_selected.jpg","","97","main_expt","",""
"","bandit","179","403579","0.0-139.0-0.0","93844785","wem/bandit_party_1","AEHONA1BIY9JB","either","7","126","","","","","","","1","0","0","0.2436418828","","0.8","0.6","0.4","0.2","","","","","0.2436418828","0.4046254927","0.1761144245","0.3737913853","","","","","","","","","","72","H","0","img/none_selected.jpg","","98","main_expt","",""
"","bandit","180","407594","0.0-140.0-0.0","93844785","wem/bandit_party_1","AEHONA1BIY9JB","either","7","2508","","","","","","","0","0","1","","0.2473144087","0.8","0.6","0.4","0.2","0.2473144087","0.3659012549","0.1211630765","0.4221129479","","","","","","","","","","","","","","72","H","0","img/none_selected.jpg","","99","main_expt","",""
"","bandit","181","409136","0.0-141.0-0.0","93844785","wem/bandit_party_1","AEHONA1BIY9JB","either","7","37","","","","","","","0","0","1","","0.2707360286","0.8","0.6","0.4","0.2","0.2707360286","0.400368336","0.1257326749","0.3857893684","","","","","","","","","","","","","","72","H","0","img/none_selected.jpg","","100","main_expt","",""
"","bandit","182","410667","0.0-142.0-0.0","93844785","wem/bandit_party_1","AEHONA1BIY9JB","either","7","25","","","","","","","0","0","1","0.3250409822","","0.8","0.6","0.4","0.2","","","","","0.3250409822","0.4367931528","0.09975532208","0.3635527264","","","","","","","","","","72","H","0","img/none_selected.jpg","","101","main_expt","",""
"","bandit","183","412721","0.0-143.0-0.0","93844785","wem/bandit_party_1","AEHONA1BIY9JB","either","7","548","","","","","","","0","0","1","0.3088580598","","0.8","0.6","0.4","0.2","","","","","0.3088580598","0.4371155326","0.1127414424","0.3738375489","","","","","","","","","","72","H","0","img/none_selected.jpg","","102","main_expt","",""
"","bandit","184","416545","0.0-144.0-0.0","93844785","wem/bandit_party_1","AEHONA1BIY9JB","either","7","2318","","","","","","","0","0","1","0.2901001995","","0.8","0.6","0.4","0.2","","","","","0.2901001995","0.388648264","0.1232600734","0.3860163181","","","","","","","","","","72","H","0","img/none_selected.jpg","","103","main_expt","",""
"","bandit","185","418180","0.0-145.0-0.0","93844785","wem/bandit_party_1","AEHONA1BIY9JB","either","7","128","","","","","","","0","0","1","0.309645936","","0.8","0.6","0.4","0.2","","","","","0.309645936","0.3718469433","0.08156843846","0.390692362","","","","","","","","","","72","H","0","img/none_selected.jpg","","104","main_expt","",""
"","bandit","186","419723","0.0-146.0-0.0","93844785","wem/bandit_party_1","AEHONA1BIY9JB","either","7","32","","","","","","","0","0","1","0.3386062745","","0.8","0.6","0.4","0.2","","","","","0.3386062745","0.3920304628","0.08245659199","0.4139082553","","","","","","","","","","72","H","0","img/none_selected.jpg","","105","main_expt","",""
"","bandit","187","421338","0.0-147.0-0.0","93844785","wem/bandit_party_1","AEHONA1BIY9JB","either","7","108","","","","","","","0","0","1","","0.3827539061","0.8","0.6","0.4","0.2","0.3827539061","0.3733497125","0.1276639339","0.3295275825","","","","","","","","","","","","","","72","H","0","img/none_selected.jpg","","106","main_expt","",""
"","bandit","188","422938","0.0-148.0-0.0","93844785","wem/bandit_party_1","AEHONA1BIY9JB","either","7","94","","","","","","","0","0","1","0.3401355396","","0.8","0.6","0.4","0.2","","","","","0.3401355396","0.3878439861","0.1812689745","0.3499712774","","","","","","","","","","72","H","0","img/none_selected.jpg","","107","main_expt","",""
"","bandit","189","424587","0.0-149.0-0.0","93844785","wem/bandit_party_1","AEHONA1BIY9JB","either","7","142","","","","","","","1","0","0","0.3258039352","","0.8","0.6","0.4","0.2","","","","","0.3258039352","0.3529013302","0.2187982558","0.2666891207","","","","","","","","","","72","H","0","img/none_selected.jpg","","108","main_expt","",""
"","bandit","190","426147","0.0-150.0-0.0","93844785","wem/bandit_party_1","AEHONA1BIY9JB","either","7","53","","","","","","","0","0","1","0.374919859","","0.8","0.6","0.4","0.2","","","","","0.374919859","0.3457683734","0.2201216928","0.2575067634","","","","","","","","","","72","H","0","img/none_selected.jpg","","109","main_expt","",""
"","bandit","191","427682","0.0-151.0-0.0","93844785","wem/bandit_party_1","AEHONA1BIY9JB","either","7","29","","","","","","","0","0","1","","0.3316873257","0.8","0.6","0.4","0.2","0.3656186065","0.3316873257","0.1789817232","0.2664913793","","","","","","","","","","","","","","74","J","1","","","110","main_expt","",""
"","bandit","192","429713","0.0-152.0-0.0","93844785","wem/bandit_party_1","AEHONA1BIY9JB","either","7","525","","","","","","","0","0","1","0.3649701027","","0.8","0.6","0.4","0.2","","","","","0.3649701027","0.3434945318","0.2404947452","0.2233446911","","","","","","","","","","72","H","0","img/none_selected.jpg","","111","main_expt","",""
"","bandit","193","431299","0.0-153.0-0.0","93844785","wem/bandit_party_1","AEHONA1BIY9JB","either","7","80","","","","","","","0","0","1","0.3371716456","","0.8","0.6","0.4","0.2","","","","","0.3371716456","0.2729480053","0.2959558532","0.2170082082","","","","","","","","","","72","H","0","img/none_selected.jpg","","112","main_expt","",""
"","bandit","194","432971","0.0-154.0-0.0","93844785","wem/bandit_party_1","AEHONA1BIY9JB","either","7","166","","","","","","","0","0","1","0.2587224119","","0.8","0.6","0.4","0.2","","","","","0.2587224119","0.2579672073","0.2966985553","0.1912277411","","","","","","","","","","72","H","0","img/none_selected.jpg","","113","main_expt","",""
"","bandit","195","434572","0.0-155.0-0.0","93844785","wem/bandit_party_1","AEHONA1BIY9JB","either","7","93","","","","","","","0","0","1","0.2384324947","","0.8","0.6","0.4","0.2","","","","","0.2384324947","0.24654084","0.3289730608","0.1691995451","","","","","","","","","","72","H","0","img/none_selected.jpg","","114","main_expt","",""
"","bandit","196","436082","0.0-156.0-0.0","93844785","wem/bandit_party_1","AEHONA1BIY9JB","either","7","3","","","","","","","1","0","0","0.2705755989","","0.8","0.6","0.4","0.2","","","","","0.2705755989","0.246649757","0.2783705844","0.1263730162","","","","","","","","","","72","H","0","img/none_selected.jpg","","115","main_expt","",""
"","bandit","197","438014","0.0-157.0-0.0","93844785","wem/bandit_party_1","AEHONA1BIY9JB","either","7","426","","","","","","","0","0","1","0.2666822","","0.8","0.6","0.4","0.2","","","","","0.2666822","0.2190482835","0.2990421824","0.1130092975","","","","","","","","","","72","H","0","img/none_selected.jpg","","116","main_expt","",""
"","bandit","198","440778","0.0-158.0-0.0","93844785","wem/bandit_party_1","AEHONA1BIY9JB","either","7","1256","","","","","","","0","0","1","0.2664749026","","0.8","0.6","0.4","0.2","","","","","0.2664749026","0.1860086181","0.3214730448","0.1317362661","","","","","","","","","","72","H","0","img/none_selected.jpg","","117","main_expt","",""
"","bandit","199","444314","0.0-159.0-0.0","93844785","wem/bandit_party_1","AEHONA1BIY9JB","either","7","2028","","","","","","","1","0","0","0.285497096","","0.8","0.6","0.4","0.2","","","","","0.285497096","0.1765749983","0.3996160597","0.08460291254","","","","","","","","","","72","H","0","img/none_selected.jpg","","118","main_expt","",""
"","bandit","200","474449","0.0-160.0-0.0","93844785","wem/bandit_party_1","AEHONA1BIY9JB","either","7","28628","","","","","","","0","0","1","0.3004427434","","0.8","0.6","0.4","0.2","","","","","0.3004427434","0.1840588368","0.4143362638","0.09168363065","","","","","","","","","","72","H","0","img/none_selected.jpg","","119","main_expt","",""
"","bandit","201","476081","0.0-161.0-0.0","93844785","wem/bandit_party_1","AEHONA1BIY9JB","either","7","126","","","","","","","0","0","1","0.2419855731","","0.8","0.6","0.4","0.2","","","","","0.2419855731","0.1988357929","0.372340151","0.06729372802","","","","","","","","","","72","H","0","img/none_selected.jpg","","120","main_expt","",""
"","bandit","202","477628","0.0-162.0-0.0","93844785","wem/bandit_party_1","AEHONA1BIY9JB","either","7","41","","","","","","","0","0","1","","0.3054132847","0.8","0.6","0.4","0.2","0.3054132847","0.2315674","0.3910424524","0.08346408207","","","","","","","","","","","","","","72","H","0","img/none_selected.jpg","","121","main_expt","",""
"","bandit","203","479251","0.0-163.0-0.0","93844785","wem/bandit_party_1","AEHONA1BIY9JB","either","7","115","","","","","","","1","0","0","0.2473202095","","0.8","0.6","0.4","0.2","","","","","0.2473202095","0.2041322171","0.3813410711","0.05632743158","","","","","","","","","","72","H","0","img/none_selected.jpg","","122","main_expt","",""
"","bandit","204","480762","0.0-164.0-0.0","93844785","wem/bandit_party_1","AEHONA1BIY9JB","either","7","6","","","","","","","1","0","0","0.2909195989","","0.8","0.6","0.4","0.2","","","","","0.2909195989","0.1945268209","0.4247291795","0.05516745574","","","","","","","","","","72","H","0","img/none_selected.jpg","","123","main_expt","",""
"","bandit","205","482354","0.0-165.0-0.0","93844785","wem/bandit_party_1","AEHONA1BIY9JB","either","7","85","","","","","","","0","0","1","","0.3493750294","0.8","0.6","0.4","0.2","0.3493750294","0.2206749142","0.4311179713","0.05528311039","","","","","","","","","","","","","","72","H","0","img/none_selected.jpg","","124","main_expt","",""
"","bandit","206","483882","0.0-166.0-0.0","93844785","wem/bandit_party_1","AEHONA1BIY9JB","either","7","22","","","","","","","1","0","0","0.3883668019","","0.8","0.6","0.4","0.2","","","","","0.3883668019","0.212012295","0.4085782939","0.07149807259","","","","","","","","","","72","H","0","img/none_selected.jpg","","125","main_expt","",""
"","bandit","207","485466","0.0-167.0-0.0","93844785","wem/bandit_party_1","AEHONA1BIY9JB","either","7","78","","","","","","","0","0","1","0.3888129637","","0.8","0.6","0.4","0.2","","","","","0.3888129637","0.1656684785","0.4110861309","0.1137803622","","","","","","","","","","72","H","0","img/none_selected.jpg","","126","main_expt","",""
"","bandit","208","487099","0.0-168.0-0.0","93844785","wem/bandit_party_1","AEHONA1BIY9JB","either","7","126","","","","","","","0","0","1","0.3659195129","","0.8","0.6","0.4","0.2","","","","","0.3659195129","0.1685301808","0.4214671818","0.1003054442","","","","","","","","","","72","H","0","img/none_selected.jpg","","127","main_expt","",""
"","bandit","209","488760","0.0-169.0-0.0","93844785","wem/bandit_party_1","AEHONA1BIY9JB","either","7","155","","","","","","","1","0","0","0.3689954399","","0.8","0.6","0.4","0.2","","","","","0.3689954399","0.1703551811","0.36889317","0.1378169536","","","","","","","","","","72","H","0","img/none_selected.jpg","","128","main_expt","",""
"","bandit","210","490361","0.0-170.0-0.0","93844785","wem/bandit_party_1","AEHONA1BIY9JB","either","7","95","","","","","","","0","1","0","","0.3600340942","0.8","0.6","0.4","0.2","0.3600340942","0.1624753709","0.3840267129","0.1333081235","","","","","","","","","","","","","","72","H","0","img/none_selected.jpg","","129","main_expt","",""
"","bandit","211","492027","0.0-171.0-0.0","93844785","wem/bandit_party_1","AEHONA1BIY9JB","either","7","161","","","","","","","0","0","1","0.3580797835","","0.8","0.6","0.4","0.2","","","","","0.3580797835","0.2335662737","0.3809677701","0.1682212827","","","","","","","","","","72","H","0","img/none_selected.jpg","","130","main_expt","",""
"","bandit","212","493690","0.0-172.0-0.0","93844785","wem/bandit_party_1","AEHONA1BIY9JB","either","7","157","","","","","","","0","0","1","0.3785893338","","0.8","0.6","0.4","0.2","","","","","0.3785893338","0.240441026","0.3681933818","0.2193829955","","","","","","","","","","72","H","0","img/none_selected.jpg","","131","main_expt","",""
"","bandit","213","495198","0.0-173.0-0.0","93844785","wem/bandit_party_1","AEHONA1BIY9JB","either","7","1","","","","","","","0","0","1","0.3764735404","","0.8","0.6","0.4","0.2","","","","","0.3764735404","0.2266699971","0.3664045944","0.2693349046","","","","","","","","","","72","H","0","img/none_selected.jpg","","132","main_expt","",""
"","bandit","214","496882","0.0-174.0-0.0","93844785","wem/bandit_party_1","AEHONA1BIY9JB","either","7","178","","","","","","","1","0","0","0.3433534211","","0.8","0.6","0.4","0.2","","","","","0.3433534211","0.1994193025","0.4046437197","0.2576546077","","","","","","","","","","72","H","0","img/none_selected.jpg","","133","main_expt","",""
"","bandit","215","498525","0.0-175.0-0.0","93844785","wem/bandit_party_1","AEHONA1BIY9JB","either","7","135","","","","","","","0","0","1","0.3606247271","","0.8","0.6","0.4","0.2","","","","","0.3606247271","0.1891464922","0.364490756","0.2412372273","","","","","","","","","","72","H","0","img/none_selected.jpg","","134","main_expt","",""
"","bandit","216","500154","0.0-176.0-0.0","93844785","wem/bandit_party_1","AEHONA1BIY9JB","either","7","123","","","","","","","0","0","1","","0.3268624306","0.8","0.6","0.4","0.2","0.3268624306","0.1614798668","0.311914316","0.2198641054","","","","","","","","","","","","","","72","H","0","img/none_selected.jpg","","135","main_expt","",""
"","bandit","217","501779","0.0-177.0-0.0","93844785","wem/bandit_party_1","AEHONA1BIY9JB","either","7","119","","","","","","","0","0","1","0.2854606769","","0.8","0.6","0.4","0.2","","","","","0.2854606769","0.1880386222","0.2653901568","0.2504132697","","","","","","","","","","72","H","0","img/none_selected.jpg","","136","main_expt","",""
"","bandit","218","505122","0.0-178.0-0.0","93844785","wem/bandit_party_1","AEHONA1BIY9JB","either","7","1837","","","","","","","0","1","0","","0.3311747399","0.8","0.6","0.4","0.2","0.3311747399","0.1961818793","0.2413295316","0.1912230989","","","","","","","","","","","","","","72","H","0","img/none_selected.jpg","","137","main_expt","",""
"","bandit","219","506684","0.0-179.0-0.0","93844785","wem/bandit_party_1","AEHONA1BIY9JB","either","7","55","","","","","","","0","0","1","0.2570785188","","0.8","0.6","0.4","0.2","","","","","0.2570785188","0.2857678963","0.2060295423","0.1576256809","","","","","","","","","","72","H","0","img/none_selected.jpg","","138","main_expt","",""
"","bandit","220","508322","0.0-180.0-0.0","93844785","wem/bandit_party_1","AEHONA1BIY9JB","either","7","132","","","","","","","0","0","1","0.2858060749","","0.8","0.6","0.4","0.2","","","","","0.2858060749","0.3449131854","0.1809645164","0.1019788138","","","","","","","","","","72","H","0","img/none_selected.jpg","","139","main_expt","",""
"","bandit","221","509954","0.0-181.0-0.0","93844785","wem/bandit_party_1","AEHONA1BIY9JB","either","7","127","","","","","","","0","0","1","0.2975559752","","0.8","0.6","0.4","0.2","","","","","0.2975559752","0.2537716732","0.1843216893","0.07754087054","","","","","","","","","","72","H","0","img/none_selected.jpg","","140","main_expt","",""
"","bandit","222","511463","0.0-182.0-0.0","93844785","wem/bandit_party_1","AEHONA1BIY9JB","either","7","0","","","","","","","0","0","1","0.2802168405","","0.8","0.6","0.4","0.2","","","","","0.2802168405","0.2858111263","0.1651876155","0.09489610577","","","","","","","","","","72","H","0","img/none_selected.jpg","","141","main_expt","",""
"","bandit","223","512997","0.0-183.0-0.0","93844785","wem/bandit_party_1","AEHONA1BIY9JB","either","7","27","","","","","","","0","0","1","0.2231986748","","0.8","0.6","0.4","0.2","","","","","0.2231986748","0.303049367","0.1536427928","0.09601428546","","","","","","","","","","72","H","0","img/none_selected.jpg","","142","main_expt","",""
"","bandit","224","514668","0.0-184.0-0.0","93844785","wem/bandit_party_1","AEHONA1BIY9JB","either","7","163","","","","","","","0","0","1","0.2032880393","","0.8","0.6","0.4","0.2","","","","","0.2032880393","0.2969419413","0.1546140226","0.08301142993","","","","","","","","","","72","H","0","img/none_selected.jpg","","143","main_expt","",""
"","bandit","225","516230","0.0-185.0-0.0","93844785","wem/bandit_party_1","AEHONA1BIY9JB","either","7","55","","","","","","","0","0","1","0.1967741464","","0.8","0.6","0.4","0.2","","","","","0.1967741464","0.3128690494","0.1746031107","0.09599686985","","","","","","","","","","72","H","0","img/none_selected.jpg","","144","main_expt","",""
"","bandit","226","518215","0.0-186.0-0.0","93844785","wem/bandit_party_1","AEHONA1BIY9JB","either","7","477","","","","","","","0","0","1","","0.2283154954","0.8","0.6","0.4","0.2","0.2283154954","0.2991796355","0.2021387556","0.07499383622","","","","","","","","","","","","","","72","H","0","img/none_selected.jpg","","145","main_expt","",""
"","bandit","227","519772","0.0-187.0-0.0","93844785","wem/bandit_party_1","AEHONA1BIY9JB","either","7","49","","","","","","","0","0","1","","0.2118700154","0.8","0.6","0.4","0.2","0.2118700154","0.3163763193","0.2504344391","0.09566861","","","","","","","","","","","","","","72","H","0","img/none_selected.jpg","","146","main_expt","",""
"","bandit","228","521308","0.0-188.0-0.0","93844785","wem/bandit_party_1","AEHONA1BIY9JB","either","7","29","","","","","","","0","0","1","0.210437557","","0.8","0.6","0.4","0.2","","","","","0.210437557","0.3198025905","0.2437718569","0.08578591382","","","","","","","","","","72","H","0","img/none_selected.jpg","","147","main_expt","",""
"","bandit","229","522842","0.0-189.0-0.0","93844785","wem/bandit_party_1","AEHONA1BIY9JB","either","7","26","","","","","","","0","0","1","0.2370661354","","0.8","0.6","0.4","0.2","","","","","0.2370661354","0.2588245921","0.2446677265","0.1147887709","","","","","","","","","","72","H","0","img/none_selected.jpg","","148","main_expt","",""
"","bandit","230","528123","0.0-190.0-0.0","93844785","wem/bandit_party_1","AEHONA1BIY9JB","either","7","3773","","","","","","","1","0","0","0.2430363771","","0.8","0.6","0.4","0.2","","","","","0.2430363771","0.248712437","0.2911002833","0.1378203382","","","","","","","","","","72","H","0","img/none_selected.jpg","","149","main_expt","",""
"","bandit","231","529643","0.0-191.0-0.0","93844785","wem/bandit_party_1","AEHONA1BIY9JB","either","7","13","","","","","","","0","0","1","","0.2242182381","0.8","0.6","0.4","0.2","0.2242182381","0.179144869","0.3529655025","0.1414499273","","","","","","","","","","","","","","72","H","0","img/none_selected.jpg","","150","main_expt","",""
"","bandit","232","531180","0.0-192.0-0.0","93844785","wem/bandit_party_1","AEHONA1BIY9JB","either","7","31","","","","","","","0","1","0","","0.1997145133","0.8","0.6","0.4","0.2","0.1997145133","0.1545669956","0.3885741111","0.07852348772","","","","","","","","","","","","","","72","H","0","img/none_selected.jpg","","151","main_expt","",""
"","bandit","233","532810","0.0-193.0-0.0","93844785","wem/bandit_party_1","AEHONA1BIY9JB","either","7","123","","","","","","","0","0","1","0.2195927633","","0.8","0.6","0.4","0.2","","","","","0.2195927633","0.1651714415","0.3690499696","0.08485793113","","","","","","","","","","72","H","0","img/none_selected.jpg","","152","main_expt","",""
"","bandit","234","534323","0.0-194.0-0.0","93844785","wem/bandit_party_1","AEHONA1BIY9JB","either","7","7","","","","","","","0","0","1","","0.2121816628","0.8","0.6","0.4","0.2","0.2121816628","0.2396245514","0.3710492515","0.1083789561","","","","","","","","","","","","","","72","H","0","img/none_selected.jpg","","153","main_expt","",""
"","bandit","235","535892","0.0-195.0-0.0","93844785","wem/bandit_party_1","AEHONA1BIY9JB","either","7","62","","","","","","","0","0","1","0.1830588608","","0.8","0.6","0.4","0.2","","","","","0.1830588608","0.2085838567","0.3483335413","0.109098481","","","","","","","","","","72","H","0","img/none_selected.jpg","","154","main_expt","",""
"","bandit","236","608665","0.0-196.0-0.0","93844785","wem/bandit_party_1","AEHONA1BIY9JB","either","7","71264","","","","","","","0","0","1","0.2031423662","","0.8","0.6","0.4","0.2","","","","","0.2031423662","0.1864274254","0.3343760247","0.1758262092","","","","","","","","","","72","H","0","img/none_selected.jpg","","155","main_expt","",""
"","bandit","237","620000","0.0-197.0-0.0","93844785","wem/bandit_party_1","AEHONA1BIY9JB","either","7","9827","","","","","","","1","0","0","0.2022731065","","0.8","0.6","0.4","0.2","","","","","0.2022731065","0.1750870897","0.3742013553","0.2046597001","","","","","","","","","","72","H","0","img/none_selected.jpg","","156","main_expt","",""
"","bandit","238","621618","0.0-198.0-0.0","93844785","wem/bandit_party_1","AEHONA1BIY9JB","either","7","112","","","","","","","0","0","1","0.1826661219","","0.8","0.6","0.4","0.2","","","","","0.1826661219","0.1321985386","0.3620366094","0.1774751899","","","","","","","","","","72","H","0","img/none_selected.jpg","","157","main_expt","",""
"","bandit","239","623217","0.0-199.0-0.0","93844785","wem/bandit_party_1","AEHONA1BIY9JB","either","7","91","","","","","","","0","0","1","0.1658993888","","0.8","0.6","0.4","0.2","","","","","0.1658993888","0.1341899746","0.3671714071","0.1612033886","","","","","","","","","","72","H","0","img/none_selected.jpg","","158","main_expt","",""
"","bandit","240","627817","0.0-200.0-0.0","93844785","wem/bandit_party_1","AEHONA1BIY9JB","either","7","3094","","","","","","","1","0","0","0.1620079643","","0.8","0.6","0.4","0.2","","","","","0.1620079643","0.1567784951","0.4015988616","0.1586838935","","","","","","","","","","72","H","0","img/none_selected.jpg","","159","main_expt","",""
"","bandit","241","629401","0.0-201.0-0.0","93844785","wem/bandit_party_1","AEHONA1BIY9JB","either","7","77","","","","","","","0","0","1","","0.2453635642","0.8","0.6","0.4","0.2","0.2453635642","0.1615549635","0.4004877553","0.2159944071","","","","","","","","","","","","","","72","H","0","img/none_selected.jpg","","160","main_expt","",""
"","bandit","242","631025","0.0-202.0-0.0","93844785","wem/bandit_party_1","AEHONA1BIY9JB","either","7","118","","","","","","","0","0","1","","0.2456373749","0.8","0.6","0.4","0.2","0.2456373749","0.1854631015","0.4095849454","0.2105769377","","","","","","","","","","","","","","72","H","0","img/none_selected.jpg","","161","main_expt","",""
"","bandit","243","632625","0.0-203.0-0.0","93844785","wem/bandit_party_1","AEHONA1BIY9JB","either","7","92","","","","","","","0","0","1","0.2460125232","","0.8","0.6","0.4","0.2","","","","","0.2460125232","0.21229469","0.3978002783","0.2006925765","","","","","","","","","","72","H","0","img/none_selected.jpg","","162","main_expt","",""
"","bandit","244","634258","0.0-204.0-0.0","93844785","wem/bandit_party_1","AEHONA1BIY9JB","either","7","125","","","","","","","0","1","0","","0.162194177","0.8","0.6","0.4","0.2","0.2013568893","0.162194177","0.4180552148","0.2365124807","","","","","","","","","","","","","","74","J","1","","","163","main_expt","",""
"","bandit","245","635808","0.0-205.0-0.0","93844785","wem/bandit_party_1","AEHONA1BIY9JB","either","7","44","","","","","","","0","0","1","0.1535707797","","0.8","0.6","0.4","0.2","","","","","0.1933595846","0.1535707797","0.4407560021","0.2157370886","","","","","","","","","","74","J","1","","","164","main_expt","",""
"","bandit","246","637403","0.0-206.0-0.0","93844785","wem/bandit_party_1","AEHONA1BIY9JB","either","7","87","","","","","","","0","0","1","0.167552211","","0.8","0.6","0.4","0.2","","","","","0.167552211","0.2315934193","0.4582960521","0.2166787898","","","","","","","","","","72","H","0","img/none_selected.jpg","","165","main_expt","",""
"","bandit","247","638977","0.0-207.0-0.0","93844785","wem/bandit_party_1","AEHONA1BIY9JB","either","7","67","","","","","","","0","0","1","0.1311237951","","0.8","0.6","0.4","0.2","","","","","0.1311237951","0.2579087381","0.4337500892","0.1846262972","","","","","","","","","","72","H","0","img/none_selected.jpg","","166","main_expt","",""
"","bandit","248","640585","0.0-208.0-0.0","93844785","wem/bandit_party_1","AEHONA1BIY9JB","either","7","100","","","","","","","0","0","1","0.4537582576","","0.8","0.6","0.4","0.2","","","","","0.1714029316","0.2496457694","0.4537582576","0.1888750078","","","","","","","","","","75","K","2","","","167","main_expt","",""
"","bandit","249","642093","0.0-209.0-0.0","93844785","wem/bandit_party_1","AEHONA1BIY9JB","either","7","1","","","","","","","0","0","1","0.1494402723","","0.8","0.6","0.4","0.2","","","","","0.1494402723","0.234558796","0.4473485534","0.2315683769","","","","","","","","","","72","H","0","img/none_selected.jpg","","168","main_expt","",""
"","bandit","250","643667","0.0-210.0-0.0","93844785","wem/bandit_party_1","AEHONA1BIY9JB","either","7","66","","","","","","","0","0","1","0.2458600006","","0.8","0.6","0.4","0.2","","","","","0.1819888556","0.2458600006","0.4471591033","0.2018123945","","","","","","","","","","74","J","1","","","169","main_expt","",""
"","bandit","251","645257","0.0-211.0-0.0","93844785","wem/bandit_party_1","AEHONA1BIY9JB","either","7","85","","","","","","","0","0","1","0.139238222","","0.8","0.6","0.4","0.2","","","","","0.2329206984","0.2214583157","0.4581839475","0.139238222","","","","","","","","","","76","L","3","","","170","main_expt","",""
"","bandit","252","647057","0.0-212.0-0.0","93844785","wem/bandit_party_1","AEHONA1BIY9JB","either","7","292","","","","","","","0","0","1","","0.2000607923","0.8","0.6","0.4","0.2","0.2000607923","0.296208115","0.4674995421","0.1466511374","","","","","","","","","","","","","","72","H","0","img/none_selected.jpg","","171","main_expt","",""
"","bandit","253","648642","0.0-213.0-0.0","93844785","wem/bandit_party_1","AEHONA1BIY9JB","either","7","79","","","","","","","1","0","0","0.3062379281","","0.8","0.6","0.4","0.2","","","","","0.2342957318","0.3062379281","0.4455620345","0.1348290388","","","","","","","","","","74","J","1","","","172","main_expt","",""
"","bandit","254","650186","0.0-214.0-0.0","93844785","wem/bandit_party_1","AEHONA1BIY9JB","either","7","36","","","","","","","0","0","1","0.2498067723","","0.8","0.6","0.4","0.2","","","","","0.2189308077","0.2498067723","0.4471610379","0.1521691919","","","","","","","","","","74","J","1","","","173","main_expt","",""
"","bandit","255","651803","0.0-215.0-0.0","93844785","wem/bandit_party_1","AEHONA1BIY9JB","either","7","110","","","","","","","0","0","1","","0.4496576915","0.8","0.6","0.4","0.2","0.2373932689","0.1803522277","0.4496576915","0.2191935525","","","","","","","","","","","","","","75","K","2","","","174","main_expt","",""
"","bandit","256","653377","0.0-216.0-0.0","93844785","wem/bandit_party_1","AEHONA1BIY9JB","either","7","67","","","","","","","0","0","1","0.2160264752","","0.8","0.6","0.4","0.2","","","","","0.2160264752","0.2014319342","0.4715297358","0.219961305","","","","","","","","","","72","H","0","img/none_selected.jpg","","175","main_expt","",""
"","bandit","257","654954","0.0-217.0-0.0","93844785","wem/bandit_party_1","AEHONA1BIY9JB","either","7","69","","","","","","","1","0","0","0.1990604306","","0.8","0.6","0.4","0.2","","","","","0.1990604306","0.2122003168","0.477956151","0.1882485239","","","","","","","","","","72","H","0","img/none_selected.jpg","","176","main_expt","",""
"","bandit","258","656609","0.0-218.0-0.0","93844785","wem/bandit_party_1","AEHONA1BIY9JB","either","7","149","","","","","","","0","0","1","","0.1729978196","0.8","0.6","0.4","0.2","0.1729978196","0.2629069455","0.4563721206","0.1644902553","","","","","","","","","","","","","","72","H","0","img/none_selected.jpg","","177","main_expt","",""
"","bandit","259","658834","0.0-219.0-0.0","93844785","wem/bandit_party_1","AEHONA1BIY9JB","either","7","717","","","","","","","0","0","1","0.1633080779","","0.8","0.6","0.4","0.2","","","","","0.1633080779","0.2336104206","0.4409869931","0.1713669852","","","","","","","","","","72","H","0","img/none_selected.jpg","","178","main_expt","",""
"","bandit","260","660362","0.0-220.0-0.0","93844785","wem/bandit_party_1","AEHONA1BIY9JB","either","7","20","","","","","","","0","0","1","0.1243251356","","0.8","0.6","0.4","0.2","","","","","0.1243251356","0.1887504226","0.4243126063","0.2263400462","","","","","","","","","","72","H","0","img/none_selected.jpg","","179","main_expt","",""
"","bandit","261","661978","0.0-221.0-0.0","93844785","wem/bandit_party_1","AEHONA1BIY9JB","either","7","109","","","","","","","0","0","1","0.1150149055","","0.8","0.6","0.4","0.2","","","","","0.1150149055","0.138376641","0.4312830743","0.2036870175","","","","","","","","","","72","H","0","img/none_selected.jpg","","180","main_expt","",""
"","bandit","262","663563","0.0-222.0-0.0","93844785","wem/bandit_party_1","AEHONA1BIY9JB","either","7","77","","","","","","","0","0","1","0.1407924877","","0.8","0.6","0.4","0.2","","","","","0.1407924877","0.1883992559","0.4433127893","0.1934599198","","","","","","","","","","72","H","0","img/none_selected.jpg","","181","main_expt","",""
"","bandit","263","665219","0.0-223.0-0.0","93844785","wem/bandit_party_1","AEHONA1BIY9JB","either","7","149","","","","","","","0","0","1","0.09672650852","","0.8","0.6","0.4","0.2","","","","","0.09672650852","0.128889003","0.440136403","0.2424515525","","","","","","","","","","72","H","0","img/none_selected.jpg","","182","main_expt","",""
"","bandit","264","666826","0.0-224.0-0.0","93844785","wem/bandit_party_1","AEHONA1BIY9JB","either","7","100","","","","","","","0","0","1","0.09888002855","","0.8","0.6","0.4","0.2","","","","","0.09888002855","0.1748769843","0.4347693449","0.1961777535","","","","","","","","","","72","H","0","img/none_selected.jpg","","183","main_expt","",""
"","bandit","265","668482","0.0-225.0-0.0","93844785","wem/bandit_party_1","AEHONA1BIY9JB","either","7","149","","","","","","","0","0","1","0.07200145298","","0.8","0.6","0.4","0.2","","","","","0.07200145298","0.1945994373","0.4277130926","0.1489283113","","","","","","","","","","72","H","0","img/none_selected.jpg","","184","main_expt","",""
"","bandit","266","671713","0.0-226.0-0.0","93844785","wem/bandit_party_1","AEHONA1BIY9JB","either","7","1723","","","","","","","0","0","1","0.09476413333","","0.8","0.6","0.4","0.2","","","","","0.09476413333","0.1644748654","0.3956248437","0.1499965078","","","","","","","","","","72","H","0","img/none_selected.jpg","","185","main_expt","",""
"","bandit","267","673355","0.0-227.0-0.0","93844785","wem/bandit_party_1","AEHONA1BIY9JB","either","7","134","","","","","","","0","0","1","0.06556422103","","0.8","0.6","0.4","0.2","","","","","0.06556422103","0.1504635592","0.3748928266","0.2169832988","","","","","","","","","","72","H","0","img/none_selected.jpg","","186","main_expt","",""
"","bandit","268","675752","0.0-228.0-0.0","93844785","wem/bandit_party_1","AEHONA1BIY9JB","either","7","890","","","","","","","1","0","0","0.08901149072","","0.8","0.6","0.4","0.2","","","","","0.08901149072","0.1760039214","0.3848139325","0.2655186329","","","","","","","","","","72","H","0","img/none_selected.jpg","","187","main_expt","",""
"","bandit","269","684448","0.0-229.0-0.0","93844785","wem/bandit_party_1","AEHONA1BIY9JB","either","7","7189","","","","","","","0","0","1","0.09471428588","","0.8","0.6","0.4","0.2","","","","","0.09471428588","0.1203267588","0.3990176401","0.2738785118","","","","","","","","","","72","H","0","img/none_selected.jpg","","188","main_expt","",""
"","bandit","270","686067","0.0-230.0-0.0","93844785","wem/bandit_party_1","AEHONA1BIY9JB","either","7","111","","","","","","","0","0","1","0.05118235823","","0.8","0.6","0.4","0.2","","","","","0.05118235823","0.1171540391","0.3581396838","0.3041874674","","","","","","","","","","72","H","0","img/none_selected.jpg","","189","main_expt","",""
"","bandit","271","687626","0.0-231.0-0.0","93844785","wem/bandit_party_1","AEHONA1BIY9JB","either","7","52","","","","","","","0","0","1","0.05788318751","","0.8","0.6","0.4","0.2","","","","","0.05788318751","0.1535230761","0.2882972244","0.3229453735","","","","","","","","","","72","H","0","img/none_selected.jpg","","190","main_expt","",""
"","bandit","272","689140","0.0-232.0-0.0","93844785","wem/bandit_party_1","AEHONA1BIY9JB","either","7","6","","","","","","","0","0","1","0.08736915481","","0.8","0.6","0.4","0.2","","","","","0.08736915481","0.1372750947","0.3145326233","0.3818249757","","","","","","","","","","72","H","0","img/none_selected.jpg","","191","main_expt","",""
"","bandit","273","690753","0.0-233.0-0.0","93844785","wem/bandit_party_1","AEHONA1BIY9JB","either","7","106","","","","","","","0","0","1","0.08251019118","","0.8","0.6","0.4","0.2","","","","","0.08251019118","0.1047771501","0.3270603702","0.4157726243","","","","","","","","","","72","H","0","img/none_selected.jpg","","192","main_expt","",""
"","bandit","274","692261","0.0-234.0-0.0","93844785","wem/bandit_party_1","AEHONA1BIY9JB","either","7","1","","","","","","","0","0","1","0.06897628064","","0.8","0.6","0.4","0.2","","","","","0.06897628064","0.1100845432","0.3604030797","0.4611608212","","","","","","","","","","72","H","0","img/none_selected.jpg","","193","main_expt","",""
"","bandit","275","693929","0.0-235.0-0.0","93844785","wem/bandit_party_1","AEHONA1BIY9JB","either","7","161","","","","","","","0","0","1","","0.1468163818","0.8","0.6","0.4","0.2","0.06801266305","0.1468163818","0.357423186","0.4508818777","","","","","","","","","","","","","","74","J","1","","","194","main_expt","",""
"","bandit","276","695562","0.0-236.0-0.0","93844785","wem/bandit_party_1","AEHONA1BIY9JB","either","7","126","","","","","","","0","0","1","","0.3697779856","0.8","0.6","0.4","0.2","0.09923709358","0.1495594621","0.3697779856","0.4278921451","","","","","","","","","","","","","","75","K","2","","","195","main_expt","",""
"","bandit","277","697193","0.0-237.0-0.0","93844785","wem/bandit_party_1","AEHONA1BIY9JB","either","7","123","","","","","","","0","1","0","","0.4256293003","0.8","0.6","0.4","0.2","0.1103063831","0.2263220537","0.3617177512","0.4256293003","","","","","","","","","","","","","","76","L","3","","","196","main_expt","",""
"","bandit","278","698755","0.0-238.0-0.0","93844785","wem/bandit_party_1","AEHONA1BIY9JB","either","7","54","","","","","","","1","0","0","0.4476975038","","0.8","0.6","0.4","0.2","","","","","0.07377144043","0.2204718804","0.3775990084","0.4476975038","","","","","","","","","","76","L","3","","","197","main_expt","",""
"","bandit","279","700354","0.0-239.0-0.0","93844785","wem/bandit_party_1","AEHONA1BIY9JB","either","7","93","","","","","","","0","0","1","","0.4434357272","0.8","0.6","0.4","0.2","0.08863448313","0.2401118457","0.4144042571","0.4434357272","","","","","","","","","","","","","","76","L","3","","","198","main_expt","",""
"","bandit","280","701861","0.0-240.0-0.0","93844785","wem/bandit_party_1","AEHONA1BIY9JB","either","7","1","","","","","","","0","1","0","","0.4245114622","0.8","0.6","0.4","0.2","0.1082179128","0.2673724497","0.4081775392","0.4245114622","","","","","","","","","","","","","","76","L","3","","","199","main_expt","",""
"","bandit","281","703450","0.0-241.0-0.0","93844785","wem/bandit_party_1","AEHONA1BIY9JB","either","7","81","","","","","","","0","0","1","","0.4087100315","0.8","0.6","0.4","0.2","0.09350688576","0.3125307902","0.4166156547","0.4087100315","","","","","","","","","","","","","","76","L","3","","","200","main_expt","",""
"","bandit","282","705058","0.0-242.0-0.0","93844785","wem/bandit_party_1","AEHONA1BIY9JB","either","7","96","","","","","","","0","0","1","0.4361521275","","0.8","0.6","0.4","0.2","","","","","0.1036625099","0.2914574258","0.4306537176","0.4361521275","","","","","","","","","","76","L","3","","","201","main_expt","",""
"","bandit","283","706664","0.0-243.0-0.0","93844785","wem/bandit_party_1","AEHONA1BIY9JB","either","7","97","","","","","","","0","0","1","","0.3332596158","0.8","0.6","0.4","0.2","0.1216733889","0.2550600684","0.449382563","0.3332596158","","","","","","","","","","","","","","76","L","3","","","202","main_expt","",""
"","bandit","284","708352","0.0-244.0-0.0","93844785","wem/bandit_party_1","AEHONA1BIY9JB","either","7","182","","","","","","","0","0","1","","0.3581848779","0.8","0.6","0.4","0.2","0.120655788","0.2769745997","0.4506576586","0.3581848779","","","","","","","","","","","","","","76","L","3","","","203","main_expt","",""
"","bandit","285","709963","0.0-245.0-0.0","93844785","wem/bandit_party_1","AEHONA1BIY9JB","either","7","103","","","","","","","0","0","1","","0.1082970726","0.8","0.6","0.4","0.2","0.1082970726","0.2752990059","0.454839243","0.3597133043","","","","","","","","","","","","","","72","H","0","img/none_selected.jpg","","204","main_expt","",""
"","bandit","286","712896","0.0-246.0-0.0","93844785","wem/bandit_party_1","AEHONA1BIY9JB","either","7","1426","","","","","","","0","0","1","0.09143681274","","0.8","0.6","0.4","0.2","","","","","0.09143681274","0.2901512169","0.4512889682","0.3630183988","","","","","","","","","","72","H","0","img/none_selected.jpg","","205","main_expt","",""
"","bandit","287","714481","0.0-247.0-0.0","93844785","wem/bandit_party_1","AEHONA1BIY9JB","either","7","78","","","","","","","0","0","1","0.08377413986","","0.8","0.6","0.4","0.2","","","","","0.08377413986","0.2823763913","0.4591490044","0.3737494834","","","","","","","","","","72","H","0","img/none_selected.jpg","","206","main_expt","",""
"","bandit","288","716002","0.0-248.0-0.0","93844785","wem/bandit_party_1","AEHONA1BIY9JB","either","7","14","","","","","","","0","0","1","0.1585073664","","0.8","0.6","0.4","0.2","","","","","0.1585073664","0.2708062506","0.4650593633","0.3668784438","","","","","","","","","","72","H","0","img/none_selected.jpg","","207","main_expt","",""
"","bandit","289","717835","0.0-249.0-0.0","93844785","wem/bandit_party_1","AEHONA1BIY9JB","either","7","323","","","","","","","0","0","1","0.162299901","","0.8","0.6","0.4","0.2","","","","","0.162299901","0.2641553663","0.4641513068","0.4045351895","","","","","","","","","","72","H","0","img/none_selected.jpg","","208","main_expt","",""
"","bandit","290","722257","0.0-250.0-0.0","93844785","wem/bandit_party_1","AEHONA1BIY9JB","either","7","2914","","","","","","","0","0","1","","0.1542266077","0.8","0.6","0.4","0.2","0.1542266077","0.2704675845","0.4567807332","0.4402386934","","","","","","","","","","","","","","72","H","0","img/none_selected.jpg","","209","main_expt","",""
"","bandit","291","723874","0.0-251.0-0.0","93844785","wem/bandit_party_1","AEHONA1BIY9JB","either","7","111","","","","","","","0","0","1","","0.1890415559","0.8","0.6","0.4","0.2","0.1890415559","0.3420868926","0.428253188","0.4483623408","","","","","","","","","","","","","","72","H","0","img/none_selected.jpg","","210","main_expt","",""
"","bandit","292","725467","0.0-252.0-0.0","93844785","wem/bandit_party_1","AEHONA1BIY9JB","either","7","85","","","","","","","0","0","1","","0.3069688952","0.8","0.6","0.4","0.2","0.1818133019","0.3069688952","0.410271385","0.4471415093","","","","","","","","","","","","","","74","J","1","","","211","main_expt","",""
"","bandit","293","726986","0.0-253.0-0.0","93844785","wem/bandit_party_1","AEHONA1BIY9JB","either","7","13","","","","","","","1","0","0","0.4065587724","","0.8","0.6","0.4","0.2","","","","","0.1782747956","0.3005379093","0.4065587724","0.4374655127","","","","","","","","","","75","K","2","","","212","main_expt","",""
"","bandit","294","728495","0.0-254.0-0.0","93844785","wem/bandit_party_1","AEHONA1BIY9JB","either","7","2","","","","","","","0","1","0","","0.4007116542","0.8","0.6","0.4","0.2","0.1935195711","0.213882915","0.4007116542","0.4381457257","","","","","","","","","","","","","","75","K","2","","","213","main_expt","",""
"","bandit","295","730115","0.0-255.0-0.0","93844785","wem/bandit_party_1","AEHONA1BIY9JB","either","7","112","","","","","","","0","0","1","0.4246209323","","0.8","0.6","0.4","0.2","","","","","0.2421176173","0.2138557204","0.4246209323","0.4643769008","","","","","","","","","","75","K","2","","","214","main_expt","",""
"","bandit","296","735170","0.0-256.0-0.0","93844785","wem/bandit_party_1","AEHONA1BIY9JB","either","7","3546","","","","","","","0","0","1","0.2629876012","","0.8","0.6","0.4","0.2","","","","","0.2629876012","0.2142566612","0.3993057066","0.4328812357","","","","","","","","","","72","H","0","img/none_selected.jpg","","215","main_expt","",""
"","bandit","297","736915","0.0-257.0-0.0","93844785","wem/bandit_party_1","AEHONA1BIY9JB","either","7","235","","","","","","","0","0","1","0.2977714141","","0.8","0.6","0.4","0.2","","","","","0.2977714141","0.1900351118","0.3987772474","0.4064507999","","","","","","","","","","72","H","0","img/none_selected.jpg","","216","main_expt","",""
"","bandit","298","738444","0.0-258.0-0.0","93844785","wem/bandit_party_1","AEHONA1BIY9JB","either","7","22","","","","","","","0","0","1","0.3017601552","","0.8","0.6","0.4","0.2","","","","","0.3017601552","0.2185169477","0.4101433534","0.4197961641","","","","","","","","","","72","H","0","img/none_selected.jpg","","217","main_expt","",""
"","bandit","299","741050","0.0-259.0-0.0","93844785","wem/bandit_party_1","AEHONA1BIY9JB","either","7","1098","","","","","","","0","0","1","0.2888566207","","0.8","0.6","0.4","0.2","","","","","0.2888566207","0.2240895604","0.4448029092","0.4167397569","","","","","","","","","","72","H","0","img/none_selected.jpg","","218","main_expt","",""
"","bandit","300","742619","0.0-260.0-0.0","93844785","wem/bandit_party_1","AEHONA1BIY9JB","either","7","60","","","","","","","0","0","1","0.1990808675","","0.8","0.6","0.4","0.2","","","","","0.2844008008","0.1990808675","0.4454766299","0.4250944588","","","","","","","","","","74","J","1","","","219","main_expt","",""
"","bandit","301","746850","0.0-261.0-0.0","93844785","wem/bandit_party_1","AEHONA1BIY9JB","either","7","2723","","","","","","","0","0","1","0.2225062479","","0.8","0.6","0.4","0.2","","","","","0.2225062479","0.266602996","0.4610997771","0.4173336587","","","","","","","","","","72","H","0","img/none_selected.jpg","","220","main_expt","",""
"","bandit","302","748397","0.0-262.0-0.0","93844785","wem/bandit_party_1","AEHONA1BIY9JB","either","7","35","","","","","","","0","0","1","0.2409900116","","0.8","0.6","0.4","0.2","","","","","0.2409900116","0.2443661227","0.4642289789","0.3944711005","","","","","","","","","","72","H","0","img/none_selected.jpg","","221","main_expt","",""
"","bandit","303","749948","0.0-263.0-0.0","93844785","wem/bandit_party_1","AEHONA1BIY9JB","either","7","44","","","","","","","0","0","1","0.1989678636","","0.8","0.6","0.4","0.2","","","","","0.1989678636","0.2205922116","0.4641270597","0.3619306912","","","","","","","","","","72","H","0","img/none_selected.jpg","","222","main_expt","",""
"","bandit","304","752288","0.0-264.0-0.0","93844785","wem/bandit_party_1","AEHONA1BIY9JB","either","7","832","","","","","","","0","0","1","0.1902867071","","0.8","0.6","0.4","0.2","","","","","0.1902867071","0.1861223506","0.4697433819","0.4117842179","","","","","","","","","","72","H","0","img/none_selected.jpg","","223","main_expt","",""
"","bandit","305","753943","0.0-265.0-0.0","93844785","wem/bandit_party_1","AEHONA1BIY9JB","either","7","147","","","","","","","0","0","1","","0.1668884863","0.8","0.6","0.4","0.2","0.2076415522","0.1668884863","0.460898083","0.3965092367","","","","","","","","","","","","","","74","J","1","","","224","main_expt","",""
"","bandit","306","756529","0.0-266.0-0.0","93844785","wem/bandit_party_1","AEHONA1BIY9JB","either","7","1078","","","","","","","0","1","0","","0.2393469174","0.8","0.6","0.4","0.2","0.2393469174","0.1481472712","0.4394890665","0.4084477862","","","","","","","","","","","","","","72","H","0","img/none_selected.jpg","","225","main_expt","",""
