"consent","trial_type","trial_index","time_elapsed","internal_node_id","subjID","study","MID","cond","drift","rt","responses","button_pressed","key_press","like","value","connected","gems","bombs","no_reward","GemPrChosen","BombPrChosen","GainOverPainPr_0","GainOverPainPr_1","GainOverPainPr_2","GainOverPainPr_3","LosePr_0","LosePr_1","LosePr_2","LosePr_3","WinPr_0","WinPr_1","WinPr_2","WinPr_3","Q0","Q1","Q2","gender","age","ethnicity","label","expt_phase","target","respCharCode","respKey","respChoiceNum","respChoice","practice","trial_counter","trial_label","Q0_index","view_history"
"GDM/GDM_behavioral_consent_30min_online.html","consent","0","9281","0.0-0.0","94384072","wem/bandit_party_1","A3QAHF4UUBM7ZO","either","8","","","","","","","","","","","","","","","","","","","","","","","","","","","","","","","","","","","","","","","","","",""
"","survey-text","1","15462","0.0-1.0","94384072","wem/bandit_party_1","A3QAHF4UUBM7ZO","either","8","5175","{""Q0"":""A3QAHF4UUBM7ZO""}","","","","","","","","","","","","","","","","","","","","","","","","","","","","","","","","","","","","","","","",""
"","button-response","2","21770","0.0-2.0","94384072","wem/bandit_party_1","A3QAHF4UUBM7ZO","either","8","5303","","1","","","","","","","","","","","","","","","","","","","","","","","","","","","","","","","","","","","","","","",""
"","text-replacement","3","31651","0.0-3.0","94384072","wem/bandit_party_1","A3QAHF4UUBM7ZO","either","8","8876","","","32","","","","","","","","","","","","","","","","","","","","","","","","","","","","","","","","","","","","","",""
"","text-replacement","4","34021","0.0-4.0","94384072","wem/bandit_party_1","A3QAHF4UUBM7ZO","either","8","2368","","","32","","","","","","","","","","","","","","","","","","","","","","","","","","","","","","","","","","","","","",""
"","identification","5","40259","0.0-6.0-0.0","94384072","wem/bandit_party_1","A3QAHF4UUBM7ZO","either","8","6227","","","","0","0","0","","","","","","","","","","","","","","","","","","","","","","","","pre","identification_pre","the Republican party","","","","","","","","",""
"","identification","6","54849","0.0-6.0-1.0","94384072","wem/bandit_party_1","A3QAHF4UUBM7ZO","either","8","13578","","","","3","3","3","","","","","","","","","","","","","","","","","","","","","","","","pre","identification_pre","the Democratic Party","","","","","","","","",""
"","text-replacement","7","62449","0.0-7.0","94384072","wem/bandit_party_1","A3QAHF4UUBM7ZO","either","8","6597","","","32","","","","","","","","","","","","","","","","","","","","","","","","","","","","","","","","","","","","","",""
"","text-replacement","8","64273","0.0-8.0","94384072","wem/bandit_party_1","A3QAHF4UUBM7ZO","either","8","1822","","","32","","","","","","","","","","","","","","","","","","","","","","","","","","","","","","","","","","","","","",""
"","text-replacement","9","64618","0.0-9.0","94384072","wem/bandit_party_1","A3QAHF4UUBM7ZO","either","8","342","","","32","","","","","","","","","","","","","","","","","","","","","","","","","","","","","","","","","","","","","",""
"","text-replacement","10","65179","0.0-10.0","94384072","wem/bandit_party_1","A3QAHF4UUBM7ZO","either","8","559","","","32","","","","","","","","","","","","","","","","","","","","","","","","","","","","","","","","","","","","","",""
"","text-replacement","11","65344","0.0-11.0","94384072","wem/bandit_party_1","A3QAHF4UUBM7ZO","either","8","162","","","32","","","","","","","","","","","","","","","","","","","","","","","","","","","","","","","","","","","","","",""
"","bandit","12","71719","0.0-12.0-0.0","94384072","wem/bandit_party_1","A3QAHF4UUBM7ZO","either","8","4865","","","","","","","0","0","1","0","0","","","","","0","","","","0","","","","","","","","","","","","","74","J","0","img/none_selected_demo.jpg","true","0","","",""
"","bandit","13","73945","0.0-13.0-0.0","94384072","wem/bandit_party_1","A3QAHF4UUBM7ZO","either","8","719","","","","","","","0","0","1","0","0","","","","","0","","","","0","","","","","","","","","","","","","75","K","0","img/none_selected_demo.jpg","true","0","","",""
"","text-replacement","14","76707","0.0-14.0","94384072","wem/bandit_party_1","A3QAHF4UUBM7ZO","either","8","2760","","","32","","","","","","","","","","","","","","","","","","","","","","","","","","","","","","","","","","","","","",""
"","text-replacement","15","78048","0.0-15.0","94384072","wem/bandit_party_1","A3QAHF4UUBM7ZO","either","8","1339","","","32","","","","","","","","","","","","","","","","","","","","","","","","","","","","","","","","","","","","","",""
"","text-replacement","16","78257","0.0-16.0","94384072","wem/bandit_party_1","A3QAHF4UUBM7ZO","either","8","207","","","32","","","","","","","","","","","","","","","","","","","","","","","","","","","","","","","","","","","","","",""
"","text-replacement","17","78511","0.0-17.0","94384072","wem/bandit_party_1","A3QAHF4UUBM7ZO","either","8","252","","","32","","","","","","","","","","","","","","","","","","","","","","","","","","","","","","","","","","","","","",""
"","bandit","18","81458","0.0-18.0-0.0","94384072","wem/bandit_party_1","A3QAHF4UUBM7ZO","either","8","1442","","","","","","","0","0","1","0.2","","0.5","0.5","","","","","","","0.8","0.2","","","","","","","","","","","","75","K","1","","true","0","80_20_practice","",""
"","bandit","19","84210","0.0-18.0-1.0","94384072","wem/bandit_party_1","A3QAHF4UUBM7ZO","either","8","1243","","","","","","","0","0","1","","0.2","0.5","0.5","","","0.8","0.2","","","","","","","","","","","","","","","","75","K","1","","true","0","80_20_practice","",""
"","bandit","20","85844","0.0-18.0-2.0","94384072","wem/bandit_party_1","A3QAHF4UUBM7ZO","either","8","126","","","","","","","0","0","1","","0.2","0.5","0.5","","","0.8","0.2","","","","","","","","","","","","","","","","75","K","1","","true","0","80_20_practice","",""
"","bandit","21","87853","0.0-18.0-3.0","94384072","wem/bandit_party_1","A3QAHF4UUBM7ZO","either","8","503","","","","","","","0","0","1","","0.2","0.5","0.5","","","0.8","0.2","","","","","","","","","","","","","","","","75","K","1","","true","0","80_20_practice","",""
"","bandit","22","90910","0.0-18.0-4.0","94384072","wem/bandit_party_1","A3QAHF4UUBM7ZO","either","8","1548","","","","","","","0","1","0","","0.8","0.5","0.5","","","0.8","0.2","","","","","","","","","","","","","","","","74","J","0","img/none_selected_demo.jpg","true","0","80_20_practice","",""
"","bandit","23","92945","0.0-18.0-5.0","94384072","wem/bandit_party_1","A3QAHF4UUBM7ZO","either","8","528","","","","","","","0","1","0","","0.8","0.5","0.5","","","0.8","0.2","","","","","","","","","","","","","","","","74","J","0","img/none_selected_demo.jpg","true","0","80_20_practice","",""
"","bandit","24","94770","0.0-18.0-6.0","94384072","wem/bandit_party_1","A3QAHF4UUBM7ZO","either","8","320","","","","","","","0","0","1","0.8","","0.5","0.5","","","","","","","0.8","0.2","","","","","","","","","","","","74","J","0","img/none_selected_demo.jpg","true","0","80_20_practice","",""
"","bandit","25","97349","0.0-18.0-7.0","94384072","wem/bandit_party_1","A3QAHF4UUBM7ZO","either","8","1071","","","","","","","1","0","0","0.8","","0.5","0.5","","","","","","","0.8","0.2","","","","","","","","","","","","74","J","0","img/none_selected_demo.jpg","true","0","80_20_practice","",""
"","bandit","26","99343","0.0-18.0-8.0","94384072","wem/bandit_party_1","A3QAHF4UUBM7ZO","either","8","488","","","","","","","0","0","1","0.8","","0.5","0.5","","","","","","","0.8","0.2","","","","","","","","","","","","74","J","0","img/none_selected_demo.jpg","true","0","80_20_practice","",""
"","bandit","27","101421","0.0-18.0-9.0","94384072","wem/bandit_party_1","A3QAHF4UUBM7ZO","either","8","571","","","","","","","0","1","0","","0.2","0.5","0.5","","","0.8","0.2","","","","","","","","","","","","","","","","75","K","1","","true","0","80_20_practice","",""
"","bandit","28","102973","0.0-18.0-10.0","94384072","wem/bandit_party_1","A3QAHF4UUBM7ZO","either","8","46","","","","","","","1","0","0","0.8","","0.5","0.5","","","","","","","0.8","0.2","","","","","","","","","","","","74","J","0","img/none_selected_demo.jpg","true","0","80_20_practice","",""
"","bandit","29","104947","0.0-18.0-11.0","94384072","wem/bandit_party_1","A3QAHF4UUBM7ZO","either","8","468","","","","","","","1","0","0","0.8","","0.5","0.5","","","","","","","0.8","0.2","","","","","","","","","","","","74","J","0","img/none_selected_demo.jpg","true","0","80_20_practice","",""
"","bandit","30","106478","0.0-18.0-12.0","94384072","wem/bandit_party_1","A3QAHF4UUBM7ZO","either","8","26","","","","","","","0","0","1","0.2","","0.5","0.5","","","","","","","0.8","0.2","","","","","","","","","","","","75","K","1","","true","0","80_20_practice","",""
"","bandit","31","108520","0.0-18.0-13.0","94384072","wem/bandit_party_1","A3QAHF4UUBM7ZO","either","8","535","","","","","","","0","1","0","","0.8","0.5","0.5","","","0.8","0.2","","","","","","","","","","","","","","","","74","J","0","img/none_selected_demo.jpg","true","0","80_20_practice","",""
"","bandit","32","110259","0.0-18.0-14.0","94384072","wem/bandit_party_1","A3QAHF4UUBM7ZO","either","8","233","","","","","","","0","0","1","0.2","","0.5","0.5","","","","","","","0.8","0.2","","","","","","","","","","","","75","K","1","","true","0","80_20_practice","",""
"","bandit","33","111822","0.0-18.0-15.0","94384072","wem/bandit_party_1","A3QAHF4UUBM7ZO","either","8","58","","","","","","","0","0","1","0.2","","0.5","0.5","","","","","","","0.8","0.2","","","","","","","","","","","","75","K","1","","true","0","80_20_practice","",""
"","bandit","34","113390","0.0-18.0-16.0","94384072","wem/bandit_party_1","A3QAHF4UUBM7ZO","either","8","60","","","","","","","1","0","0","0.8","","0.5","0.5","","","","","","","0.8","0.2","","","","","","","","","","","","74","J","0","img/none_selected_demo.jpg","true","0","80_20_practice","",""
"","bandit","35","115212","0.0-18.0-17.0","94384072","wem/bandit_party_1","A3QAHF4UUBM7ZO","either","8","315","","","","","","","0","1","0","","0.8","0.5","0.5","","","0.8","0.2","","","","","","","","","","","","","","","","74","J","0","img/none_selected_demo.jpg","true","0","80_20_practice","",""
"","bandit","36","116847","0.0-18.0-18.0","94384072","wem/bandit_party_1","A3QAHF4UUBM7ZO","either","8","129","","","","","","","0","0","1","","0.2","0.5","0.5","","","0.8","0.2","","","","","","","","","","","","","","","","75","K","1","","true","0","80_20_practice","",""
"","bandit","37","118719","0.0-18.0-19.0","94384072","wem/bandit_party_1","A3QAHF4UUBM7ZO","either","8","365","","","","","","","0","0","1","0.2","","0.5","0.5","","","","","","","0.8","0.2","","","","","","","","","","","","75","K","1","","true","0","80_20_practice","",""
"","text-replacement","38","125347","0.0-19.0","94384072","wem/bandit_party_1","A3QAHF4UUBM7ZO","either","8","6626","","","32","","","","","","","","","","","","","","","","","","","","","","","","","","","","","","","","","","","","","",""
"","bandit","39","127651","0.0-20.0-0.0","94384072","wem/bandit_party_1","A3QAHF4UUBM7ZO","either","8","795","","","","","","","1","0","0","1","0","","","","","0","1","","","1","0","","","","","","","","","","","","74","J","0","img/none_selected_demo.jpg","true","0","","",""
"","text-replacement","40","131353","0.0-21.0","94384072","wem/bandit_party_1","A3QAHF4UUBM7ZO","either","8","3700","","","32","","","","","","","","","","","","","","","","","","","","","","","","","","","","","","","","","","","","","",""
"","text-replacement","41","133197","0.0-22.0","94384072","wem/bandit_party_1","A3QAHF4UUBM7ZO","either","8","1842","","","32","","","","","","","","","","","","","","","","","","","","","","","","","","","","","","","","","","","","","",""
"","text-replacement","42","134480","0.0-23.0","94384072","wem/bandit_party_1","A3QAHF4UUBM7ZO","either","8","1282","","","32","","","","","","","","","","","","","","","","","","","","","","","","","","","","","","","","","","","","","",""
"","text-replacement","43","136073","0.0-24.0","94384072","wem/bandit_party_1","A3QAHF4UUBM7ZO","either","8","1590","","","32","","","","","","","","","","","","","","","","","","","","","","","","","","","","","","","","","","","","","",""
"","text-replacement","44","138018","0.0-25.0","94384072","wem/bandit_party_1","A3QAHF4UUBM7ZO","either","8","1942","","","32","","","","","","","","","","","","","","","","","","","","","","","","","","","","","","","","","","","","","",""
"","text-replacement","45","140177","0.0-26.0","94384072","wem/bandit_party_1","A3QAHF4UUBM7ZO","either","8","2158","","","32","","","","","","","","","","","","","","","","","","","","","","","","","","","","","","","","","","","","","",""
"","text-replacement","46","142868","0.0-27.0","94384072","wem/bandit_party_1","A3QAHF4UUBM7ZO","either","8","2688","","","32","","","","","","","","","","","","","","","","","","","","","","","","","","","","","","","","","","","","","",""
"","text-replacement","47","146512","0.0-28.0","94384072","wem/bandit_party_1","A3QAHF4UUBM7ZO","either","8","3642","","","32","","","","","","","","","","","","","","","","","","","","","","","","","","","","","","","","","","","","","",""
"","text-replacement","48","147105","0.0-29.0","94384072","wem/bandit_party_1","A3QAHF4UUBM7ZO","either","8","590","","","32","","","","","","","","","","","","","","","","","","","","","","","","","","","","","","","","","","","","","",""
"","text-replacement","49","148099","0.0-30.0","94384072","wem/bandit_party_1","A3QAHF4UUBM7ZO","either","8","992","","","32","","","","","","","","","","","","","","","","","","","","","","","","","","","","","","","","","","","","","",""
"","text-replacement","50","149284","0.0-31.0","94384072","wem/bandit_party_1","A3QAHF4UUBM7ZO","either","8","1181","","","32","","","","","","","","","","","","","","","","","","","","","","","","","","","","","","","","","","","","","",""
"","bandit","51","152006","0.0-32.0-0.0","94384072","wem/bandit_party_1","A3QAHF4UUBM7ZO","either","8","1216","","","","","","","0","0","1","0.6","","0.5","0.5","0.5","0.5","","","","","0.8","0.2","0.6","0.2","","","","","","","","","","75","K","2","","true","0","full_practice","",""
"","bandit","52","153573","0.0-32.0-1.0","94384072","wem/bandit_party_1","A3QAHF4UUBM7ZO","either","8","59","","","","","","","0","1","0","","0.8","0.5","0.5","0.5","0.5","0.8","0.2","0.6","0.2","","","","","","","","","","","","","","72","H","0","img/none_selected.jpg","true","0","full_practice","",""
"","bandit","53","155081","0.0-32.0-2.0","94384072","wem/bandit_party_1","A3QAHF4UUBM7ZO","either","8","1","","","","","","","0","0","1","0.2","","0.5","0.5","0.5","0.5","","","","","0.8","0.2","0.6","0.2","","","","","","","","","","74","J","1","","true","0","full_practice","",""
"","bandit","54","156852","0.0-32.0-3.0","94384072","wem/bandit_party_1","A3QAHF4UUBM7ZO","either","8","262","","","","","","","0","0","1","","0.2","0.5","0.5","0.5","0.5","0.8","0.2","0.6","0.2","","","","","","","","","","","","","","76","L","3","","true","0","full_practice","",""
"","bandit","55","158921","0.0-32.0-4.0","94384072","wem/bandit_party_1","A3QAHF4UUBM7ZO","either","8","561","","","","","","","0","0","1","","0.8","0.5","0.5","0.5","0.5","0.8","0.2","0.6","0.2","","","","","","","","","","","","","","72","H","0","img/none_selected.jpg","true","0","full_practice","",""
"","bandit","56","161061","0.0-32.0-5.0","94384072","wem/bandit_party_1","A3QAHF4UUBM7ZO","either","8","634","","","","","","","0","1","0","","0.6","0.5","0.5","0.5","0.5","0.8","0.2","0.6","0.2","","","","","","","","","","","","","","75","K","2","","true","0","full_practice","",""
"","bandit","57","162743","0.0-32.0-6.0","94384072","wem/bandit_party_1","A3QAHF4UUBM7ZO","either","8","174","","","","","","","0","1","0","","0.8","0.5","0.5","0.5","0.5","0.8","0.2","0.6","0.2","","","","","","","","","","","","","","72","H","0","img/none_selected.jpg","true","0","full_practice","",""
"","bandit","58","164405","0.0-32.0-7.0","94384072","wem/bandit_party_1","A3QAHF4UUBM7ZO","either","8","154","","","","","","","0","0","1","0.2","","0.5","0.5","0.5","0.5","","","","","0.8","0.2","0.6","0.2","","","","","","","","","","74","J","1","","true","0","full_practice","",""
"","bandit","59","166296","0.0-32.0-8.0","94384072","wem/bandit_party_1","A3QAHF4UUBM7ZO","either","8","384","","","","","","","0","0","1","0.2","","0.5","0.5","0.5","0.5","","","","","0.8","0.2","0.6","0.2","","","","","","","","","","76","L","3","","true","0","full_practice","",""
"","bandit","60","168118","0.0-32.0-9.0","94384072","wem/bandit_party_1","A3QAHF4UUBM7ZO","either","8","316","","","","","","","0","0","1","","0.2","0.5","0.5","0.5","0.5","0.8","0.2","0.6","0.2","","","","","","","","","","","","","","74","J","1","","true","0","full_practice","",""
"","bandit","61","169742","0.0-32.0-10.0","94384072","wem/bandit_party_1","A3QAHF4UUBM7ZO","either","8","116","","","","","","","0","1","0","","0.6","0.5","0.5","0.5","0.5","0.8","0.2","0.6","0.2","","","","","","","","","","","","","","75","K","2","","true","0","full_practice","",""
"","bandit","62","171541","0.0-32.0-11.0","94384072","wem/bandit_party_1","A3QAHF4UUBM7ZO","either","8","292","","","","","","","0","1","0","","0.8","0.5","0.5","0.5","0.5","0.8","0.2","0.6","0.2","","","","","","","","","","","","","","72","H","0","img/none_selected.jpg","true","0","full_practice","",""
"","bandit","63","173373","0.0-32.0-12.0","94384072","wem/bandit_party_1","A3QAHF4UUBM7ZO","either","8","324","","","","","","","0","0","1","","0.2","0.5","0.5","0.5","0.5","0.8","0.2","0.6","0.2","","","","","","","","","","","","","","76","L","3","","true","0","full_practice","",""
"","bandit","64","175109","0.0-32.0-13.0","94384072","wem/bandit_party_1","A3QAHF4UUBM7ZO","either","8","229","","","","","","","0","0","1","0.6","","0.5","0.5","0.5","0.5","","","","","0.8","0.2","0.6","0.2","","","","","","","","","","75","K","2","","true","0","full_practice","",""
"","bandit","65","176708","0.0-32.0-14.0","94384072","wem/bandit_party_1","A3QAHF4UUBM7ZO","either","8","92","","","","","","","1","0","0","0.6","","0.5","0.5","0.5","0.5","","","","","0.8","0.2","0.6","0.2","","","","","","","","","","75","K","2","","true","0","full_practice","",""
"","bandit","66","178571","0.0-32.0-15.0","94384072","wem/bandit_party_1","A3QAHF4UUBM7ZO","either","8","356","","","","","","","0","0","1","0.6","","0.5","0.5","0.5","0.5","","","","","0.8","0.2","0.6","0.2","","","","","","","","","","75","K","2","","true","0","full_practice","",""
"","bandit","67","180448","0.0-32.0-16.0","94384072","wem/bandit_party_1","A3QAHF4UUBM7ZO","either","8","370","","","","","","","0","0","1","0.2","","0.5","0.5","0.5","0.5","","","","","0.8","0.2","0.6","0.2","","","","","","","","","","74","J","1","","true","0","full_practice","",""
"","bandit","68","183587","0.0-32.0-17.0","94384072","wem/bandit_party_1","A3QAHF4UUBM7ZO","either","8","1632","","","","","","","1","0","0","0.2","","0.5","0.5","0.5","0.5","","","","","0.8","0.2","0.6","0.2","","","","","","","","","","74","J","1","","true","0","full_practice","",""
"","bandit","69","185397","0.0-32.0-18.0","94384072","wem/bandit_party_1","A3QAHF4UUBM7ZO","either","8","303","","","","","","","0","0","1","","0.2","0.5","0.5","0.5","0.5","0.8","0.2","0.6","0.2","","","","","","","","","","","","","","74","J","1","","true","0","full_practice","",""
"","bandit","70","187205","0.0-32.0-19.0","94384072","wem/bandit_party_1","A3QAHF4UUBM7ZO","either","8","301","","","","","","","1","0","0","0.8","","0.5","0.5","0.5","0.5","","","","","0.8","0.2","0.6","0.2","","","","","","","","","","72","H","0","img/none_selected.jpg","true","0","full_practice","",""
"","text","71","189912","0.0-33.0","94384072","wem/bandit_party_1","A3QAHF4UUBM7ZO","either","8","2699","","","32","","","","","","","","","","","","","","","","","","","","","","","","","","","","","","","","","","","","","",""
"","text-replacement","72","206378","0.0-34.0","94384072","wem/bandit_party_1","A3QAHF4UUBM7ZO","either","8","15461","","","32","","","","","","","","","","","","","","","","","","","","","","","","","","","","","","","","","","","","","",""
"","text-replacement","73","207913","0.0-35.0","94384072","wem/bandit_party_1","A3QAHF4UUBM7ZO","either","8","1532","","","32","","","","","","","","","","","","","","","","","","","","","","","","","","","","","","","","","","","","","",""
"","text-replacement","74","211525","0.0-36.0","94384072","wem/bandit_party_1","A3QAHF4UUBM7ZO","either","8","3610","","","32","","","","","","","","","","","","","","","","","","","","","","","","","","","","","","","","","","","","","",""
"","text-replacement","75","213639","0.0-37.0","94384072","wem/bandit_party_1","A3QAHF4UUBM7ZO","either","8","2111","","","32","","","","","","","","","","","","","","","","","","","","","","","","","","","","","","","","","","","","","",""
"","text-replacement","76","214653","0.0-38.0","94384072","wem/bandit_party_1","A3QAHF4UUBM7ZO","either","8","1011","","","32","","","","","","","","","","","","","","","","","","","","","","","","","","","","","","","","","","","","","",""
"","survey-multi-choice-replacement","77","225766","0.0-39.0-0.0","94384072","wem/bandit_party_1","A3QAHF4UUBM7ZO","either","8","11104","","","","","","","","","","","","","","","","","","","","","","","","Money will be added to the pool for <span style='color:blue;'>DEMOCRATS</span>","","","","","","","attn_check","","","","","","","","","0",""
"","survey-multi-choice-replacement","78","234427","0.0-40.0-0.0","94384072","wem/bandit_party_1","A3QAHF4UUBM7ZO","either","8","7652","","","","","","","","","","","","","","","","","","","","","","","","Money will be subtracted from the pool for <span style='color:red;'>REPUBLICANS</span>","","","","","","","attn_check","","","","","","","","","1",""
"","instructions","79","236896","0.0-40.0-1.0-0.0","94384072","wem/bandit_party_1","A3QAHF4UUBM7ZO","either","8","1464","","","","","","","","","","","","","","","","","","","","","","","","","","","","","","","","","","","","","","","","","[{""page_index"":0,""viewing_time"":1463}]"
"","survey-multi-choice-replacement","80","242425","0.0-40.1-0.1","94384072","wem/bandit_party_1","A3QAHF4UUBM7ZO","either","8","4518","","","","","","","","","","","","","","","","","","","","","","","","Equal amounts of money will be added to the pool for <span style='color:blue;'>DEMOCRATS</span> and subtracted from the pool for <span style='color:red;'>REPUBLICANS</span>","","","","","","","attn_check","","","","","","","","","2",""
"","survey-multi-choice-replacement","81","246265","0.0-41.0-0.0","94384072","wem/bandit_party_1","A3QAHF4UUBM7ZO","either","8","2832","","","","","","","","","","","","","","","","","","","","","","","","No money will be added to either pool","","","","","","","attn_check","","","","","","","","","3",""
"","bandit","82","250164","0.0-42.0-0.0","94384072","wem/bandit_party_1","A3QAHF4UUBM7ZO","either","8","1387","","","","","","","1","0","0","0.2928194041","","0.2","0.6","0.4","0.8","","","","","0.2637293772","0.2928194041","0.1351790469","0.3540548627","","","","","","","","","","74","J","1","","","1","main_expt","",""
"","bandit","83","252546","0.0-43.0-0.0","94384072","wem/bandit_party_1","A3QAHF4UUBM7ZO","either","8","873","","","","","","","0","1","0","","0.125602744","0.2","0.6","0.4","0.8","0.2760013096","0.3040419902","0.125602744","0.3812516843","","","","","","","","","","","","","","75","K","2","","","2","main_expt","",""
"","bandit","84","254672","0.0-44.0-0.0","94384072","wem/bandit_party_1","A3QAHF4UUBM7ZO","either","8","617","","","","","","","0","0","1","0.3901316494","","0.2","0.6","0.4","0.8","","","","","0.3240499928","0.2875251023","0.09574082279","0.3901316494","","","","","","","","","","76","L","3","","","3","main_expt","",""
"","bandit","85","256821","0.0-45.0-0.0","94384072","wem/bandit_party_1","A3QAHF4UUBM7ZO","either","8","642","","","","","","","0","1","0","","0.3510822359","0.2","0.6","0.4","0.8","0.3510822359","0.2965567903","0.0913382225","0.3945399471","","","","","","","","","","","","","","72","H","0","img/none_selected.jpg","","4","main_expt","",""
"","bandit","86","259135","0.0-46.0-0.0","94384072","wem/bandit_party_1","A3QAHF4UUBM7ZO","either","8","804","","","","","","","0","0","1","","0.2681113314","0.2","0.6","0.4","0.8","0.3522827721","0.2681113314","0.106177601","0.3997977613","","","","","","","","","","","","","","74","J","1","","","5","main_expt","",""
"","bandit","87","261098","0.0-47.0-0.0","94384072","wem/bandit_party_1","A3QAHF4UUBM7ZO","either","8","453","","","","","","","0","0","1","0.08998955495","","0.2","0.6","0.4","0.8","","","","","0.382674005","0.2330443498","0.08998955495","0.390783501","","","","","","","","","","75","K","2","","","6","main_expt","",""
"","bandit","88","263325","0.0-48.0-0.0","94384072","wem/bandit_party_1","A3QAHF4UUBM7ZO","either","8","716","","","","","","","1","0","0","0.1077526668","","0.2","0.6","0.4","0.8","","","","","0.3998463606","0.1630509172","0.1077526668","0.3305693427","","","","","","","","","","75","K","2","","","7","main_expt","",""
"","bandit","89","265675","0.0-49.0-0.0","94384072","wem/bandit_party_1","A3QAHF4UUBM7ZO","either","8","844","","","","","","","0","0","1","0.2002468685","","0.2","0.6","0.4","0.8","","","","","0.3832029687","0.2002468685","0.1243697388","0.3056545716","","","","","","","","","","74","J","1","","","8","main_expt","",""
"","bandit","90","268355","0.0-50.0-0.0","94384072","wem/bandit_party_1","A3QAHF4UUBM7ZO","either","8","1173","","","","","","","0","0","1","","0.3796681134","0.2","0.6","0.4","0.8","0.3796681134","0.1835034381","0.1698108096","0.3278889804","","","","","","","","","","","","","","72","H","0","img/none_selected.jpg","","9","main_expt","",""
"","bandit","91","271021","0.0-51.0-0.0","94384072","wem/bandit_party_1","A3QAHF4UUBM7ZO","either","8","1156","","","","","","","0","1","0","","0.3614311416","0.2","0.6","0.4","0.8","0.3614311416","0.1939723001","0.221757114","0.3137855556","","","","","","","","","","","","","","72","H","0","img/none_selected.jpg","","10","main_expt","",""
"","bandit","92","273107","0.0-52.0-0.0","94384072","wem/bandit_party_1","A3QAHF4UUBM7ZO","either","8","576","","","","","","","0","0","1","0.3938737051","","0.2","0.6","0.4","0.8","","","","","0.3938737051","0.1949806013","0.1961062924","0.3253079181","","","","","","","","","","72","H","0","img/none_selected.jpg","","11","main_expt","",""
"","bandit","93","275437","0.0-53.0-0.0","94384072","wem/bandit_party_1","A3QAHF4UUBM7ZO","either","8","820","","","","","","","0","0","1","","0.1907056259","0.2","0.6","0.4","0.8","0.3810544723","0.2587943474","0.1907056259","0.3298150516","","","","","","","","","","","","","","75","K","2","","","12","main_expt","",""
"","bandit","94","278463","0.0-54.0-0.0","94384072","wem/bandit_party_1","A3QAHF4UUBM7ZO","either","8","1518","","","","","","","1","0","0","0.3673307406","","0.2","0.6","0.4","0.8","","","","","0.3707046684","0.3085985727","0.2162865666","0.3673307406","","","","","","","","","","76","L","3","","","13","main_expt","",""
"","bandit","95","280928","0.0-55.0-0.0","94384072","wem/bandit_party_1","A3QAHF4UUBM7ZO","either","8","958","","","","","","","0","0","1","0.3679224674","","0.2","0.6","0.4","0.8","","","","","0.3486531997","0.2464992766","0.2399362825","0.3679224674","","","","","","","","","","76","L","3","","","14","main_expt","",""
"","bandit","96","283959","0.0-56.0-0.0","94384072","wem/bandit_party_1","A3QAHF4UUBM7ZO","either","8","1523","","","","","","","1","0","0","0.2474611475","","0.2","0.6","0.4","0.8","","","","","0.3263578384","0.2474611475","0.1986859052","0.3062507314","","","","","","","","","","74","J","1","","","15","main_expt","",""
"","bandit","97","286203","0.0-57.0-0.0","94384072","wem/bandit_party_1","A3QAHF4UUBM7ZO","either","8","737","","","","","","","0","0","1","0.2835538477","","0.2","0.6","0.4","0.8","","","","","0.3514189979","0.2835538477","0.1865641621","0.2892976033","","","","","","","","","","74","J","1","","","16","main_expt","",""
"","bandit","98","287817","0.0-58.0-0.0","94384072","wem/bandit_party_1","A3QAHF4UUBM7ZO","either","8","106","","","","","","","0","0","1","","0.2035525071","0.2","0.6","0.4","0.8","0.3532592314","0.3256112075","0.2035525071","0.2861796528","","","","","","","","","","","","","","75","K","2","","","17","main_expt","",""
"","bandit","99","289715","0.0-59.0-0.0","94384072","wem/bandit_party_1","A3QAHF4UUBM7ZO","either","8","391","","","","","","","0","1","0","","0.3858608091","0.2","0.6","0.4","0.8","0.3858608091","0.3802227677","0.2039336531","0.2958570682","","","","","","","","","","","","","","72","H","0","img/none_selected.jpg","","18","main_expt","",""
"","bandit","100","291499","0.0-60.0-0.0","94384072","wem/bandit_party_1","A3QAHF4UUBM7ZO","either","8","276","","","","","","","0","1","0","","0.360566968","0.2","0.6","0.4","0.8","0.3837638756","0.360566968","0.1598579642","0.3353028819","","","","","","","","","","","","","","74","J","1","","","19","main_expt","",""
"","bandit","101","294150","0.0-61.0-0.0","94384072","wem/bandit_party_1","A3QAHF4UUBM7ZO","either","8","1143","","","","","","","1","0","0","0.3139704528","","0.2","0.6","0.4","0.8","","","","","0.2872100501","0.3696799013","0.1437622327","0.3139704528","","","","","","","","","","76","L","3","","","20","main_expt","",""
"","bandit","102","297066","0.0-62.0-0.0","94384072","wem/bandit_party_1","A3QAHF4UUBM7ZO","either","8","1408","","","","","","","0","0","1","0.2524707143","","0.2","0.6","0.4","0.8","","","","","0.2975414498","0.4006907501","0.07974703335","0.2524707143","","","","","","","","","","76","L","3","","","21","main_expt","",""
"","bandit","103","299138","0.0-63.0-0.0","94384072","wem/bandit_party_1","A3QAHF4UUBM7ZO","either","8","566","","","","","","","0","0","1","0.1361132429","","0.2","0.6","0.4","0.8","","","","","0.2741965999","0.4081217326","0.1361132429","0.248326021","","","","","","","","","","75","K","2","","","22","main_expt","",""
"","bandit","104","302031","0.0-64.0-0.0","94384072","wem/bandit_party_1","A3QAHF4UUBM7ZO","either","8","1383","","","","","","","0","0","1","0.3740207531","","0.2","0.6","0.4","0.8","","","","","0.2379064449","0.3740207531","0.1705973249","0.2937153481","","","","","","","","","","74","J","1","","","23","main_expt","",""
"","bandit","105","304172","0.0-65.0-0.0","94384072","wem/bandit_party_1","A3QAHF4UUBM7ZO","either","8","634","","","","","","","0","0","1","0.2625315469","","0.2","0.6","0.4","0.8","","","","","0.2078598572","0.3913756451","0.1392759225","0.2625315469","","","","","","","","","","76","L","3","","","24","main_expt","",""
"","bandit","106","307956","0.0-66.0-0.0","94384072","wem/bandit_party_1","A3QAHF4UUBM7ZO","either","8","2276","","","","","","","0","0","1","0.1800538527","","0.2","0.6","0.4","0.8","","","","","0.2764850733","0.4100905738","0.1800538527","0.2405651368","","","","","","","","","","75","K","2","","","25","main_expt","",""
"","bandit","107","310123","0.0-67.0-0.0","94384072","wem/bandit_party_1","A3QAHF4UUBM7ZO","either","8","658","","","","","","","0","1","0","","0.3600668969","0.2","0.6","0.4","0.8","0.3080191348","0.3600668969","0.2146400533","0.2503350336","","","","","","","","","","","","","","74","J","1","","","26","main_expt","",""
"","bandit","108","312754","0.0-68.0-0.0","94384072","wem/bandit_party_1","A3QAHF4UUBM7ZO","either","8","1123","","","","","","","0","1","0","","0.354091838","0.2","0.6","0.4","0.8","0.3606197488","0.3703096079","0.1948367851","0.354091838","","","","","","","","","","","","","","76","L","3","","","27","main_expt","",""
"","bandit","109","315145","0.0-69.0-0.0","94384072","wem/bandit_party_1","A3QAHF4UUBM7ZO","either","8","883","","","","","","","0","0","1","","0.3696097963","0.2","0.6","0.4","0.8","0.3696097963","0.3527269899","0.2282666016","0.3419366675","","","","","","","","","","","","","","72","H","0","img/none_selected.jpg","","28","main_expt","",""
"","bandit","110","316854","0.0-70.0-0.0","94384072","wem/bandit_party_1","A3QAHF4UUBM7ZO","either","8","202","","","","","","","0","0","1","","0.1842618798","0.2","0.6","0.4","0.8","0.3434444954","0.2854860911","0.1842618798","0.361896517","","","","","","","","","","","","","","75","K","2","","","29","main_expt","",""
"","bandit","111","318701","0.0-71.0-0.0","94384072","wem/bandit_party_1","A3QAHF4UUBM7ZO","either","8","338","","","","","","","0","0","1","","0.3528183973","0.2","0.6","0.4","0.8","0.3528183973","0.2971434158","0.1930267653","0.3701160785","","","","","","","","","","","","","","72","H","0","img/none_selected.jpg","","30","main_expt","",""
"","bandit","112","321324","0.0-72.0-0.0","94384072","wem/bandit_party_1","A3QAHF4UUBM7ZO","either","8","1114","","","","","","","1","0","0","0.3602312343","","0.2","0.6","0.4","0.8","","","","","0.3436926249","0.3192935598","0.2279264959","0.3602312343","","","","","","","","","","76","L","3","","","31","main_expt","",""
"","bandit","113","323340","0.0-73.0-0.0","94384072","wem/bandit_party_1","A3QAHF4UUBM7ZO","either","8","507","","","","","","","0","1","0","","0.1922668126","0.2","0.6","0.4","0.8","0.3392376576","0.2910845839","0.1922668126","0.3550043818","","","","","","","","","","","","","","75","K","2","","","32","main_expt","",""
"","bandit","114","325177","0.0-74.0-0.0","94384072","wem/bandit_party_1","A3QAHF4UUBM7ZO","either","8","329","","","","","","","0","1","0","","0.2524106513","0.2","0.6","0.4","0.8","0.2524106513","0.2956883229","0.1503247695","0.3927862597","","","","","","","","","","","","","","72","H","0","img/none_selected.jpg","","33","main_expt","",""
"","bandit","115","327229","0.0-75.0-0.0","94384072","wem/bandit_party_1","A3QAHF4UUBM7ZO","either","8","546","","","","","","","0","0","1","0.4185963197","","0.2","0.6","0.4","0.8","","","","","0.2378308988","0.2918182698","0.1875072744","0.4185963197","","","","","","","","","","76","L","3","","","34","main_expt","",""
"","bandit","116","329284","0.0-76.0-0.0","94384072","wem/bandit_party_1","A3QAHF4UUBM7ZO","either","8","545","","","","","","","0","0","1","0.441983755","","0.2","0.6","0.4","0.8","","","","","0.2683654211","0.3063909307","0.2135507624","0.441983755","","","","","","","","","","76","L","3","","","35","main_expt","",""
"","bandit","117","341408","0.0-77.0-0.0","94384072","wem/bandit_party_1","A3QAHF4UUBM7ZO","either","8","10617","","","","","","","0","0","1","","0.2042402853","0.2","0.6","0.4","0.8","0.2645223933","0.2820805085","0.2042402853","0.4352827683","","","","","","","","","","","","","","75","K","2","","","36","main_expt","",""
"","bandit","118","343243","0.0-78.0-0.0","94384072","wem/bandit_party_1","A3QAHF4UUBM7ZO","either","8","326","","","","","","","1","0","0","0.450520142","","0.2","0.6","0.4","0.8","","","","","0.2360561858","0.2610370824","0.2024605481","0.450520142","","","","","","","","","","76","L","3","","","37","main_expt","",""
"","bandit","119","345294","0.0-79.0-0.0","94384072","wem/bandit_party_1","A3QAHF4UUBM7ZO","either","8","542","","","","","","","1","0","0","0.4681224698","","0.2","0.6","0.4","0.8","","","","","0.2001865083","0.1896233007","0.1677713785","0.4681224698","","","","","","","","","","76","L","3","","","38","main_expt","",""
"","bandit","120","347573","0.0-80.0-0.0","94384072","wem/bandit_party_1","A3QAHF4UUBM7ZO","either","8","771","","","","","","","0","0","1","0.4711022053","","0.2","0.6","0.4","0.8","","","","","0.1687915361","0.168851025","0.221779122","0.4711022053","","","","","","","","","","76","L","3","","","39","main_expt","",""
"","bandit","121","349385","0.0-81.0-0.0","94384072","wem/bandit_party_1","A3QAHF4UUBM7ZO","either","8","305","","","","","","","0","0","1","","0.1615787635","0.2","0.6","0.4","0.8","0.1503151413","0.1615787635","0.2722397218","0.4559447699","","","","","","","","","","","","","","74","J","1","","","40","main_expt","",""
"","bandit","122","351538","0.0-82.0-0.0","94384072","wem/bandit_party_1","A3QAHF4UUBM7ZO","either","8","645","","","","","","","0","0","1","0.4412687596","","0.2","0.6","0.4","0.8","","","","","0.08168262283","0.1472326003","0.3298230943","0.4412687596","","","","","","","","","","76","L","3","","","41","main_expt","",""
"","bandit","123","353346","0.0-83.0-0.0","94384072","wem/bandit_party_1","A3QAHF4UUBM7ZO","either","8","299","","","","","","","0","0","1","","0.1533480506","0.2","0.6","0.4","0.8","0.07668629145","0.1533480506","0.3104885444","0.4457751761","","","","","","","","","","","","","","74","J","1","","","42","main_expt","",""
"","bandit","124","355763","0.0-84.0-0.0","94384072","wem/bandit_party_1","A3QAHF4UUBM7ZO","either","8","909","","","","","","","1","0","0","0.4298378352","","0.2","0.6","0.4","0.8","","","","","0.07394587158","0.1414351437","0.3005355489","0.4298378352","","","","","","","","","","76","L","3","","","43","main_expt","",""
"","bandit","125","357761","0.0-85.0-0.0","94384072","wem/bandit_party_1","A3QAHF4UUBM7ZO","either","8","489","","","","","","","0","1","0","","0.2456242138","0.2","0.6","0.4","0.8","0.1192337685","0.1067646429","0.2456242138","0.4416915379","","","","","","","","","","","","","","75","K","2","","","44","main_expt","",""
"","bandit","126","360004","0.0-86.0-0.0","94384072","wem/bandit_party_1","A3QAHF4UUBM7ZO","either","8","734","","","","","","","0","0","1","","0.1285724119","0.2","0.6","0.4","0.8","0.1285724119","0.1250796286","0.2839901561","0.3915522423","","","","","","","","","","","","","","72","H","0","img/none_selected.jpg","","45","main_expt","",""
"","bandit","127","361701","0.0-87.0-0.0","94384072","wem/bandit_party_1","A3QAHF4UUBM7ZO","either","8","190","","","","","","","0","0","1","","0.4318427431","0.2","0.6","0.4","0.8","0.1112684106","0.1927264636","0.2353621531","0.4318427431","","","","","","","","","","","","","","76","L","3","","","46","main_expt","",""
"","bandit","128","364267","0.0-88.0-0.0","94384072","wem/bandit_party_1","A3QAHF4UUBM7ZO","either","8","1058","","","","","","","0","0","1","0.2405257196","","0.2","0.6","0.4","0.8","","","","","0.1207340475","0.1804488412","0.2405257196","0.4395998441","","","","","","","","","","75","K","2","","","47","main_expt","",""
"","bandit","129","366061","0.0-89.0-0.0","94384072","wem/bandit_party_1","A3QAHF4UUBM7ZO","either","8","286","","","","","","","0","0","1","0.4630443269","","0.2","0.6","0.4","0.8","","","","","0.1182533935","0.168268176","0.2629408555","0.4630443269","","","","","","","","","","76","L","3","","","48","main_expt","",""
"","bandit","130","368296","0.0-90.0-0.0","94384072","wem/bandit_party_1","A3QAHF4UUBM7ZO","either","8","728","","","","","","","0","0","1","0.1466838001","","0.2","0.6","0.4","0.8","","","","","0.1460801474","0.1466838001","0.2902453213","0.4794982466","","","","","","","","","","74","J","1","","","49","main_expt","",""
"","bandit","131","370389","0.0-91.0-0.0","94384072","wem/bandit_party_1","A3QAHF4UUBM7ZO","either","8","586","","","","","","","0","0","1","","0.3033715012","0.2","0.6","0.4","0.8","0.1765155983","0.1336340117","0.3033715012","0.4562783041","","","","","","","","","","","","","","75","K","2","","","50","main_expt","",""
"","bandit","132","372169","0.0-92.0-0.0","94384072","wem/bandit_party_1","A3QAHF4UUBM7ZO","either","8","271","","","","","","","1","0","0","0.4515646323","","0.2","0.6","0.4","0.8","","","","","0.1614266163","0.1067821754","0.3536831403","0.4515646323","","","","","","","","","","76","L","3","","","51","main_expt","",""
"","bandit","133","374479","0.0-93.0-0.0","94384072","wem/bandit_party_1","A3QAHF4UUBM7ZO","either","8","803","","","","","","","0","0","1","0.4344137529","","0.2","0.6","0.4","0.8","","","","","0.1938643747","0.07294577227","0.3058792917","0.4344137529","","","","","","","","","","76","L","3","","","52","main_expt","",""
"","bandit","134","376335","0.0-94.0-0.0","94384072","wem/bandit_party_1","A3QAHF4UUBM7ZO","either","8","348","","","","","","","0","0","1","0.07676454597","","0.2","0.6","0.4","0.8","","","","","0.1721886996","0.07676454597","0.3466820038","0.4421766306","","","","","","","","","","74","J","1","","","53","main_expt","",""
"","bandit","135","378624","0.0-95.0-0.0","94384072","wem/bandit_party_1","A3QAHF4UUBM7ZO","either","8","781","","","","","","","0","0","1","","0.3159173384","0.2","0.6","0.4","0.8","0.1542880765","0.07707135067","0.3159173384","0.4591875032","","","","","","","","","","","","","","75","K","2","","","54","main_expt","",""
"","bandit","136","380716","0.0-96.0-0.0","94384072","wem/bandit_party_1","A3QAHF4UUBM7ZO","either","8","583","","","","","","","0","0","1","","0.08227932488","0.2","0.6","0.4","0.8","0.2155598061","0.08227932488","0.3205246683","0.4455250987","","","","","","","","","","","","","","74","J","1","","","55","main_expt","",""
"","bandit","137","383115","0.0-97.0-0.0","94384072","wem/bandit_party_1","A3QAHF4UUBM7ZO","either","8","889","","","","","","","1","0","0","0.4200701886","","0.2","0.6","0.4","0.8","","","","","0.199350645","0.09013031375","0.3067659888","0.4200701886","","","","","","","","","","76","L","3","","","56","main_expt","",""
"","bandit","138","385357","0.0-98.0-0.0","94384072","wem/bandit_party_1","A3QAHF4UUBM7ZO","either","8","734","","","","","","","0","0","1","","0.106866739","0.2","0.6","0.4","0.8","0.1991981904","0.106866739","0.3786279545","0.3635567377","","","","","","","","","","","","","","74","J","1","","","57","main_expt","",""
"","bandit","139","387272","0.0-99.0-0.0","94384072","wem/bandit_party_1","A3QAHF4UUBM7ZO","either","8","405","","","","","","","0","1","0","","0.1307276253","0.2","0.6","0.4","0.8","0.1307276253","0.0915584437","0.3796022377","0.3647217687","","","","","","","","","","","","","","72","H","0","img/none_selected.jpg","","58","main_expt","",""
"","bandit","140","388987","0.0-100.0-0.0","94384072","wem/bandit_party_1","A3QAHF4UUBM7ZO","either","8","207","","","","","","","0","1","0","","0.3570845549","0.2","0.6","0.4","0.8","0.1540949786","0.1036540812","0.3570845549","0.3975499765","","","","","","","","","","","","","","75","K","2","","","59","main_expt","",""
"","bandit","141","390745","0.0-101.0-0.0","94384072","wem/bandit_party_1","A3QAHF4UUBM7ZO","either","8","246","","","","","","","0","0","1","0.376383165","","0.2","0.6","0.4","0.8","","","","","0.1187181044","0.07948280662","0.398525789","0.376383165","","","","","","","","","","76","L","3","","","60","main_expt","",""
"","bandit","142","392913","0.0-102.0-0.0","94384072","wem/bandit_party_1","A3QAHF4UUBM7ZO","either","8","659","","","","","","","0","0","1","0.1734870435","","0.2","0.6","0.4","0.8","","","","","0.1734870435","0.0685056185","0.380986593","0.3384437455","","","","","","","","","","72","H","0","img/none_selected.jpg","","61","main_expt","",""
"","bandit","143","394756","0.0-103.0-0.0","94384072","wem/bandit_party_1","A3QAHF4UUBM7ZO","either","8","335","","","","","","","0","0","1","0.3086389155","","0.2","0.6","0.4","0.8","","","","","0.2056999461","0.04196312691","0.3928002855","0.3086389155","","","","","","","","","","76","L","3","","","62","main_expt","",""
"","bandit","144","396339","0.0-104.0-0.0","94384072","wem/bandit_party_1","A3QAHF4UUBM7ZO","either","8","75","","","","","","","0","0","1","0.4097838671","","0.2","0.6","0.4","0.8","","","","","0.2421495796","0.06524357318","0.4097838671","0.3098998428","","","","","","","","","","75","K","2","","","63","main_expt","",""
"","bandit","145","398359","0.0-105.0-0.0","94384072","wem/bandit_party_1","A3QAHF4UUBM7ZO","either","8","512","","","","","","","1","0","0","0.2859800092","","0.2","0.6","0.4","0.8","","","","","0.2678986655","0.04599317762","0.3942475769","0.2859800092","","","","","","","","","","76","L","3","","","64","main_expt","",""
"","bandit","146","400196","0.0-106.0-0.0","94384072","wem/bandit_party_1","A3QAHF4UUBM7ZO","either","8","327","","","","","","","0","0","1","0.2780805564","","0.2","0.6","0.4","0.8","","","","","0.2780805564","0.04738713632","0.3756823908","0.2780623804","","","","","","","","","","72","H","0","img/none_selected.jpg","","65","main_expt","",""
"","bandit","147","402314","0.0-107.0-0.0","94384072","wem/bandit_party_1","A3QAHF4UUBM7ZO","either","8","609","","","","","","","0","0","1","","0.02873144913","0.2","0.6","0.4","0.8","0.2923516192","0.02873144913","0.3780323226","0.2740889186","","","","","","","","","","","","","","74","J","1","","","66","main_expt","",""
"","bandit","148","404609","0.0-108.0-0.0","94384072","wem/bandit_party_1","A3QAHF4UUBM7ZO","either","8","786","","","","","","","0","0","1","0.3122756929","","0.2","0.6","0.4","0.8","","","","","0.3481747094","0.0355516853","0.382091886","0.3122756929","","","","","","","","","","76","L","3","","","67","main_expt","",""
"","bandit","149","406769","0.0-109.0-0.0","94384072","wem/bandit_party_1","A3QAHF4UUBM7ZO","either","8","651","","","","","","","0","1","0","","0.4080562953","0.2","0.6","0.4","0.8","0.3540590834","0.04483006882","0.4080562953","0.3004294993","","","","","","","","","","","","","","75","K","2","","","68","main_expt","",""
"","bandit","150","409054","0.0-110.0-0.0","94384072","wem/bandit_party_1","A3QAHF4UUBM7ZO","either","8","776","","","","","","","0","0","1","0.3312842332","","0.2","0.6","0.4","0.8","","","","","0.3348318208","0.04300650393","0.419826639","0.3312842332","","","","","","","","","","76","L","3","","","69","main_expt","",""
"","bandit","151","411663","0.0-111.0-0.0","94384072","wem/bandit_party_1","A3QAHF4UUBM7ZO","either","8","1100","","","","","","","0","1","0","","0.2362018798","0.2","0.6","0.4","0.8","0.3844983113","0.03960880855","0.3889643965","0.2362018798","","","","","","","","","","","","","","76","L","3","","","70","main_expt","",""
"","bandit","152","413828","0.0-112.0-0.0","94384072","wem/bandit_party_1","A3QAHF4UUBM7ZO","either","8","655","","","","","","","0","0","1","","0.3492343966","0.2","0.6","0.4","0.8","0.3753843975","0.02401392238","0.3492343966","0.1838323472","","","","","","","","","","","","","","75","K","2","","","71","main_expt","",""
"","bandit","153","416022","0.0-113.0-0.0","94384072","wem/bandit_party_1","A3QAHF4UUBM7ZO","either","8","685","","","","","","","0","0","1","0.1749810972","","0.2","0.6","0.4","0.8","","","","","0.3861429343","0.008756159955","0.3502155883","0.1749810972","","","","","","","","","","76","L","3","","","72","main_expt","",""
"","bandit","154","419977","0.0-114.0-0.0","94384072","wem/bandit_party_1","A3QAHF4UUBM7ZO","either","8","2445","","","","","","","0","0","1","","0.006257651783","0.2","0.6","0.4","0.8","0.3978436086","0.006257651783","0.3568691787","0.1664097112","","","","","","","","","","","","","","74","J","1","","","73","main_expt","",""
"","bandit","155","422291","0.0-115.0-0.0","94384072","wem/bandit_party_1","A3QAHF4UUBM7ZO","either","8","803","","","","","","","0","0","1","0.2001176207","","0.2","0.6","0.4","0.8","","","","","0.3847979518","0.004732084297","0.3303653739","0.2001176207","","","","","","","","","","76","L","3","","","74","main_expt","",""
"","bandit","156","424936","0.0-116.0-0.0","94384072","wem/bandit_party_1","A3QAHF4UUBM7ZO","either","8","1138","","","","","","","1","0","0","0.1848717924","","0.2","0.6","0.4","0.8","","","","","0.3974319157","0.006967558871","0.3353283381","0.1848717924","","","","","","","","","","76","L","3","","","75","main_expt","",""
"","bandit","157","428338","0.0-117.0-0.0","94384072","wem/bandit_party_1","A3QAHF4UUBM7ZO","either","8","1894","","","","","","","0","0","1","0.1510178238","","0.2","0.6","0.4","0.8","","","","","0.3987985884","0.004525860487","0.3009524994","0.1510178238","","","","","","","","","","76","L","3","","","76","main_expt","",""
"","bandit","158","431130","0.0-118.0-0.0","94384072","wem/bandit_party_1","A3QAHF4UUBM7ZO","either","8","1284","","","","","","","0","0","1","0.007245535115","","0.2","0.6","0.4","0.8","","","","","0.4127312768","0.007245535115","0.3316028908","0.2089633591","","","","","","","","","","74","J","1","","","77","main_expt","",""
"","bandit","159","433987","0.0-119.0-0.0","94384072","wem/bandit_party_1","A3QAHF4UUBM7ZO","either","8","1349","","","","","","","0","0","1","0.2285147345","","0.2","0.6","0.4","0.8","","","","","0.4257675477","0.00483057751","0.3571024926","0.2285147345","","","","","","","","","","76","L","3","","","78","main_expt","",""
"","bandit","160","436729","0.0-120.0-0.0","94384072","wem/bandit_party_1","A3QAHF4UUBM7ZO","either","8","1233","","","","","","","1","0","0","0.2246975601","","0.2","0.6","0.4","0.8","","","","","0.4331167668","0.005956317848","0.3542776451","0.2246975601","","","","","","","","","","76","L","3","","","79","main_expt","",""
"","bandit","161","438600","0.0-121.0-0.0","94384072","wem/bandit_party_1","A3QAHF4UUBM7ZO","either","8","363","","","","","","","0","0","1","0.1878766281","","0.2","0.6","0.4","0.8","","","","","0.4294395537","0.0076590047","0.3201174307","0.1878766281","","","","","","","","","","76","L","3","","","80","main_expt","",""
"","bandit","162","442054","0.0-122.0-0.0","94384072","wem/bandit_party_1","A3QAHF4UUBM7ZO","either","8","1945","","","","","","","0","0","1","","0.3503003334","0.2","0.6","0.4","0.8","0.4234249918","0.009115568074","0.3503003334","0.2436254364","","","","","","","","","","","","","","75","K","2","","","81","main_expt","",""
"","bandit","163","445467","0.0-123.0-0.0","94384072","wem/bandit_party_1","A3QAHF4UUBM7ZO","either","8","1904","","","","","","","0","0","1","0.2627531714","","0.2","0.6","0.4","0.8","","","","","0.3956977209","0.01382977225","0.3509066846","0.2627531714","","","","","","","","","","76","L","3","","","82","main_expt","",""
"","bandit","164","450050","0.0-124.0-0.0","94384072","wem/bandit_party_1","A3QAHF4UUBM7ZO","either","8","3076","","","","","","","0","0","1","0.2672212524","","0.2","0.6","0.4","0.8","","","","","0.4248650233","0.01500629599","0.3951868033","0.2672212524","","","","","","","","","","76","L","3","","","83","main_expt","",""
"","bandit","165","452286","0.0-125.0-0.0","94384072","wem/bandit_party_1","A3QAHF4UUBM7ZO","either","8","727","","","","","","","0","0","1","","0.4196907627","0.2","0.6","0.4","0.8","0.4196907627","0.02310127573","0.4131477378","0.2817484998","","","","","","","","","","","","","","72","H","0","img/none_selected.jpg","","84","main_expt","",""
"","bandit","166","454356","0.0-126.0-0.0","94384072","wem/bandit_party_1","A3QAHF4UUBM7ZO","either","8","562","","","","","","","0","0","1","0.02639065846","","0.2","0.6","0.4","0.8","","","","","0.435633498","0.02639065846","0.3889697292","0.3074775227","","","","","","","","","","74","J","1","","","85","main_expt","",""
"","bandit","167","456591","0.0-127.0-0.0","94384072","wem/bandit_party_1","A3QAHF4UUBM7ZO","either","8","725","","","","","","","1","0","0","0.3885636443","","0.2","0.6","0.4","0.8","","","","","0.4322222521","0.01746441632","0.3885636443","0.2717847629","","","","","","","","","","75","K","2","","","86","main_expt","",""
"","bandit","168","458365","0.0-128.0-0.0","94384072","wem/bandit_party_1","A3QAHF4UUBM7ZO","either","8","265","","","","","","","0","0","1","0.2183858348","","0.2","0.6","0.4","0.8","","","","","0.4476119451","0.01256144444","0.4028282504","0.2183858348","","","","","","","","","","76","L","3","","","87","main_expt","",""
"","bandit","169","460714","0.0-129.0-0.0","94384072","wem/bandit_party_1","A3QAHF4UUBM7ZO","either","8","842","","","","","","","0","0","1","","0.01178158386","0.2","0.6","0.4","0.8","0.4073123198","0.01178158386","0.4306890759","0.2054961256","","","","","","","","","","","","","","74","J","1","","","88","main_expt","",""
"","bandit","170","463180","0.0-130.0-0.0","94384072","wem/bandit_party_1","A3QAHF4UUBM7ZO","either","8","958","","","","","","","0","0","1","0.1452714398","","0.2","0.6","0.4","0.8","","","","","0.3862301724","0.008722555822","0.4103738654","0.1452714398","","","","","","","","","","76","L","3","","","89","main_expt","",""
"","bandit","171","465251","0.0-131.0-0.0","94384072","wem/bandit_party_1","A3QAHF4UUBM7ZO","either","8","561","","","","","","","0","0","1","0.008232471735","","0.2","0.6","0.4","0.8","","","","","0.3596745144","0.008232471735","0.3980827974","0.1077779513","","","","","","","","","","74","J","1","","","90","main_expt","",""
"","bandit","172","467552","0.0-132.0-0.0","94384072","wem/bandit_party_1","A3QAHF4UUBM7ZO","either","8","789","","","","","","","0","0","1","0.4040531024","","0.2","0.6","0.4","0.8","","","","","0.3082854458","0.01249180717","0.4040531024","0.1308407065","","","","","","","","","","75","K","2","","","91","main_expt","",""
"","bandit","173","470116","0.0-133.0-0.0","94384072","wem/bandit_party_1","A3QAHF4UUBM7ZO","either","8","1053","","","","","","","0","0","1","0.1652322036","","0.2","0.6","0.4","0.8","","","","","0.312225492","0.01470986316","0.3462944796","0.1652322036","","","","","","","","","","76","L","3","","","92","main_expt","",""
"","bandit","174","472955","0.0-134.0-0.0","94384072","wem/bandit_party_1","A3QAHF4UUBM7ZO","either","8","1329","","","","","","","0","0","1","0.02655281846","","0.2","0.6","0.4","0.8","","","","","0.3671658277","0.02655281846","0.3411451966","0.1344678182","","","","","","","","","","74","J","1","","","93","main_expt","",""
"","bandit","175","474738","0.0-135.0-0.0","94384072","wem/bandit_party_1","A3QAHF4UUBM7ZO","either","8","272","","","","","","","0","0","1","","0.3401731108","0.2","0.6","0.4","0.8","0.3401731108","0.02575246025","0.3384154489","0.1301314301","","","","","","","","","","","","","","72","H","0","img/none_selected.jpg","","94","main_expt","",""
"","bandit","176","476863","0.0-136.0-0.0","94384072","wem/bandit_party_1","A3QAHF4UUBM7ZO","either","8","616","","","","","","","0","0","1","0.3126988266","","0.2","0.6","0.4","0.8","","","","","0.3413923724","0.02262355665","0.3126988266","0.1746055711","","","","","","","","","","75","K","2","","","95","main_expt","",""
"","bandit","177","479536","0.0-137.0-0.0","94384072","wem/bandit_party_1","A3QAHF4UUBM7ZO","either","8","1165","","","","","","","0","0","1","0.1994244555","","0.2","0.6","0.4","0.8","","","","","0.3570420485","0.02047181149","0.3800019137","0.1994244555","","","","","","","","","","76","L","3","","","96","main_expt","",""
"","bandit","178","482098","0.0-138.0-0.0","94384072","wem/bandit_party_1","A3QAHF4UUBM7ZO","either","8","1053","","","","","","","0","1","0","","0.3435474977","0.2","0.6","0.4","0.8","0.3435474977","0.0207754381","0.3328121005","0.1834602947","","","","","","","","","","","","","","72","H","0","img/none_selected.jpg","","97","main_expt","",""
"","bandit","179","484572","0.0-139.0-0.0","94384072","wem/bandit_party_1","A3QAHF4UUBM7ZO","either","8","965","","","","","","","0","0","1","0.1719221531","","0.2","0.6","0.4","0.8","","","","","0.3614714926","0.02955834597","0.332228596","0.1719221531","","","","","","","","","","76","L","3","","","98","main_expt","",""
"","bandit","180","487023","0.0-140.0-0.0","94384072","wem/bandit_party_1","A3QAHF4UUBM7ZO","either","8","941","","","","","","","0","0","1","0.2843854285","","0.2","0.6","0.4","0.8","","","","","0.3176405447","0.0383131093","0.2843854285","0.1183399241","","","","","","","","","","75","K","2","","","99","main_expt","",""
"","bandit","181","489705","0.0-141.0-0.0","94384072","wem/bandit_party_1","A3QAHF4UUBM7ZO","either","8","1173","","","","","","","0","0","1","","0.03580757471","0.2","0.6","0.4","0.8","0.3586553183","0.03580757471","0.309751149","0.1558635017","","","","","","","","","","","","","","74","J","1","","","100","main_expt","",""
"","bandit","182","491985","0.0-142.0-0.0","94384072","wem/bandit_party_1","A3QAHF4UUBM7ZO","either","8","770","","","","","","","0","0","1","","0.1389665978","0.2","0.6","0.4","0.8","0.2951503345","0.04899620691","0.2993195944","0.1389665978","","","","","","","","","","","","","","76","L","3","","","101","main_expt","",""
"","bandit","183","495107","0.0-143.0-0.0","94384072","wem/bandit_party_1","A3QAHF4UUBM7ZO","either","8","1613","","","","","","","0","0","1","0.2998391809","","0.2","0.6","0.4","0.8","","","","","0.2998391809","0.08055650644","0.3551890872","0.1377203561","","","","","","","","","","72","H","0","img/none_selected.jpg","","102","main_expt","",""
"","bandit","184","497514","0.0-144.0-0.0","94384072","wem/bandit_party_1","A3QAHF4UUBM7ZO","either","8","897","","","","","","","0","0","1","0.1285548106","","0.2","0.6","0.4","0.8","","","","","0.2791823827","0.1040447627","0.3148404956","0.1285548106","","","","","","","","","","76","L","3","","","103","main_expt","",""
"","bandit","185","499781","0.0-145.0-0.0","94384072","wem/bandit_party_1","A3QAHF4UUBM7ZO","either","8","758","","","","","","","0","0","1","","0.1143547335","0.2","0.6","0.4","0.8","0.3382769334","0.1143547335","0.3286912191","0.1555523735","","","","","","","","","","","","","","74","J","1","","","104","main_expt","",""
"","bandit","186","502733","0.0-146.0-0.0","94384072","wem/bandit_party_1","A3QAHF4UUBM7ZO","either","8","1444","","","","","","","0","0","1","","0.298340497","0.2","0.6","0.4","0.8","0.3339697125","0.1487676438","0.298340497","0.1775592141","","","","","","","","","","","","","","75","K","2","","","105","main_expt","",""
"","bandit","187","504991","0.0-147.0-0.0","94384072","wem/bandit_party_1","A3QAHF4UUBM7ZO","either","8","748","","","","","","","0","0","1","","0.2263451353","0.2","0.6","0.4","0.8","0.3124129253","0.152088545","0.3504464386","0.2263451353","","","","","","","","","","","","","","76","L","3","","","106","main_expt","",""
"","bandit","188","507242","0.0-148.0-0.0","94384072","wem/bandit_party_1","A3QAHF4UUBM7ZO","either","8","741","","","","","","","0","1","0","","0.2406734145","0.2","0.6","0.4","0.8","0.3400683723","0.2406734145","0.3510410077","0.1679769802","","","","","","","","","","","","","","74","J","1","","","107","main_expt","",""
"","bandit","189","509600","0.0-149.0-0.0","94384072","wem/bandit_party_1","A3QAHF4UUBM7ZO","either","8","850","","","","","","","0","0","1","0.1999870147","","0.2","0.6","0.4","0.8","","","","","0.3557340834","0.3048040024","0.3282766846","0.1999870147","","","","","","","","","","76","L","3","","","108","main_expt","",""
"","bandit","190","512629","0.0-150.0-0.0","94384072","wem/bandit_party_1","A3QAHF4UUBM7ZO","either","8","1520","","","","","","","0","0","1","","0.3561186451","0.2","0.6","0.4","0.8","0.3846418901","0.3418503096","0.3561186451","0.208992856","","","","","","","","","","","","","","75","K","2","","","109","main_expt","",""
"","bandit","191","514593","0.0-151.0-0.0","94384072","wem/bandit_party_1","A3QAHF4UUBM7ZO","either","8","454","","","","","","","0","0","1","0.3198501315","","0.2","0.6","0.4","0.8","","","","","0.4057962062","0.3198501315","0.3576445865","0.1716040471","","","","","","","","","","74","J","1","","","110","main_expt","",""
"","bandit","192","516434","0.0-152.0-0.0","94384072","wem/bandit_party_1","A3QAHF4UUBM7ZO","either","8","333","","","","","","","0","1","0","","0.3377543854","0.2","0.6","0.4","0.8","0.3692451483","0.3681534847","0.3377543854","0.08984071331","","","","","","","","","","","","","","75","K","2","","","111","main_expt","",""
"","bandit","193","518396","0.0-153.0-0.0","94384072","wem/bandit_party_1","A3QAHF4UUBM7ZO","either","8","453","","","","","","","0","0","1","0.1243463141","","0.2","0.6","0.4","0.8","","","","","0.3577317973","0.3757830796","0.286234052","0.1243463141","","","","","","","","","","76","L","3","","","112","main_expt","",""
"","bandit","194","520445","0.0-154.0-0.0","94384072","wem/bandit_party_1","A3QAHF4UUBM7ZO","either","8","540","","","","","","","0","0","1","0.1433440675","","0.2","0.6","0.4","0.8","","","","","0.3328808086","0.3838999828","0.1932674395","0.1433440675","","","","","","","","","","76","L","3","","","113","main_expt","",""
"","bandit","195","522315","0.0-155.0-0.0","94384072","wem/bandit_party_1","A3QAHF4UUBM7ZO","either","8","359","","","","","","","0","1","0","","0.3416979579","0.2","0.6","0.4","0.8","0.3416979579","0.4157938717","0.2403040534","0.1510662198","","","","","","","","","","","","","","72","H","0","img/none_selected.jpg","","114","main_expt","",""
"","bandit","196","524338","0.0-156.0-0.0","94384072","wem/bandit_party_1","A3QAHF4UUBM7ZO","either","8","514","","","","","","","1","0","0","0.4055870595","","0.2","0.6","0.4","0.8","","","","","0.3377137281","0.4055870595","0.254937398","0.09845245139","","","","","","","","","","74","J","1","","","115","main_expt","",""
"","bandit","197","526859","0.0-157.0-0.0","94384072","wem/bandit_party_1","A3QAHF4UUBM7ZO","either","8","1012","","","","","","","0","1","0","","0.4161015278","0.2","0.6","0.4","0.8","0.3039448029","0.4161015278","0.2605063941","0.107393795","","","","","","","","","","","","","","74","J","1","","","116","main_expt","",""
"","bandit","198","528801","0.0-158.0-0.0","94384072","wem/bandit_party_1","A3QAHF4UUBM7ZO","either","8","434","","","","","","","1","0","0","0.414877819","","0.2","0.6","0.4","0.8","","","","","0.2974336912","0.414877819","0.2161328783","0.07879800556","","","","","","","","","","74","J","1","","","117","main_expt","",""
"","bandit","199","530864","0.0-159.0-0.0","94384072","wem/bandit_party_1","A3QAHF4UUBM7ZO","either","8","555","","","","","","","0","0","1","0.08383735875","","0.2","0.6","0.4","0.8","","","","","0.2651867246","0.3968259953","0.1931197841","0.08383735875","","","","","","","","","","76","L","3","","","118","main_expt","",""
"","bandit","200","532752","0.0-160.0-0.0","94384072","wem/bandit_party_1","A3QAHF4UUBM7ZO","either","8","381","","","","","","","0","0","1","","0.1638183597","0.2","0.6","0.4","0.8","0.3131666206","0.4198241006","0.1638183597","0.1392474383","","","","","","","","","","","","","","75","K","2","","","119","main_expt","",""
"","bandit","201","534568","0.0-161.0-0.0","94384072","wem/bandit_party_1","A3QAHF4UUBM7ZO","either","8","307","","","","","","","0","0","1","","0.358829095","0.2","0.6","0.4","0.8","0.358829095","0.4286088018","0.1893282748","0.1649404926","","","","","","","","","","","","","","72","H","0","img/none_selected.jpg","","120","main_expt","",""
"","bandit","202","536380","0.0-162.0-0.0","94384072","wem/bandit_party_1","A3QAHF4UUBM7ZO","either","8","303","","","","","","","0","1","0","","0.4253829576","0.2","0.6","0.4","0.8","0.3189860171","0.4253829576","0.2290368179","0.1764152442","","","","","","","","","","","","","","74","J","1","","","121","main_expt","",""
"","bandit","203","538167","0.0-163.0-0.0","94384072","wem/bandit_party_1","A3QAHF4UUBM7ZO","either","8","277","","","","","","","0","0","1","","0.4235175979","0.2","0.6","0.4","0.8","0.3011672979","0.4235175979","0.2445441383","0.2092397698","","","","","","","","","","","","","","74","J","1","","","122","main_expt","",""
"","bandit","204","540170","0.0-164.0-0.0","94384072","wem/bandit_party_1","A3QAHF4UUBM7ZO","either","8","494","","","","","","","0","0","1","","0.4182090072","0.2","0.6","0.4","0.8","0.3037948063","0.4182090072","0.2091075756","0.1884058447","","","","","","","","","","","","","","74","J","1","","","123","main_expt","",""
"","bandit","205","542119","0.0-165.0-0.0","94384072","wem/bandit_party_1","A3QAHF4UUBM7ZO","either","8","440","","","","","","","1","0","0","0.1876417206","","0.2","0.6","0.4","0.8","","","","","0.2446200253","0.4356016004","0.2216111921","0.1876417206","","","","","","","","","","76","L","3","","","124","main_expt","",""
"","bandit","206","544000","0.0-166.0-0.0","94384072","wem/bandit_party_1","A3QAHF4UUBM7ZO","either","8","372","","","","","","","0","0","1","","0.1890564589","0.2","0.6","0.4","0.8","0.2464628806","0.403953628","0.1622020501","0.1890564589","","","","","","","","","","","","","","76","L","3","","","125","main_expt","",""
"","bandit","207","545823","0.0-167.0-0.0","94384072","wem/bandit_party_1","A3QAHF4UUBM7ZO","either","8","314","","","","","","","0","0","1","0.173533554","","0.2","0.6","0.4","0.8","","","","","0.281169445","0.4020675328","0.173533554","0.1659850756","","","","","","","","","","75","K","2","","","126","main_expt","",""
"","bandit","208","548072","0.0-168.0-0.0","94384072","wem/bandit_party_1","A3QAHF4UUBM7ZO","either","8","739","","","","","","","0","0","1","0.338443572","","0.2","0.6","0.4","0.8","","","","","0.290080064","0.338443572","0.189829559","0.2006343121","","","","","","","","","","74","J","1","","","127","main_expt","",""
"","bandit","209","549813","0.0-169.0-0.0","94384072","wem/bandit_party_1","A3QAHF4UUBM7ZO","either","8","233","","","","","","","0","0","1","0.2637444583","","0.2","0.6","0.4","0.8","","","","","0.3280989756","0.323123489","0.1764696366","0.2637444583","","","","","","","","","","76","L","3","","","128","main_expt","",""
"","bandit","210","551788","0.0-170.0-0.0","94384072","wem/bandit_party_1","A3QAHF4UUBM7ZO","either","8","464","","","","","","","0","0","1","0.3052704822","","0.2","0.6","0.4","0.8","","","","","0.3052704822","0.3615310162","0.172709194","0.2783394686","","","","","","","","","","72","H","0","img/none_selected.jpg","","129","main_expt","",""
"","bandit","211","553598","0.0-171.0-0.0","94384072","wem/bandit_party_1","A3QAHF4UUBM7ZO","either","8","302","","","","","","","0","0","1","","0.1407460215","0.2","0.6","0.4","0.8","0.314718742","0.3667448715","0.1407460215","0.2674474002","","","","","","","","","","","","","","75","K","2","","","130","main_expt","",""
"","bandit","212","555501","0.0-172.0-0.0","94384072","wem/bandit_party_1","A3QAHF4UUBM7ZO","either","8","392","","","","","","","0","0","1","0.341745941","","0.2","0.6","0.4","0.8","","","","","0.2492347367","0.341745941","0.143826562","0.2122920843","","","","","","","","","","74","J","1","","","131","main_expt","",""
"","bandit","213","557324","0.0-173.0-0.0","94384072","wem/bandit_party_1","A3QAHF4UUBM7ZO","either","8","313","","","","","","","0","0","1","0.1969346152","","0.2","0.6","0.4","0.8","","","","","0.2495736985","0.2615325727","0.1862992663","0.1969346152","","","","","","","","","","76","L","3","","","132","main_expt","",""
"","bandit","214","559124","0.0-174.0-0.0","94384072","wem/bandit_party_1","A3QAHF4UUBM7ZO","either","8","290","","","","","","","0","0","1","0.1390835973","","0.2","0.6","0.4","0.8","","","","","0.2487120015","0.27905624","0.185648564","0.1390835973","","","","","","","","","","76","L","3","","","133","main_expt","",""
"","bandit","215","561075","0.0-175.0-0.0","94384072","wem/bandit_party_1","A3QAHF4UUBM7ZO","either","8","442","","","","","","","0","0","1","","0.1437640715","0.2","0.6","0.4","0.8","0.3239420422","0.2751163123","0.2002276213","0.1437640715","","","","","","","","","","","","","","76","L","3","","","134","main_expt","",""
"","bandit","216","562928","0.0-176.0-0.0","94384072","wem/bandit_party_1","A3QAHF4UUBM7ZO","either","8","346","","","","","","","0","0","1","0.1175999949","","0.2","0.6","0.4","0.8","","","","","0.3903525049","0.2586507773","0.2474552851","0.1175999949","","","","","","","","","","76","L","3","","","135","main_expt","",""
"","bandit","217","564744","0.0-177.0-0.0","94384072","wem/bandit_party_1","A3QAHF4UUBM7ZO","either","8","306","","","","","","","0","0","1","0.1108499649","","0.2","0.6","0.4","0.8","","","","","0.3703049055","0.2385277364","0.2454982057","0.1108499649","","","","","","","","","","76","L","3","","","136","main_expt","",""
"","bandit","218","566743","0.0-178.0-0.0","94384072","wem/bandit_party_1","A3QAHF4UUBM7ZO","either","8","487","","","","","","","0","0","1","0.1208727618","","0.2","0.6","0.4","0.8","","","","","0.3657944308","0.1935782534","0.2708690816","0.1208727618","","","","","","","","","","76","L","3","","","137","main_expt","",""
"","bandit","219","568845","0.0-179.0-0.0","94384072","wem/bandit_party_1","A3QAHF4UUBM7ZO","either","8","590","","","","","","","0","0","1","0.14087624","","0.2","0.6","0.4","0.8","","","","","0.3452946514","0.14087624","0.2219039101","0.1098805161","","","","","","","","","","74","J","1","","","138","main_expt","",""
"","bandit","220","570678","0.0-180.0-0.0","94384072","wem/bandit_party_1","A3QAHF4UUBM7ZO","either","8","320","","","","","","","0","1","0","","0.3225052804","0.2","0.6","0.4","0.8","0.3225052804","0.1340930794","0.2485571535","0.1359731218","","","","","","","","","","","","","","72","H","0","img/none_selected.jpg","","139","main_expt","",""
"","bandit","221","572353","0.0-181.0-0.0","94384072","wem/bandit_party_1","A3QAHF4UUBM7ZO","either","8","167","","","","","","","0","1","0","","0.2997250911","0.2","0.6","0.4","0.8","0.2997250911","0.1170750994","0.2605640439","0.1419248406","","","","","","","","","","","","","","72","H","0","img/none_selected.jpg","","140","main_expt","",""
"","bandit","222","574036","0.0-182.0-0.0","94384072","wem/bandit_party_1","A3QAHF4UUBM7ZO","either","8","173","","","","","","","0","0","1","","0.2260680923","0.2","0.6","0.4","0.8","0.311933389","0.1316830279","0.2260680923","0.1269577117","","","","","","","","","","","","","","75","K","2","","","141","main_expt","",""
"","bandit","223","575778","0.0-183.0-0.0","94384072","wem/bandit_party_1","A3QAHF4UUBM7ZO","either","8","234","","","","","","","0","1","0","","0.2354846983","0.2","0.6","0.4","0.8","0.3442568425","0.09490366034","0.2354846983","0.1073819056","","","","","","","","","","","","","","75","K","2","","","142","main_expt","",""
"","bandit","224","577476","0.0-184.0-0.0","94384072","wem/bandit_party_1","A3QAHF4UUBM7ZO","either","8","186","","","","","","","1","0","0","0.1246024154","","0.2","0.6","0.4","0.8","","","","","0.3117203045","0.1246024154","0.2089358464","0.1152767294","","","","","","","","","","74","J","1","","","143","main_expt","",""
"","bandit","225","579208","0.0-185.0-0.0","94384072","wem/bandit_party_1","A3QAHF4UUBM7ZO","either","8","222","","","","","","","0","0","1","0.1179874238","","0.2","0.6","0.4","0.8","","","","","0.3080771123","0.1179874238","0.1844607625","0.1317444946","","","","","","","","","","74","J","1","","","144","main_expt","",""
"","bandit","226","580916","0.0-186.0-0.0","94384072","wem/bandit_party_1","A3QAHF4UUBM7ZO","either","8","198","","","","","","","0","0","1","0.1058600218","","0.2","0.6","0.4","0.8","","","","","0.3146876691","0.1211842963","0.1940384654","0.1058600218","","","","","","","","","","76","L","3","","","145","main_expt","",""
"","bandit","227","582612","0.0-187.0-0.0","94384072","wem/bandit_party_1","A3QAHF4UUBM7ZO","either","8","186","","","","","","","0","0","1","0.06212451067","","0.2","0.6","0.4","0.8","","","","","0.3526806189","0.06212451067","0.2532022814","0.1862633901","","","","","","","","","","74","J","1","","","146","main_expt","",""
"","bandit","228","584683","0.0-188.0-0.0","94384072","wem/bandit_party_1","A3QAHF4UUBM7ZO","either","8","563","","","","","","","0","0","1","","0.05826033827","0.2","0.6","0.4","0.8","0.3859334927","0.05826033827","0.272856749","0.1944793183","","","","","","","","","","","","","","74","J","1","","","147","main_expt","",""
"","bandit","229","590749","0.0-189.0-0.0","94384072","wem/bandit_party_1","A3QAHF4UUBM7ZO","either","8","4556","","","","","","","0","0","1","0.4089873985","","0.2","0.6","0.4","0.8","","","","","0.4089873985","0.04847575149","0.2441255329","0.1572605535","","","","","","","","","","72","H","0","img/none_selected.jpg","","148","main_expt","",""
"","bandit","230","592933","0.0-190.0-0.0","94384072","wem/bandit_party_1","A3QAHF4UUBM7ZO","either","8","674","","","","","","","0","0","1","0.07397138717","","0.2","0.6","0.4","0.8","","","","","0.3317076441","0.07397138717","0.2304797635","0.1632070519","","","","","","","","","","74","J","1","","","149","main_expt","",""
"","bandit","231","596309","0.0-191.0-0.0","94384072","wem/bandit_party_1","A3QAHF4UUBM7ZO","either","8","1865","","","","","","","0","0","1","","0.2514439341","0.2","0.6","0.4","0.8","0.2514439341","0.1178437277","0.2645424191","0.2162169298","","","","","","","","","","","","","","72","H","0","img/none_selected.jpg","","150","main_expt","",""
"","bandit","232","597977","0.0-192.0-0.0","94384072","wem/bandit_party_1","A3QAHF4UUBM7ZO","either","8","159","","","","","","","0","0","1","0.2806681102","","0.2","0.6","0.4","0.8","","","","","0.2209696772","0.1116740648","0.2919476008","0.2806681102","","","","","","","","","","76","L","3","","","151","main_expt","",""
"","bandit","233","600932","0.0-193.0-0.0","94384072","wem/bandit_party_1","A3QAHF4UUBM7ZO","either","8","1442","","","","","","","0","0","1","0.09681320826","","0.2","0.6","0.4","0.8","","","","","0.2004300668","0.09681320826","0.3004198658","0.25223767","","","","","","","","","","74","J","1","","","152","main_expt","",""
"","bandit","234","603065","0.0-194.0-0.0","94384072","wem/bandit_party_1","A3QAHF4UUBM7ZO","either","8","622","","","","","","","0","0","1","","0.1803159607","0.2","0.6","0.4","0.8","0.1803159607","0.1162344283","0.2910243242","0.2259503681","","","","","","","","","","","","","","72","H","0","img/none_selected.jpg","","153","main_expt","",""
"","bandit","235","605406","0.0-195.0-0.0","94384072","wem/bandit_party_1","A3QAHF4UUBM7ZO","either","8","831","","","","","","","0","0","1","","0.2520515582","0.2","0.6","0.4","0.8","0.1793353988","0.1441765144","0.2858680692","0.2520515582","","","","","","","","","","","","","","76","L","3","","","154","main_expt","",""
"","bandit","236","607251","0.0-196.0-0.0","94384072","wem/bandit_party_1","A3QAHF4UUBM7ZO","either","8","337","","","","","","","0","0","1","0.276906037","","0.2","0.6","0.4","0.8","","","","","0.175125938","0.1506434262","0.276906037","0.246895917","","","","","","","","","","75","K","2","","","155","main_expt","",""
"","bandit","237","609404","0.0-197.0-0.0","94384072","wem/bandit_party_1","A3QAHF4UUBM7ZO","either","8","645","","","","","","","1","0","0","0.1691825384","","0.2","0.6","0.4","0.8","","","","","0.19004546","0.1691825384","0.3087514371","0.2067462234","","","","","","","","","","74","J","1","","","156","main_expt","",""
"","bandit","238","611193","0.0-198.0-0.0","94384072","wem/bandit_party_1","A3QAHF4UUBM7ZO","either","8","279","","","","","","","0","0","1","","0.1465267651","0.2","0.6","0.4","0.8","0.1538528063","0.1465267651","0.3400763937","0.1736677602","","","","","","","","","","","","","","74","J","1","","","157","main_expt","",""
"","bandit","239","612877","0.0-199.0-0.0","94384072","wem/bandit_party_1","A3QAHF4UUBM7ZO","either","8","172","","","","","","","0","0","1","0.2437422656","","0.2","0.6","0.4","0.8","","","","","0.1624419901","0.1517260174","0.3388441277","0.2437422656","","","","","","","","","","76","L","3","","","158","main_expt","",""
"","bandit","240","614413","0.0-200.0-0.0","94384072","wem/bandit_party_1","A3QAHF4UUBM7ZO","either","8","27","","","","","","","0","0","1","","0.143579764","0.2","0.6","0.4","0.8","0.1749682205","0.143579764","0.3496437485","0.2627628197","","","","","","","","","","","","","","74","J","1","","","159","main_expt","",""
"","bandit","241","616130","0.0-201.0-0.0","94384072","wem/bandit_party_1","A3QAHF4UUBM7ZO","either","8","209","","","","","","","0","0","1","0.2532756584","","0.2","0.6","0.4","0.8","","","","","0.2227833177","0.1701049762","0.3347491532","0.2532756584","","","","","","","","","","76","L","3","","","160","main_expt","",""
"","bandit","242","617743","0.0-202.0-0.0","94384072","wem/bandit_party_1","A3QAHF4UUBM7ZO","either","8","103","","","","","","","0","0","1","0.3036625801","","0.2","0.6","0.4","0.8","","","","","0.1616195486","0.1596038406","0.3036625801","0.2846030245","","","","","","","","","","75","K","2","","","161","main_expt","",""
"","bandit","243","619696","0.0-203.0-0.0","94384072","wem/bandit_party_1","A3QAHF4UUBM7ZO","either","8","443","","","","","","","0","0","1","","0.1186271452","0.2","0.6","0.4","0.8","0.1440802068","0.1186271452","0.2735804545","0.2480450928","","","","","","","","","","","","","","74","J","1","","","162","main_expt","",""
"","bandit","244","621501","0.0-204.0-0.0","94384072","wem/bandit_party_1","A3QAHF4UUBM7ZO","either","8","295","","","","","","","0","0","1","0.1349250059","","0.2","0.6","0.4","0.8","","","","","0.1349250059","0.1460830151","0.2219233964","0.3217860246","","","","","","","","","","72","H","0","img/none_selected.jpg","","163","main_expt","",""
"","bandit","245","623190","0.0-205.0-0.0","94384072","wem/bandit_party_1","A3QAHF4UUBM7ZO","either","8","180","","","","","","","0","0","1","0.1924179555","","0.2","0.6","0.4","0.8","","","","","0.1482528248","0.1924179555","0.2489701673","0.3528623486","","","","","","","","","","74","J","1","","","164","main_expt","",""
"","bandit","246","625039","0.0-206.0-0.0","94384072","wem/bandit_party_1","A3QAHF4UUBM7ZO","either","8","338","","","","","","","0","0","1","0.3113737792","","0.2","0.6","0.4","0.8","","","","","0.1444116863","0.1909643941","0.2424219606","0.3113737792","","","","","","","","","","76","L","3","","","165","main_expt","",""
"","bandit","247","626834","0.0-207.0-0.0","94384072","wem/bandit_party_1","A3QAHF4UUBM7ZO","either","8","283","","","","","","","0","0","1","0.1917506842","","0.2","0.6","0.4","0.8","","","","","0.1621449425","0.1917506842","0.1899742571","0.2820045276","","","","","","","","","","74","J","1","","","166","main_expt","",""
"","bandit","248","628801","0.0-208.0-0.0","94384072","wem/bandit_party_1","A3QAHF4UUBM7ZO","either","8","456","","","","","","","0","0","1","0.1695256229","","0.2","0.6","0.4","0.8","","","","","0.1695256229","0.2238056512","0.2298880826","0.2539690707","","","","","","","","","","72","H","0","img/none_selected.jpg","","167","main_expt","",""
"","bandit","249","630599","0.0-209.0-0.0","94384072","wem/bandit_party_1","A3QAHF4UUBM7ZO","either","8","288","","","","","","","0","0","1","","0.2132240521","0.2","0.6","0.4","0.8","0.1712445676","0.2132240521","0.241220494","0.2177565821","","","","","","","","","","","","","","74","J","1","","","168","main_expt","",""
"","bandit","250","632607","0.0-210.0-0.0","94384072","wem/bandit_party_1","A3QAHF4UUBM7ZO","either","8","498","","","","","","","0","1","0","","0.2113351254","0.2","0.6","0.4","0.8","0.191079104","0.1363713625","0.2113351254","0.183214586","","","","","","","","","","","","","","75","K","2","","","169","main_expt","",""
"","bandit","251","634340","0.0-211.0-0.0","94384072","wem/bandit_party_1","A3QAHF4UUBM7ZO","either","8","223","","","","","","","1","0","0","0.1757282231","","0.2","0.6","0.4","0.8","","","","","0.2227666825","0.2007690262","0.2224744884","0.1757282231","","","","","","","","","","76","L","3","","","170","main_expt","",""
"","bandit","252","636488","0.0-212.0-0.0","94384072","wem/bandit_party_1","A3QAHF4UUBM7ZO","either","8","639","","","","","","","0","0","1","0.2719914804","","0.2","0.6","0.4","0.8","","","","","0.2719914804","0.1238998316","0.262177911","0.1679331046","","","","","","","","","","72","H","0","img/none_selected.jpg","","171","main_expt","",""
"","bandit","253","638042","0.0-213.0-0.0","94384072","wem/bandit_party_1","A3QAHF4UUBM7ZO","either","8","44","","","","","","","0","0","1","","0.09746419185","0.2","0.6","0.4","0.8","0.2330128459","0.09746419185","0.2822992514","0.14560319","","","","","","","","","","","","","","74","J","1","","","172","main_expt","",""
"","bandit","254","639767","0.0-214.0-0.0","94384072","wem/bandit_party_1","A3QAHF4UUBM7ZO","either","8","216","","","","","","","0","0","1","0.1341549344","","0.2","0.6","0.4","0.8","","","","","0.2840251313","0.1018164217","0.2545762091","0.1341549344","","","","","","","","","","76","L","3","","","173","main_expt","",""
"","bandit","255","641543","0.0-215.0-0.0","94384072","wem/bandit_party_1","A3QAHF4UUBM7ZO","either","8","267","","","","","","","0","0","1","","0.2838184637","0.2","0.6","0.4","0.8","0.2739042306","0.1401689619","0.2838184637","0.1471305278","","","","","","","","","","","","","","75","K","2","","","174","main_expt","",""
"","bandit","256","643386","0.0-216.0-0.0","94384072","wem/bandit_party_1","A3QAHF4UUBM7ZO","either","8","333","","","","","","","0","1","0","","0.3444735506","0.2","0.6","0.4","0.8","0.3444735506","0.1697524679","0.3002790513","0.173963405","","","","","","","","","","","","","","72","H","0","img/none_selected.jpg","","175","main_expt","",""
"","bandit","257","645173","0.0-217.0-0.0","94384072","wem/bandit_party_1","A3QAHF4UUBM7ZO","either","8","278","","","","","","","1","0","0","0.1896898672","","0.2","0.6","0.4","0.8","","","","","0.3223017316","0.1896898672","0.3771690292","0.1821857965","","","","","","","","","","74","J","1","","","176","main_expt","",""
"","bandit","258","646951","0.0-218.0-0.0","94384072","wem/bandit_party_1","A3QAHF4UUBM7ZO","either","8","268","","","","","","","0","0","1","0.1444884472","","0.2","0.6","0.4","0.8","","","","","0.2964924158","0.2441254625","0.4047809956","0.1444884472","","","","","","","","","","76","L","3","","","177","main_expt","",""
"","bandit","259","648675","0.0-219.0-0.0","94384072","wem/bandit_party_1","A3QAHF4UUBM7ZO","either","8","213","","","","","","","0","0","1","","0.2780576925","0.2","0.6","0.4","0.8","0.2780576925","0.2427722412","0.4344960837","0.1207783293","","","","","","","","","","","","","","72","H","0","img/none_selected.jpg","","178","main_expt","",""
"","bandit","260","650236","0.0-220.0-0.0","94384072","wem/bandit_party_1","A3QAHF4UUBM7ZO","either","8","47","","","","","","","0","1","0","","0.4287912686","0.2","0.6","0.4","0.8","0.2859751729","0.2284650367","0.4287912686","0.111585665","","","","","","","","","","","","","","75","K","2","","","179","main_expt","",""
"","bandit","261","651942","0.0-221.0-0.0","94384072","wem/bandit_party_1","A3QAHF4UUBM7ZO","either","8","196","","","","","","","1","0","0","0.2694081366","","0.2","0.6","0.4","0.8","","","","","0.283533164","0.2694081366","0.4294180747","0.06891525065","","","","","","","","","","74","J","1","","","180","main_expt","",""
"","bandit","262","653777","0.0-222.0-0.0","94384072","wem/bandit_party_1","A3QAHF4UUBM7ZO","either","8","326","","","","","","","0","0","1","","0.3887332701","0.2","0.6","0.4","0.8","0.2430023428","0.2471628034","0.3887332701","0.07407739619","","","","","","","","","","","","","","75","K","2","","","181","main_expt","",""
"","bandit","263","655411","0.0-223.0-0.0","94384072","wem/bandit_party_1","A3QAHF4UUBM7ZO","either","8","123","","","","","","","0","0","1","0.07501704201","","0.2","0.6","0.4","0.8","","","","","0.223254837","0.275372354","0.3910635387","0.07501704201","","","","","","","","","","76","L","3","","","182","main_expt","",""
"","bandit","264","656995","0.0-224.0-0.0","94384072","wem/bandit_party_1","A3QAHF4UUBM7ZO","either","8","73","","","","","","","0","0","1","","0.2274286797","0.2","0.6","0.4","0.8","0.2274286797","0.2378950907","0.3957792538","0.09354103142","","","","","","","","","","","","","","72","H","0","img/none_selected.jpg","","183","main_expt","",""
"","bandit","265","658548","0.0-225.0-0.0","94384072","wem/bandit_party_1","A3QAHF4UUBM7ZO","either","8","43","","","","","","","1","0","0","0.2611999536","","0.2","0.6","0.4","0.8","","","","","0.2485964068","0.2611999536","0.3777829694","0.06673830493","","","","","","","","","","74","J","1","","","184","main_expt","",""
"","bandit","266","660367","0.0-226.0-0.0","94384072","wem/bandit_party_1","A3QAHF4UUBM7ZO","either","8","308","","","","","","","0","0","1","0.4130939835","","0.2","0.6","0.4","0.8","","","","","0.2080173303","0.2799245071","0.4130939835","0.08617836821","","","","","","","","","","75","K","2","","","185","main_expt","",""
"","bandit","267","661929","0.0-227.0-0.0","94384072","wem/bandit_party_1","A3QAHF4UUBM7ZO","either","8","50","","","","","","","0","0","1","","0.2538883687","0.2","0.6","0.4","0.8","0.2538883687","0.2275386122","0.376930599","0.05054014018","","","","","","","","","","","","","","72","H","0","img/none_selected.jpg","","186","main_expt","",""
"","bandit","268","663575","0.0-228.0-0.0","94384072","wem/bandit_party_1","A3QAHF4UUBM7ZO","either","8","135","","","","","","","0","0","1","0.2558518805","","0.2","0.6","0.4","0.8","","","","","0.2267652077","0.2558518805","0.3934592684","0.1101456656","","","","","","","","","","74","J","1","","","187","main_expt","",""
"","bandit","269","665243","0.0-229.0-0.0","94384072","wem/bandit_party_1","A3QAHF4UUBM7ZO","either","8","157","","","","","","","1","0","0","0.1076418148","","0.2","0.6","0.4","0.8","","","","","0.2583789709","0.2757393749","0.4086060551","0.1076418148","","","","","","","","","","76","L","3","","","188","main_expt","",""
"","bandit","270","667161","0.0-230.0-0.0","94384072","wem/bandit_party_1","A3QAHF4UUBM7ZO","either","8","408","","","","","","","0","0","1","","0.447145564","0.2","0.6","0.4","0.8","0.2329768584","0.3326758055","0.447145564","0.1230456027","","","","","","","","","","","","","","75","K","2","","","189","main_expt","",""
"","bandit","271","669237","0.0-231.0-0.0","94384072","wem/bandit_party_1","A3QAHF4UUBM7ZO","either","8","564","","","","","","","0","0","1","","0.2002510669","0.2","0.6","0.4","0.8","0.2002510669","0.332927569","0.386091063","0.1872873117","","","","","","","","","","","","","","72","H","0","img/none_selected.jpg","","190","main_expt","",""
"","bandit","272","670965","0.0-232.0-0.0","94384072","wem/bandit_party_1","A3QAHF4UUBM7ZO","either","8","216","","","","","","","0","0","1","0.4221145333","","0.2","0.6","0.4","0.8","","","","","0.2182600554","0.3859199101","0.4221145333","0.1413073252","","","","","","","","","","75","K","2","","","191","main_expt","",""
"","bandit","273","672712","0.0-233.0-0.0","94384072","wem/bandit_party_1","A3QAHF4UUBM7ZO","either","8","234","","","","","","","0","1","0","","0.392668484","0.2","0.6","0.4","0.8","0.2681613901","0.392668484","0.3913199708","0.1868627967","","","","","","","","","","","","","","74","J","1","","","192","main_expt","",""
"","bandit","274","674558","0.0-234.0-0.0","94384072","wem/bandit_party_1","A3QAHF4UUBM7ZO","either","8","335","","","","","","","1","0","0","0.2312719224","","0.2","0.6","0.4","0.8","","","","","0.3035027483","0.3789843676","0.4013624592","0.2312719224","","","","","","","","","","76","L","3","","","193","main_expt","",""
"","bandit","275","676291","0.0-235.0-0.0","94384072","wem/bandit_party_1","A3QAHF4UUBM7ZO","either","8","223","","","","","","","0","0","1","","0.3668237699","0.2","0.6","0.4","0.8","0.275531754","0.3689216281","0.3668237699","0.2585201677","","","","","","","","","","","","","","75","K","2","","","194","main_expt","",""
"","bandit","276","677974","0.0-236.0-0.0","94384072","wem/bandit_party_1","A3QAHF4UUBM7ZO","either","8","169","","","","","","","1","0","0","0.4136905162","","0.2","0.6","0.4","0.8","","","","","0.2716401532","0.4136905162","0.3856266791","0.2786104129","","","","","","","","","","74","J","1","","","195","main_expt","",""
"","bandit","277","679760","0.0-237.0-0.0","94384072","wem/bandit_party_1","A3QAHF4UUBM7ZO","either","8","276","","","","","","","0","1","0","","0.2814611543","0.2","0.6","0.4","0.8","0.2814611543","0.4258575101","0.3702439493","0.2407834285","","","","","","","","","","","","","","72","H","0","img/none_selected.jpg","","196","main_expt","",""
"","bandit","278","681527","0.0-238.0-0.0","94384072","wem/bandit_party_1","A3QAHF4UUBM7ZO","either","8","258","","","","","","","0","0","1","0.2550568011","","0.2","0.6","0.4","0.8","","","","","0.2588010394","0.3976178043","0.3665926528","0.2550568011","","","","","","","","","","76","L","3","","","197","main_expt","",""
"","bandit","279","683583","0.0-239.0-0.0","94384072","wem/bandit_party_1","A3QAHF4UUBM7ZO","either","8","546","","","","","","","0","0","1","0.3432124584","","0.2","0.6","0.4","0.8","","","","","0.3094610495","0.3802378075","0.3432124584","0.3094863904","","","","","","","","","","75","K","2","","","198","main_expt","",""
"","bandit","280","685326","0.0-240.0-0.0","94384072","wem/bandit_party_1","A3QAHF4UUBM7ZO","either","8","233","","","","","","","0","0","1","0.3926800246","","0.2","0.6","0.4","0.8","","","","","0.3139278769","0.3926800246","0.4096574544","0.3012985694","","","","","","","","","","74","J","1","","","199","main_expt","",""
"","bandit","281","687129","0.0-241.0-0.0","94384072","wem/bandit_party_1","A3QAHF4UUBM7ZO","either","8","293","","","","","","","0","0","1","","0.3459706187","0.2","0.6","0.4","0.8","0.3459706187","0.3814844917","0.3799023259","0.3149132519","","","","","","","","","","","","","","72","H","0","img/none_selected.jpg","","200","main_expt","",""
"","bandit","282","688644","0.0-242.0-0.0","94384072","wem/bandit_party_1","A3QAHF4UUBM7ZO","either","8","3","","","","","","","0","0","1","0.3236307962","","0.2","0.6","0.4","0.8","","","","","0.3038365479","0.3831630738","0.3513783521","0.3236307962","","","","","","","","","","76","L","3","","","201","main_expt","",""
"","bandit","283","690219","0.0-243.0-0.0","94384072","wem/bandit_party_1","A3QAHF4UUBM7ZO","either","8","64","","","","","","","0","0","1","","0.3439351057","0.2","0.6","0.4","0.8","0.2964599608","0.3957430938","0.3439351057","0.3163717903","","","","","","","","","","","","","","75","K","2","","","202","main_expt","",""
"","bandit","284","691990","0.0-244.0-0.0","94384072","wem/bandit_party_1","A3QAHF4UUBM7ZO","either","8","262","","","","","","","0","0","1","0.4175506619","","0.2","0.6","0.4","0.8","","","","","0.280336616","0.4175506619","0.2615327891","0.3165936227","","","","","","","","","","74","J","1","","","203","main_expt","",""
"","bandit","285","693767","0.0-245.0-0.0","94384072","wem/bandit_party_1","A3QAHF4UUBM7ZO","either","8","264","","","","","","","0","0","1","0.3166231072","","0.2","0.6","0.4","0.8","","","","","0.262900641","0.4356800279","0.2211517471","0.3166231072","","","","","","","","","","76","L","3","","","204","main_expt","",""
"","bandit","286","695879","0.0-246.0-0.0","94384072","wem/bandit_party_1","A3QAHF4UUBM7ZO","either","8","601","","","","","","","0","1","0","","0.3403150927","0.2","0.6","0.4","0.8","0.3403150927","0.4342993254","0.1955747294","0.2983153058","","","","","","","","","","","","","","72","H","0","img/none_selected.jpg","","205","main_expt","",""
"","bandit","287","698109","0.0-247.0-0.0","94384072","wem/bandit_party_1","A3QAHF4UUBM7ZO","either","8","721","","","","","","","0","0","1","0.4515967499","","0.2","0.6","0.4","0.8","","","","","0.3407188883","0.4515967499","0.3137251184","0.255573156","","","","","","","","","","74","J","1","","","206","main_expt","",""
"","bandit","288","699915","0.0-248.0-0.0","94384072","wem/bandit_party_1","A3QAHF4UUBM7ZO","either","8","296","","","","","","","0","0","1","","0.2955601217","0.2","0.6","0.4","0.8","0.2955601217","0.4559700358","0.2982459604","0.2816724171","","","","","","","","","","","","","","72","H","0","img/none_selected.jpg","","207","main_expt","",""
"","bandit","289","701695","0.0-249.0-0.0","94384072","wem/bandit_party_1","A3QAHF4UUBM7ZO","either","8","270","","","","","","","0","0","1","0.2462622089","","0.2","0.6","0.4","0.8","","","","","0.2832193826","0.4711787588","0.2359404152","0.2462622089","","","","","","","","","","76","L","3","","","208","main_expt","",""
"","bandit","290","703660","0.0-250.0-0.0","94384072","wem/bandit_party_1","A3QAHF4UUBM7ZO","either","8","454","","","","","","","0","0","1","0.2396635106","","0.2","0.6","0.4","0.8","","","","","0.25637755","0.4859779177","0.2396635106","0.2608633631","","","","","","","","","","75","K","2","","","209","main_expt","",""
"","bandit","291","705625","0.0-251.0-0.0","94384072","wem/bandit_party_1","A3QAHF4UUBM7ZO","either","8","455","","","","","","","0","1","0","","0.4798195452","0.2","0.6","0.4","0.8","0.2500912527","0.4798195452","0.2320506775","0.2649708152","","","","","","","","","","","","","","74","J","1","","","210","main_expt","",""
"","bandit","292","707461","0.0-252.0-0.0","94384072","wem/bandit_party_1","A3QAHF4UUBM7ZO","either","8","326","","","","","","","0","0","1","","0.2658594566","0.2","0.6","0.4","0.8","0.2481129288","0.4754072522","0.1894847828","0.2658594566","","","","","","","","","","","","","","76","L","3","","","211","main_expt","",""
"","bandit","293","709417","0.0-253.0-0.0","94384072","wem/bandit_party_1","A3QAHF4UUBM7ZO","either","8","445","","","","","","","0","0","1","0.4780703898","","0.2","0.6","0.4","0.8","","","","","0.3192168596","0.4780703898","0.2330804604","0.2648449814","","","","","","","","","","74","J","1","","","212","main_expt","",""
"","bandit","294","711000","0.0-254.0-0.0","94384072","wem/bandit_party_1","A3QAHF4UUBM7ZO","either","8","73","","","","","","","0","0","1","","0.2361953268","0.2","0.6","0.4","0.8","0.2361953268","0.4883488692","0.2484053244","0.286492297","","","","","","","","","","","","","","72","H","0","img/none_selected.jpg","","213","main_expt","",""
"","bandit","295","713126","0.0-255.0-0.0","94384072","wem/bandit_party_1","A3QAHF4UUBM7ZO","either","8","616","","","","","","","0","0","1","0.2182548364","","0.2","0.6","0.4","0.8","","","","","0.2308921763","0.4872562331","0.2182548364","0.2540339129","","","","","","","","","","75","K","2","","","214","main_expt","",""
"","bandit","296","715471","0.0-256.0-0.0","94384072","wem/bandit_party_1","A3QAHF4UUBM7ZO","either","8","835","","","","","","","0","0","1","0.4749609167","","0.2","0.6","0.4","0.8","","","","","0.2161033537","0.4749609167","0.1824073789","0.254651127","","","","","","","","","","74","J","1","","","215","main_expt","",""
"","bandit","297","718186","0.0-257.0-0.0","94384072","wem/bandit_party_1","A3QAHF4UUBM7ZO","either","8","1206","","","","","","","0","0","1","0.3140517816","","0.2","0.6","0.4","0.8","","","","","0.1896756427","0.4798413464","0.1923730387","0.3140517816","","","","","","","","","","76","L","3","","","216","main_expt","",""
"","bandit","298","720453","0.0-258.0-0.0","94384072","wem/bandit_party_1","A3QAHF4UUBM7ZO","either","8","757","","","","","","","0","0","1","0.4865144435","","0.2","0.6","0.4","0.8","","","","","0.1724286307","0.4865144435","0.2266612446","0.3338676317","","","","","","","","","","74","J","1","","","217","main_expt","",""
"","bandit","299","722494","0.0-259.0-0.0","94384072","wem/bandit_party_1","A3QAHF4UUBM7ZO","either","8","530","","","","","","","0","0","1","","0.161168334","0.2","0.6","0.4","0.8","0.161168334","0.4789145001","0.1702705737","0.3397001125","","","","","","","","","","","","","","72","H","0","img/none_selected.jpg","","218","main_expt","",""
"","bandit","300","724885","0.0-260.0-0.0","94384072","wem/bandit_party_1","A3QAHF4UUBM7ZO","either","8","879","","","","","","","0","0","1","0.4834748692","","0.2","0.6","0.4","0.8","","","","","0.2021763003","0.4834748692","0.1159766116","0.2982528089","","","","","","","","","","74","J","1","","","219","main_expt","",""
"","bandit","301","727012","0.0-261.0-0.0","94384072","wem/bandit_party_1","A3QAHF4UUBM7ZO","either","8","615","","","","","","","0","0","1","0.2770934022","","0.2","0.6","0.4","0.8","","","","","0.2142164272","0.4722371777","0.09529473055","0.2770934022","","","","","","","","","","76","L","3","","","220","main_expt","",""
"","bandit","302","729103","0.0-262.0-0.0","94384072","wem/bandit_party_1","A3QAHF4UUBM7ZO","either","8","580","","","","","","","1","0","0","0.4654689219","","0.2","0.6","0.4","0.8","","","","","0.189068297","0.4654689219","0.09060922323","0.2696770889","","","","","","","","","","74","J","1","","","221","main_expt","",""
"","bandit","303","731026","0.0-263.0-0.0","94384072","wem/bandit_party_1","A3QAHF4UUBM7ZO","either","8","413","","","","","","","0","0","1","","0.1250772464","0.2","0.6","0.4","0.8","0.2120997892","0.4533789701","0.1250772464","0.3103502417","","","","","","","","","","","","","","75","K","2","","","222","main_expt","",""
"","bandit","304","733005","0.0-264.0-0.0","94384072","wem/bandit_party_1","A3QAHF4UUBM7ZO","either","8","463","","","","","","","0","0","1","","0.1177235221","0.2","0.6","0.4","0.8","0.1937664477","0.4473019993","0.1177235221","0.3477728299","","","","","","","","","","","","","","75","K","2","","","223","main_expt","",""
"","bandit","305","734888","0.0-265.0-0.0","94384072","wem/bandit_party_1","A3QAHF4UUBM7ZO","either","8","370","","","","","","","0","0","1","0.2195846313","","0.2","0.6","0.4","0.8","","","","","0.2195846313","0.4651086175","0.1589673504","0.3230244909","","","","","","","","","","72","H","0","img/none_selected.jpg","","224","main_expt","",""
"","bandit","306","736678","0.0-266.0-0.0","94384072","wem/bandit_party_1","A3QAHF4UUBM7ZO","either","8","281","","","","","","","0","0","1","0.3641913847","","0.2","0.6","0.4","0.8","","","","","0.1973587738","0.4704934375","0.1582937281","0.3641913847","","","","","","","","","","76","L","3","","","225","main_expt","",""
"","bandit","307","738584","0.0-267.0-0.0","94384072","wem/bandit_party_1","A3QAHF4UUBM7ZO","either","8","394","","","","","","","1","0","0","0.4545632724","","0.2","0.6","0.4","0.8","","","","","0.2029059012","0.4545632724","0.1585786296","0.3211822138","","","","","","","","","","74","J","1","","","226","main_expt","",""
"","bandit","308","740644","0.0-268.0-0.0","94384072","wem/bandit_party_1","A3QAHF4UUBM7ZO","either","8","546","","","","","","","0","0","1","","0.1677618241","0.2","0.6","0.4","0.8","0.1677618241","0.4313330006","0.1614007709","0.3318596792","","","","","","","","","","","","","","72","H","0","img/none_selected.jpg","","227","main_expt","",""
"","bandit","309","742450","0.0-269.0-0.0","94384072","wem/bandit_party_1","A3QAHF4UUBM7ZO","either","8","295","","","","","","","0","0","1","0.1160982884","","0.2","0.6","0.4","0.8","","","","","0.2079318551","0.4253897179","0.1160982884","0.3715738924","","","","","","","","","","75","K","2","","","228","main_expt","",""
"","bandit","310","744296","0.0-270.0-0.0","94384072","wem/bandit_party_1","A3QAHF4UUBM7ZO","either","8","335","","","","","","","0","0","1","","0.1860779256","0.2","0.6","0.4","0.8","0.1860779256","0.4416009531","0.1327168588","0.3571583743","","","","","","","","","","","","","","72","H","0","img/none_selected.jpg","","229","main_expt","",""
"","bandit","311","746362","0.0-271.0-0.0","94384072","wem/bandit_party_1","A3QAHF4UUBM7ZO","either","8","554","","","","","","","1","0","0","0.3455313741","","0.2","0.6","0.4","0.8","","","","","0.1294985144","0.4612445757","0.1751239199","0.3455313741","","","","","","","","","","76","L","3","","","230","main_expt","",""
"","bandit","312","748279","0.0-272.0-0.0","94384072","wem/bandit_party_1","A3QAHF4UUBM7ZO","either","8","407","","","","","","","0","0","1","","0.2080149414","0.2","0.6","0.4","0.8","0.1424139305","0.4455927364","0.2080149414","0.3114256563","","","","","","","","","","","","","","75","K","2","","","231","main_expt","",""
"","bandit","313","750347","0.0-273.0-0.0","94384072","wem/bandit_party_1","A3QAHF4UUBM7ZO","either","8","555","","","","","","","0","0","1","","0.1777617008","0.2","0.6","0.4","0.8","0.1777617008","0.4449483857","0.2305008548","0.3127001645","","","","","","","","","","","","","","72","H","0","img/none_selected.jpg","","232","main_expt","",""
"","bandit","314","752285","0.0-274.0-0.0","94384072","wem/bandit_party_1","A3QAHF4UUBM7ZO","either","8","427","","","","","","","0","0","1","0.4570404202","","0.2","0.6","0.4","0.8","","","","","0.1408291819","0.4570404202","0.2331895239","0.2953609795","","","","","","","","","","74","J","1","","","233","main_expt","",""
