"consent","trial_type","trial_index","time_elapsed","internal_node_id","subjID","study","MID","cond","drift","rt","responses","button_pressed","key_press","like","value","connected","gems","bombs","no_reward","GemPrChosen","BombPrChosen","GainOverPainPr_0","GainOverPainPr_1","GainOverPainPr_2","GainOverPainPr_3","LosePr_0","LosePr_1","LosePr_2","LosePr_3","WinPr_0","WinPr_1","WinPr_2","WinPr_3","Q0","Q1","Q2","gender","age","ethnicity","label","expt_phase","target","respCharCode","respKey","respChoiceNum","respChoice","practice","trial_counter","trial_label","Q0_index"
"GDM/GDM_behavioral_consent_30min_online.html","consent","0","9891","0.0-0.0","95376387","wem/bandit_party_1","A229SEF35EGTSF","either","5","","","","","","","","","","","","","","","","","","","","","","","","","","","","","","","","","","","","","","","","",""
"","survey-text","1","17251","0.0-1.0","95376387","wem/bandit_party_1","A229SEF35EGTSF","either","5","6347","{""Q0"":""A229SEF35EGTSF""}","","","","","","","","","","","","","","","","","","","","","","","","","","","","","","","","","","","","","","",""
"","button-response","2","19894","0.0-2.0","95376387","wem/bandit_party_1","A229SEF35EGTSF","either","5","1622","","1","","","","","","","","","","","","","","","","","","","","","","","","","","","","","","","","","","","","","",""
"","text-replacement","3","32595","0.0-3.0","95376387","wem/bandit_party_1","A229SEF35EGTSF","either","5","11686","","","32","","","","","","","","","","","","","","","","","","","","","","","","","","","","","","","","","","","","",""
"","text-replacement","4","45030","0.0-4.0","95376387","wem/bandit_party_1","A229SEF35EGTSF","either","5","12428","","","32","","","","","","","","","","","","","","","","","","","","","","","","","","","","","","","","","","","","",""
"","identification","5","52893","0.0-6.0-0.0","95376387","wem/bandit_party_1","A229SEF35EGTSF","either","5","7826","","","","4","5","2","","","","","","","","","","","","","","","","","","","","","","","","pre","identification_pre","the Democratic Party","","","","","","","",""
"","identification","6","60693","0.0-6.0-1.0","95376387","wem/bandit_party_1","A229SEF35EGTSF","either","5","6758","","","","1","1","0","","","","","","","","","","","","","","","","","","","","","","","","pre","identification_pre","the Republican party","","","","","","","",""
"","text-replacement","7","67787","0.0-7.0","95376387","wem/bandit_party_1","A229SEF35EGTSF","either","5","6088","","","32","","","","","","","","","","","","","","","","","","","","","","","","","","","","","","","","","","","","",""
"","text-replacement","8","77567","0.0-8.0","95376387","wem/bandit_party_1","A229SEF35EGTSF","either","5","9775","","","32","","","","","","","","","","","","","","","","","","","","","","","","","","","","","","","","","","","","",""
"","text-replacement","9","89526","0.0-9.0","95376387","wem/bandit_party_1","A229SEF35EGTSF","either","5","11948","","","32","","","","","","","","","","","","","","","","","","","","","","","","","","","","","","","","","","","","",""
"","text-replacement","10","94306","0.0-10.0","95376387","wem/bandit_party_1","A229SEF35EGTSF","either","5","4772","","","32","","","","","","","","","","","","","","","","","","","","","","","","","","","","","","","","","","","","",""
"","text-replacement","11","100867","0.0-11.0","95376387","wem/bandit_party_1","A229SEF35EGTSF","either","5","6556","","","32","","","","","","","","","","","","","","","","","","","","","","","","","","","","","","","","","","","","",""
"","bandit","12","106559","0.0-12.0-0.0","95376387","wem/bandit_party_1","A229SEF35EGTSF","either","5","4170","","","","","","","0","0","1","0","0","","","","","0","","","","0","","","","","","","","","","","","","74","J","0","img/none_selected_demo.jpg","true","0","",""
"","bandit","13","109870","0.0-13.0-0.0","95376387","wem/bandit_party_1","A229SEF35EGTSF","either","5","1789","","","","","","","0","0","1","0","0","","","","","0","","","","0","","","","","","","","","","","","","75","K","0","img/none_selected_demo.jpg","true","0","",""
"","text-replacement","14","116514","0.0-14.0","95376387","wem/bandit_party_1","A229SEF35EGTSF","either","5","6637","","","32","","","","","","","","","","","","","","","","","","","","","","","","","","","","","","","","","","","","",""
"","text-replacement","15","125164","0.0-15.0","95376387","wem/bandit_party_1","A229SEF35EGTSF","either","5","8644","","","32","","","","","","","","","","","","","","","","","","","","","","","","","","","","","","","","","","","","",""
"","text-replacement","16","134303","0.0-16.0","95376387","wem/bandit_party_1","A229SEF35EGTSF","either","5","9135","","","32","","","","","","","","","","","","","","","","","","","","","","","","","","","","","","","","","","","","",""
"","text-replacement","17","140814","0.0-17.0","95376387","wem/bandit_party_1","A229SEF35EGTSF","either","5","6507","","","32","","","","","","","","","","","","","","","","","","","","","","","","","","","","","","","","","","","","",""
"","bandit","18","143892","0.0-18.0-0.0","95376387","wem/bandit_party_1","A229SEF35EGTSF","either","5","1558","","","","","","","0","1","0","","0.8","0.5","0.5","","","0.8","0.2","","","","","","","","","","","","","","","","74","J","0","img/none_selected_demo.jpg","true","0","80_20_practice",""
"","bandit","19","145831","0.0-18.0-1.0","95376387","wem/bandit_party_1","A229SEF35EGTSF","either","5","421","","","","","","","1","0","0","0.8","","0.5","0.5","","","","","","","0.8","0.2","","","","","","","","","","","","74","J","0","img/none_selected_demo.jpg","true","0","80_20_practice",""
"","bandit","20","147737","0.0-18.0-2.0","95376387","wem/bandit_party_1","A229SEF35EGTSF","either","5","387","","","","","","","0","0","1","","0.8","0.5","0.5","","","0.8","0.2","","","","","","","","","","","","","","","","74","J","0","img/none_selected_demo.jpg","true","0","80_20_practice",""
"","bandit","21","149594","0.0-18.0-3.0","95376387","wem/bandit_party_1","A229SEF35EGTSF","either","5","334","","","","","","","0","1","0","","0.8","0.5","0.5","","","0.8","0.2","","","","","","","","","","","","","","","","74","J","0","img/none_selected_demo.jpg","true","0","80_20_practice",""
"","bandit","22","151589","0.0-18.0-4.0","95376387","wem/bandit_party_1","A229SEF35EGTSF","either","5","475","","","","","","","1","0","0","0.8","","0.5","0.5","","","","","","","0.8","0.2","","","","","","","","","","","","74","J","0","img/none_selected_demo.jpg","true","0","80_20_practice",""
"","bandit","23","153435","0.0-18.0-5.0","95376387","wem/bandit_party_1","A229SEF35EGTSF","either","5","332","","","","","","","0","1","0","","0.8","0.5","0.5","","","0.8","0.2","","","","","","","","","","","","","","","","74","J","0","img/none_selected_demo.jpg","true","0","80_20_practice",""
"","bandit","24","155299","0.0-18.0-6.0","95376387","wem/bandit_party_1","A229SEF35EGTSF","either","5","342","","","","","","","0","0","1","","0.8","0.5","0.5","","","0.8","0.2","","","","","","","","","","","","","","","","74","J","0","img/none_selected_demo.jpg","true","0","80_20_practice",""
"","bandit","25","158167","0.0-18.0-7.0","95376387","wem/bandit_party_1","A229SEF35EGTSF","either","5","1349","","","","","","","1","0","0","0.8","","0.5","0.5","","","","","","","0.8","0.2","","","","","","","","","","","","74","J","0","img/none_selected_demo.jpg","true","0","80_20_practice",""
"","bandit","26","160093","0.0-18.0-8.0","95376387","wem/bandit_party_1","A229SEF35EGTSF","either","5","405","","","","","","","0","1","0","","0.8","0.5","0.5","","","0.8","0.2","","","","","","","","","","","","","","","","74","J","0","img/none_selected_demo.jpg","true","0","80_20_practice",""
"","bandit","27","161931","0.0-18.0-9.0","95376387","wem/bandit_party_1","A229SEF35EGTSF","either","5","326","","","","","","","0","1","0","","0.8","0.5","0.5","","","0.8","0.2","","","","","","","","","","","","","","","","74","J","0","img/none_selected_demo.jpg","true","0","80_20_practice",""
"","bandit","28","163768","0.0-18.0-10.0","95376387","wem/bandit_party_1","A229SEF35EGTSF","either","5","318","","","","","","","1","0","0","0.8","","0.5","0.5","","","","","","","0.8","0.2","","","","","","","","","","","","74","J","0","img/none_selected_demo.jpg","true","0","80_20_practice",""
"","bandit","29","165648","0.0-18.0-11.0","95376387","wem/bandit_party_1","A229SEF35EGTSF","either","5","356","","","","","","","1","0","0","0.8","","0.5","0.5","","","","","","","0.8","0.2","","","","","","","","","","","","74","J","0","img/none_selected_demo.jpg","true","0","80_20_practice",""
"","bandit","30","167464","0.0-18.0-12.0","95376387","wem/bandit_party_1","A229SEF35EGTSF","either","5","300","","","","","","","0","1","0","","0.8","0.5","0.5","","","0.8","0.2","","","","","","","","","","","","","","","","74","J","0","img/none_selected_demo.jpg","true","0","80_20_practice",""
"","bandit","31","169366","0.0-18.0-13.0","95376387","wem/bandit_party_1","A229SEF35EGTSF","either","5","384","","","","","","","1","0","0","0.8","","0.5","0.5","","","","","","","0.8","0.2","","","","","","","","","","","","74","J","0","img/none_selected_demo.jpg","true","0","80_20_practice",""
"","bandit","32","171047","0.0-18.0-14.0","95376387","wem/bandit_party_1","A229SEF35EGTSF","either","5","173","","","","","","","1","0","0","0.8","","0.5","0.5","","","","","","","0.8","0.2","","","","","","","","","","","","74","J","0","img/none_selected_demo.jpg","true","0","80_20_practice",""
"","bandit","33","172886","0.0-18.0-15.0","95376387","wem/bandit_party_1","A229SEF35EGTSF","either","5","329","","","","","","","1","0","0","0.8","","0.5","0.5","","","","","","","0.8","0.2","","","","","","","","","","","","74","J","0","img/none_selected_demo.jpg","true","0","80_20_practice",""
"","bandit","34","175881","0.0-18.0-16.0","95376387","wem/bandit_party_1","A229SEF35EGTSF","either","5","1474","","","","","","","1","0","0","0.8","","0.5","0.5","","","","","","","0.8","0.2","","","","","","","","","","","","74","J","0","img/none_selected_demo.jpg","true","0","80_20_practice",""
"","bandit","35","177442","0.0-18.0-17.0","95376387","wem/bandit_party_1","A229SEF35EGTSF","either","5","38","","","","","","","0","1","0","","0.8","0.5","0.5","","","0.8","0.2","","","","","","","","","","","","","","","","74","J","0","img/none_selected_demo.jpg","true","0","80_20_practice",""
"","bandit","36","179655","0.0-18.0-18.0","95376387","wem/bandit_party_1","A229SEF35EGTSF","either","5","698","","","","","","","1","0","0","0.8","","0.5","0.5","","","","","","","0.8","0.2","","","","","","","","","","","","74","J","0","img/none_selected_demo.jpg","true","0","80_20_practice",""
"","bandit","37","181870","0.0-18.0-19.0","95376387","wem/bandit_party_1","A229SEF35EGTSF","either","5","694","","","","","","","0","1","0","","0.8","0.5","0.5","","","0.8","0.2","","","","","","","","","","","","","","","","74","J","0","img/none_selected_demo.jpg","true","0","80_20_practice",""
"","text-replacement","38","189422","0.0-19.0","95376387","wem/bandit_party_1","A229SEF35EGTSF","either","5","7541","","","32","","","","","","","","","","","","","","","","","","","","","","","","","","","","","","","","","","","","",""
"","bandit","39","193895","0.0-20.0-0.0","95376387","wem/bandit_party_1","A229SEF35EGTSF","either","5","2961","","","","","","","1","0","0","1","0","","","","","0","1","","","1","0","","","","","","","","","","","","74","J","0","img/none_selected_demo.jpg","true","0","",""
"","text-replacement","40","205976","0.0-21.0","95376387","wem/bandit_party_1","A229SEF35EGTSF","either","5","12076","","","32","","","","","","","","","","","","","","","","","","","","","","","","","","","","","","","","","","","","",""
"","text-replacement","41","208932","0.0-22.0","95376387","wem/bandit_party_1","A229SEF35EGTSF","either","5","2945","","","32","","","","","","","","","","","","","","","","","","","","","","","","","","","","","","","","","","","","",""
"","text-replacement","42","212201","0.0-23.0","95376387","wem/bandit_party_1","A229SEF35EGTSF","either","5","3265","","","32","","","","","","","","","","","","","","","","","","","","","","","","","","","","","","","","","","","","",""
"","text-replacement","43","216705","0.0-24.0","95376387","wem/bandit_party_1","A229SEF35EGTSF","either","5","4499","","","32","","","","","","","","","","","","","","","","","","","","","","","","","","","","","","","","","","","","",""
"","text-replacement","44","223420","0.0-25.0","95376387","wem/bandit_party_1","A229SEF35EGTSF","either","5","6709","","","32","","","","","","","","","","","","","","","","","","","","","","","","","","","","","","","","","","","","",""
"","text-replacement","45","226581","0.0-26.0","95376387","wem/bandit_party_1","A229SEF35EGTSF","either","5","3153","","","32","","","","","","","","","","","","","","","","","","","","","","","","","","","","","","","","","","","","",""
"","text-replacement","46","233770","0.0-27.0","95376387","wem/bandit_party_1","A229SEF35EGTSF","either","5","7178","","","32","","","","","","","","","","","","","","","","","","","","","","","","","","","","","","","","","","","","",""
"","text-replacement","47","238641","0.0-28.0","95376387","wem/bandit_party_1","A229SEF35EGTSF","either","5","4858","","","32","","","","","","","","","","","","","","","","","","","","","","","","","","","","","","","","","","","","",""
"","text-replacement","48","244808","0.0-29.0","95376387","wem/bandit_party_1","A229SEF35EGTSF","either","5","6159","","","32","","","","","","","","","","","","","","","","","","","","","","","","","","","","","","","","","","","","",""
"","text-replacement","49","247284","0.0-30.0","95376387","wem/bandit_party_1","A229SEF35EGTSF","either","5","2467","","","32","","","","","","","","","","","","","","","","","","","","","","","","","","","","","","","","","","","","",""
"","text-replacement","50","251990","0.0-31.0","95376387","wem/bandit_party_1","A229SEF35EGTSF","either","5","4700","","","32","","","","","","","","","","","","","","","","","","","","","","","","","","","","","","","","","","","","",""
"","bandit","51","254287","0.0-32.0-0.0","95376387","wem/bandit_party_1","A229SEF35EGTSF","either","5","775","","","","","","","1","0","0","0.8","","0.5","0.5","0.5","0.5","","","","","0.8","0.2","0.6","0.2","","","","","","","","","","72","H","0","img/none_selected.jpg","true","0","full_practice",""
"","bandit","52","256221","0.0-32.0-1.0","95376387","wem/bandit_party_1","A229SEF35EGTSF","either","5","412","","","","","","","1","0","0","0.8","","0.5","0.5","0.5","0.5","","","","","0.8","0.2","0.6","0.2","","","","","","","","","","72","H","0","img/none_selected.jpg","true","0","full_practice",""
"","bandit","53","258163","0.0-32.0-2.0","95376387","wem/bandit_party_1","A229SEF35EGTSF","either","5","420","","","","","","","0","1","0","","0.8","0.5","0.5","0.5","0.5","0.8","0.2","0.6","0.2","","","","","","","","","","","","","","72","H","0","img/none_selected.jpg","true","0","full_practice",""
"","bandit","54","260058","0.0-32.0-3.0","95376387","wem/bandit_party_1","A229SEF35EGTSF","either","5","387","","","","","","","0","1","0","","0.8","0.5","0.5","0.5","0.5","0.8","0.2","0.6","0.2","","","","","","","","","","","","","","72","H","0","img/none_selected.jpg","true","0","full_practice",""
"","bandit","55","263372","0.0-32.0-4.0","95376387","wem/bandit_party_1","A229SEF35EGTSF","either","5","1787","","","","","","","0","0","1","0.8","","0.5","0.5","0.5","0.5","","","","","0.8","0.2","0.6","0.2","","","","","","","","","","72","H","0","img/none_selected.jpg","true","0","full_practice",""
"","bandit","56","265275","0.0-32.0-5.0","95376387","wem/bandit_party_1","A229SEF35EGTSF","either","5","392","","","","","","","0","1","0","","0.8","0.5","0.5","0.5","0.5","0.8","0.2","0.6","0.2","","","","","","","","","","","","","","72","H","0","img/none_selected.jpg","true","0","full_practice",""
"","bandit","57","267638","0.0-32.0-6.0","95376387","wem/bandit_party_1","A229SEF35EGTSF","either","5","848","","","","","","","0","1","0","","0.8","0.5","0.5","0.5","0.5","0.8","0.2","0.6","0.2","","","","","","","","","","","","","","72","H","0","img/none_selected.jpg","true","0","full_practice",""
"","bandit","58","269503","0.0-32.0-7.0","95376387","wem/bandit_party_1","A229SEF35EGTSF","either","5","356","","","","","","","1","0","0","0.8","","0.5","0.5","0.5","0.5","","","","","0.8","0.2","0.6","0.2","","","","","","","","","","72","H","0","img/none_selected.jpg","true","0","full_practice",""
"","bandit","59","272265","0.0-32.0-8.0","95376387","wem/bandit_party_1","A229SEF35EGTSF","either","5","1250","","","","","","","0","1","0","","0.8","0.5","0.5","0.5","0.5","0.8","0.2","0.6","0.2","","","","","","","","","","","","","","72","H","0","img/none_selected.jpg","true","0","full_practice",""
"","bandit","60","275477","0.0-32.0-9.0","95376387","wem/bandit_party_1","A229SEF35EGTSF","either","5","1699","","","","","","","1","0","0","0.8","","0.5","0.5","0.5","0.5","","","","","0.8","0.2","0.6","0.2","","","","","","","","","","72","H","0","img/none_selected.jpg","true","0","full_practice",""
"","bandit","61","277262","0.0-32.0-10.0","95376387","wem/bandit_party_1","A229SEF35EGTSF","either","5","248","","","","","","","0","1","0","","0.8","0.5","0.5","0.5","0.5","0.8","0.2","0.6","0.2","","","","","","","","","","","","","","72","H","0","img/none_selected.jpg","true","0","full_practice",""
"","bandit","62","280098","0.0-32.0-11.0","95376387","wem/bandit_party_1","A229SEF35EGTSF","either","5","1318","","","","","","","1","0","0","0.8","","0.5","0.5","0.5","0.5","","","","","0.8","0.2","0.6","0.2","","","","","","","","","","72","H","0","img/none_selected.jpg","true","0","full_practice",""
"","bandit","63","283043","0.0-32.0-12.0","95376387","wem/bandit_party_1","A229SEF35EGTSF","either","5","1424","","","","","","","1","0","0","0.8","","0.5","0.5","0.5","0.5","","","","","0.8","0.2","0.6","0.2","","","","","","","","","","72","H","0","img/none_selected.jpg","true","0","full_practice",""
"","bandit","64","285845","0.0-32.0-13.0","95376387","wem/bandit_party_1","A229SEF35EGTSF","either","5","1263","","","","","","","1","0","0","0.8","","0.5","0.5","0.5","0.5","","","","","0.8","0.2","0.6","0.2","","","","","","","","","","72","H","0","img/none_selected.jpg","true","0","full_practice",""
"","bandit","65","287635","0.0-32.0-14.0","95376387","wem/bandit_party_1","A229SEF35EGTSF","either","5","266","","","","","","","1","0","0","0.8","","0.5","0.5","0.5","0.5","","","","","0.8","0.2","0.6","0.2","","","","","","","","","","72","H","0","img/none_selected.jpg","true","0","full_practice",""
"","bandit","66","289820","0.0-32.0-15.0","95376387","wem/bandit_party_1","A229SEF35EGTSF","either","5","665","","","","","","","0","1","0","","0.8","0.5","0.5","0.5","0.5","0.8","0.2","0.6","0.2","","","","","","","","","","","","","","72","H","0","img/none_selected.jpg","true","0","full_practice",""
"","bandit","67","291751","0.0-32.0-16.0","95376387","wem/bandit_party_1","A229SEF35EGTSF","either","5","414","","","","","","","0","1","0","","0.8","0.5","0.5","0.5","0.5","0.8","0.2","0.6","0.2","","","","","","","","","","","","","","72","H","0","img/none_selected.jpg","true","0","full_practice",""
"","bandit","68","293827","0.0-32.0-17.0","95376387","wem/bandit_party_1","A229SEF35EGTSF","either","5","558","","","","","","","1","0","0","0.8","","0.5","0.5","0.5","0.5","","","","","0.8","0.2","0.6","0.2","","","","","","","","","","72","H","0","img/none_selected.jpg","true","0","full_practice",""
"","bandit","69","295656","0.0-32.0-18.0","95376387","wem/bandit_party_1","A229SEF35EGTSF","either","5","314","","","","","","","1","0","0","0.8","","0.5","0.5","0.5","0.5","","","","","0.8","0.2","0.6","0.2","","","","","","","","","","72","H","0","img/none_selected.jpg","true","0","full_practice",""
"","bandit","70","298771","0.0-32.0-19.0","95376387","wem/bandit_party_1","A229SEF35EGTSF","either","5","1594","","","","","","","1","0","0","0.8","","0.5","0.5","0.5","0.5","","","","","0.8","0.2","0.6","0.2","","","","","","","","","","72","H","0","img/none_selected.jpg","true","0","full_practice",""
"","text","71","302045","0.0-33.0","95376387","wem/bandit_party_1","A229SEF35EGTSF","either","5","3254","","","32","","","","","","","","","","","","","","","","","","","","","","","","","","","","","","","","","","","","",""
"","text-replacement","72","313562","0.0-34.0","95376387","wem/bandit_party_1","A229SEF35EGTSF","either","5","10506","","","32","","","","","","","","","","","","","","","","","","","","","","","","","","","","","","","","","","","","",""
"","text-replacement","73","330865","0.0-35.0","95376387","wem/bandit_party_1","A229SEF35EGTSF","either","5","17297","","","32","","","","","","","","","","","","","","","","","","","","","","","","","","","","","","","","","","","","",""
"","text-replacement","74","336257","0.0-36.0","95376387","wem/bandit_party_1","A229SEF35EGTSF","either","5","5384","","","32","","","","","","","","","","","","","","","","","","","","","","","","","","","","","","","","","","","","",""
"","text-replacement","75","344463","0.0-37.0","95376387","wem/bandit_party_1","A229SEF35EGTSF","either","5","8195","","","32","","","","","","","","","","","","","","","","","","","","","","","","","","","","","","","","","","","","",""
"","text-replacement","76","350689","0.0-38.0","95376387","wem/bandit_party_1","A229SEF35EGTSF","either","5","6211","","","32","","","","","","","","","","","","","","","","","","","","","","","","","","","","","","","","","","","","",""
"","survey-multi-choice-replacement","77","360222","0.0-39.0-0.0","95376387","wem/bandit_party_1","A229SEF35EGTSF","either","5","9508","","","","","","","","","","","","","","","","","","","","","","","","Money will be added to the pool for <span style='color:blue;'>DEMOCRATS</span>","","","","","","","attn_check","","","","","","","","","0"
"","survey-multi-choice-replacement","78","368731","0.0-40.0-0.0","95376387","wem/bandit_party_1","A229SEF35EGTSF","either","5","7488","","","","","","","","","","","","","","","","","","","","","","","","Equal amounts of money will be added to the pool for <span style='color:blue;'>DEMOCRATS</span> and subtracted from the pool for <span style='color:red;'>REPUBLICANS</span>","","","","","","","attn_check","","","","","","","","","2"
"","survey-multi-choice-replacement","79","373144","0.0-41.0-0.0","95376387","wem/bandit_party_1","A229SEF35EGTSF","either","5","3397","","","","","","","","","","","","","","","","","","","","","","","","No money will be added to either pool","","","","","","","attn_check","","","","","","","","","3"
"","bandit","80","378458","0.0-42.0-0.0","95376387","wem/bandit_party_1","A229SEF35EGTSF","either","5","2788","","","","","","","0","0","1","0.4265570961","","0.6","0.2","0.8","0.4","","","","","0.4265570961","0.3897275569","0.1165465043","0.3340388524","","","","","","","","","","72","H","0","img/none_selected.jpg","","1","main_expt",""
"","bandit","81","380417","0.0-43.0-0.0","95376387","wem/bandit_party_1","A229SEF35EGTSF","either","5","438","","","","","","","1","0","0","0.4177099958","","0.6","0.2","0.8","0.4","","","","","0.4177099958","0.3911966266","0.08371899021","0.3223834482","","","","","","","","","","72","H","0","img/none_selected.jpg","","2","main_expt",""
"","bandit","82","382317","0.0-44.0-0.0","95376387","wem/bandit_party_1","A229SEF35EGTSF","either","5","374","","","","","","","0","1","0","","0.4192185534","0.6","0.2","0.8","0.4","0.4192185534","0.4074861021","0.04339790364","0.3585509001","","","","","","","","","","","","","","72","H","0","img/none_selected.jpg","","3","main_expt",""
"","bandit","83","384196","0.0-45.0-0.0","95376387","wem/bandit_party_1","A229SEF35EGTSF","either","5","355","","","","","","","0","0","1","0.4241610434","","0.6","0.2","0.8","0.4","","","","","0.4241610434","0.3965638453","0.04073472785","0.3416436242","","","","","","","","","","72","H","0","img/none_selected.jpg","","4","main_expt",""
"","bandit","84","386074","0.0-46.0-0.0","95376387","wem/bandit_party_1","A229SEF35EGTSF","either","5","357","","","","","","","0","1","0","","0.4284837315","0.6","0.2","0.8","0.4","0.4284837315","0.3688269119","0.04731773769","0.3444758892","","","","","","","","","","","","","","72","H","0","img/none_selected.jpg","","5","main_expt",""
"","bandit","85","388956","0.0-47.0-0.0","95376387","wem/bandit_party_1","A229SEF35EGTSF","either","5","1357","","","","","","","0","0","1","0.4328708062","","0.6","0.2","0.8","0.4","","","","","0.4328708062","0.3865867917","0.05617088868","0.3574177426","","","","","","","","","","72","H","0","img/none_selected.jpg","","6","main_expt",""
"","bandit","86","390949","0.0-48.0-0.0","95376387","wem/bandit_party_1","A229SEF35EGTSF","either","5","467","","","","","","","0","0","1","0.4176545671","","0.6","0.2","0.8","0.4","","","","","0.4176545671","0.4294719924","0.05606577856","0.3634052143","","","","","","","","","","72","H","0","img/none_selected.jpg","","7","main_expt",""
"","bandit","87","392903","0.0-49.0-0.0","95376387","wem/bandit_party_1","A229SEF35EGTSF","either","5","426","","","","","","","0","0","1","","0.4022395488","0.6","0.2","0.8","0.4","0.4022395488","0.4210378118","0.09244853328","0.3675420607","","","","","","","","","","","","","","72","H","0","img/none_selected.jpg","","8","main_expt",""
"","bandit","88","394940","0.0-50.0-0.0","95376387","wem/bandit_party_1","A229SEF35EGTSF","either","5","514","","","","","","","0","0","1","","0.4502112583","0.6","0.2","0.8","0.4","0.3929004949","0.4502112583","0.1271341085","0.3921196104","","","","","","","","","","","","","","74","J","1","","","9","main_expt",""
"","bandit","89","396858","0.0-51.0-0.0","95376387","wem/bandit_party_1","A229SEF35EGTSF","either","5","397","","","","","","","0","0","1","","0.4452653155","0.6","0.2","0.8","0.4","0.3863711448","0.4452653155","0.1370717255","0.4026182126","","","","","","","","","","","","","","74","J","1","","","10","main_expt",""
"","bandit","90","398883","0.0-52.0-0.0","95376387","wem/bandit_party_1","A229SEF35EGTSF","either","5","503","","","","","","","0","0","1","0.1275050207","","0.6","0.2","0.8","0.4","","","","","0.4205849279","0.4352349267","0.1275050207","0.3543069494","","","","","","","","","","75","K","2","","","11","main_expt",""
"","bandit","91","400767","0.0-53.0-0.0","95376387","wem/bandit_party_1","A229SEF35EGTSF","either","5","363","","","","","","","0","0","1","0.122317004","","0.6","0.2","0.8","0.4","","","","","0.4525069231","0.4029030639","0.122317004","0.3504097904","","","","","","","","","","75","K","2","","","12","main_expt",""
"","bandit","92","402735","0.0-54.0-0.0","95376387","wem/bandit_party_1","A229SEF35EGTSF","either","5","448","","","","","","","0","0","1","","0.2787441393","0.6","0.2","0.8","0.4","0.4485799753","0.4198147105","0.1251711411","0.2787441393","","","","","","","","","","","","","","76","L","3","","","13","main_expt",""
"","bandit","93","404703","0.0-55.0-0.0","95376387","wem/bandit_party_1","A229SEF35EGTSF","either","5","443","","","","","","","0","0","1","","0.2723245106","0.6","0.2","0.8","0.4","0.4504049656","0.3761312174","0.1380641988","0.2723245106","","","","","","","","","","","","","","76","L","3","","","14","main_expt",""
"","bandit","94","406674","0.0-56.0-0.0","95376387","wem/bandit_party_1","A229SEF35EGTSF","either","5","450","","","","","","","0","1","0","","0.3687644442","0.6","0.2","0.8","0.4","0.4281165459","0.4017507227","0.2010812313","0.3687644442","","","","","","","","","","","","","","76","L","3","","","15","main_expt",""
"","bandit","95","408632","0.0-57.0-0.0","95376387","wem/bandit_party_1","A229SEF35EGTSF","either","5","431","","","","","","","0","0","1","","0.3992289848","0.6","0.2","0.8","0.4","0.4035101098","0.3859888637","0.1747275657","0.3992289848","","","","","","","","","","","","","","76","L","3","","","16","main_expt",""
"","bandit","96","410572","0.0-58.0-0.0","95376387","wem/bandit_party_1","A229SEF35EGTSF","either","5","413","","","","","","","0","0","1","","0.4067061876","0.6","0.2","0.8","0.4","0.4063691663","0.3706978481","0.1816524112","0.4067061876","","","","","","","","","","","","","","76","L","3","","","17","main_expt",""
"","bandit","97","412493","0.0-59.0-0.0","95376387","wem/bandit_party_1","A229SEF35EGTSF","either","5","397","","","","","","","1","0","0","0.1700798448","","0.6","0.2","0.8","0.4","","","","","0.4201618032","0.3323991027","0.1700798448","0.3969002131","","","","","","","","","","75","K","2","","","18","main_expt",""
"","bandit","98","414422","0.0-60.0-0.0","95376387","wem/bandit_party_1","A229SEF35EGTSF","either","5","406","","","","","","","0","0","1","0.1998500639","","0.6","0.2","0.8","0.4","","","","","0.3868389751","0.3301718366","0.1998500639","0.3930099592","","","","","","","","","","75","K","2","","","19","main_expt",""
"","bandit","99","416310","0.0-61.0-0.0","95376387","wem/bandit_party_1","A229SEF35EGTSF","either","5","366","","","","","","","0","0","1","0.2418808817","","0.6","0.2","0.8","0.4","","","","","0.3868875991","0.3714618997","0.2418808817","0.3791602553","","","","","","","","","","75","K","2","","","20","main_expt",""
"","bandit","100","418285","0.0-62.0-0.0","95376387","wem/bandit_party_1","A229SEF35EGTSF","either","5","414","","","","","","","0","0","1","0.2293341009","","0.6","0.2","0.8","0.4","","","","","0.4253770554","0.3621694591","0.2293341009","0.4127515201","","","","","","","","","","75","K","2","","","21","main_expt",""
"","bandit","101","420188","0.0-63.0-0.0","95376387","wem/bandit_party_1","A229SEF35EGTSF","either","5","387","","","","","","","0","0","1","","0.3648829928","0.6","0.2","0.8","0.4","0.4285762007","0.3648829928","0.2074184163","0.4164833055","","","","","","","","","","","","","","74","J","1","","","22","main_expt",""
"","bandit","102","422317","0.0-64.0-0.0","95376387","wem/bandit_party_1","A229SEF35EGTSF","either","5","614","","","","","","","0","0","1","","0.2856994719","0.6","0.2","0.8","0.4","0.4082522222","0.2856994719","0.1832507358","0.4143027846","","","","","","","","","","","","","","74","J","1","","","23","main_expt",""
"","bandit","103","424349","0.0-65.0-0.0","95376387","wem/bandit_party_1","A229SEF35EGTSF","either","5","512","","","","","","","1","0","0","0.3152516524","","0.6","0.2","0.8","0.4","","","","","0.4027270218","0.3152516524","0.1469425149","0.3649270698","","","","","","","","","","74","J","1","","","24","main_expt",""
"","bandit","104","426397","0.0-66.0-0.0","95376387","wem/bandit_party_1","A229SEF35EGTSF","either","5","506","","","","","","","0","1","0","","0.2778145345","0.6","0.2","0.8","0.4","0.4100212433","0.2778145345","0.102794739","0.392676409","","","","","","","","","","","","","","74","J","1","","","25","main_expt",""
"","bandit","105","428263","0.0-67.0-0.0","95376387","wem/bandit_party_1","A229SEF35EGTSF","either","5","341","","","","","","","0","0","1","0.3170506137","","0.6","0.2","0.8","0.4","","","","","0.4190791169","0.3170506137","0.1173732637","0.4031565401","","","","","","","","","","74","J","1","","","26","main_expt",""
"","bandit","106","430310","0.0-68.0-0.0","95376387","wem/bandit_party_1","A229SEF35EGTSF","either","5","523","","","","","","","0","0","1","","0.3223143746","0.6","0.2","0.8","0.4","0.4527212376","0.3223143746","0.08835016803","0.4245959001","","","","","","","","","","","","","","74","J","1","","","27","main_expt",""
"","bandit","107","432297","0.0-69.0-0.0","95376387","wem/bandit_party_1","A229SEF35EGTSF","either","5","467","","","","","","","0","1","0","","0.4480998813","0.6","0.2","0.8","0.4","0.4480998813","0.3234472479","0.1134440288","0.4232885055","","","","","","","","","","","","","","72","H","0","img/none_selected.jpg","","28","main_expt",""
"","bandit","108","434446","0.0-70.0-0.0","95376387","wem/bandit_party_1","A229SEF35EGTSF","either","5","625","","","","","","","1","0","0","0.4628669208","","0.6","0.2","0.8","0.4","","","","","0.4628669208","0.2881425904","0.1982905849","0.4495512981","","","","","","","","","","72","H","0","img/none_selected.jpg","","29","main_expt",""
"","bandit","109","436344","0.0-71.0-0.0","95376387","wem/bandit_party_1","A229SEF35EGTSF","either","5","381","","","","","","","1","0","0","0.4565655028","","0.6","0.2","0.8","0.4","","","","","0.4565655028","0.2326555855","0.2366655967","0.4485299892","","","","","","","","","","72","H","0","img/none_selected.jpg","","30","main_expt",""
"","bandit","110","438373","0.0-72.0-0.0","95376387","wem/bandit_party_1","A229SEF35EGTSF","either","5","503","","","","","","","1","0","0","0.4686031056","","0.6","0.2","0.8","0.4","","","","","0.4686031056","0.2364604256","0.1622470467","0.4599237238","","","","","","","","","","72","H","0","img/none_selected.jpg","","31","main_expt",""
"","bandit","111","440286","0.0-73.0-0.0","95376387","wem/bandit_party_1","A229SEF35EGTSF","either","5","381","","","","","","","0","1","0","","0.4659582456","0.6","0.2","0.8","0.4","0.4659582456","0.2451982598","0.1771911602","0.4508116693","","","","","","","","","","","","","","72","H","0","img/none_selected.jpg","","32","main_expt",""
"","bandit","112","442152","0.0-74.0-0.0","95376387","wem/bandit_party_1","A229SEF35EGTSF","either","5","339","","","","","","","0","0","1","0.4810757035","","0.6","0.2","0.8","0.4","","","","","0.4810757035","0.2360369815","0.1622836308","0.45101727","","","","","","","","","","72","H","0","img/none_selected.jpg","","33","main_expt",""
"","bandit","113","444046","0.0-75.0-0.0","95376387","wem/bandit_party_1","A229SEF35EGTSF","either","5","370","","","","","","","0","0","1","0.4842727378","","0.6","0.2","0.8","0.4","","","","","0.4842727378","0.2317763892","0.1655985557","0.4340174653","","","","","","","","","","72","H","0","img/none_selected.jpg","","34","main_expt",""
"","bandit","114","446030","0.0-76.0-0.0","95376387","wem/bandit_party_1","A229SEF35EGTSF","either","5","459","","","","","","","0","0","1","0.4745470136","","0.6","0.2","0.8","0.4","","","","","0.4745470136","0.2527891731","0.1492797185","0.4040147441","","","","","","","","","","72","H","0","img/none_selected.jpg","","35","main_expt",""
"","bandit","115","447948","0.0-77.0-0.0","95376387","wem/bandit_party_1","A229SEF35EGTSF","either","5","394","","","","","","","0","0","1","0.2641283143","","0.6","0.2","0.8","0.4","","","","","0.4440965139","0.2641283143","0.1504543003","0.4268829696","","","","","","","","","","74","J","1","","","36","main_expt",""
"","bandit","116","449882","0.0-78.0-0.0","95376387","wem/bandit_party_1","A229SEF35EGTSF","either","5","412","","","","","","","0","1","0","","0.2309310423","0.6","0.2","0.8","0.4","0.4544425755","0.2309310423","0.1064249526","0.4562327564","","","","","","","","","","","","","","74","J","1","","","37","main_expt",""
"","bandit","117","451762","0.0-79.0-0.0","95376387","wem/bandit_party_1","A229SEF35EGTSF","either","5","352","","","","","","","0","0","1","","0.2093170459","0.6","0.2","0.8","0.4","0.4700138218","0.2093170459","0.1346530267","0.4481627861","","","","","","","","","","","","","","74","J","1","","","38","main_expt",""
"","bandit","118","453830","0.0-80.0-0.0","95376387","wem/bandit_party_1","A229SEF35EGTSF","either","5","541","","","","","","","0","0","1","","0.1398625959","0.6","0.2","0.8","0.4","0.466948448","0.1398625959","0.1303494481","0.4475890948","","","","","","","","","","","","","","74","J","1","","","39","main_expt",""
"","bandit","119","455813","0.0-81.0-0.0","95376387","wem/bandit_party_1","A229SEF35EGTSF","either","5","455","","","","","","","1","0","0","0.1492074344","","0.6","0.2","0.8","0.4","","","","","0.4679256248","0.09690087606","0.1492074344","0.4501575696","","","","","","","","","","75","K","2","","","40","main_expt",""
"","bandit","120","457731","0.0-82.0-0.0","95376387","wem/bandit_party_1","A229SEF35EGTSF","either","5","392","","","","","","","1","0","0","0.1370672299","","0.6","0.2","0.8","0.4","","","","","0.445537573","0.1129569356","0.1370672299","0.4121884666","","","","","","","","","","75","K","2","","","41","main_expt",""
"","bandit","121","459753","0.0-83.0-0.0","95376387","wem/bandit_party_1","A229SEF35EGTSF","either","5","494","","","","","","","0","0","1","0.08144147181","","0.6","0.2","0.8","0.4","","","","","0.4521531226","0.1227033228","0.08144147181","0.4379939247","","","","","","","","","","75","K","2","","","42","main_expt",""
"","bandit","122","461620","0.0-84.0-0.0","95376387","wem/bandit_party_1","A229SEF35EGTSF","either","5","338","","","","","","","0","0","1","0.06793865388","","0.6","0.2","0.8","0.4","","","","","0.4695072217","0.08393287497","0.06793865388","0.4271747655","","","","","","","","","","75","K","2","","","43","main_expt",""
"","bandit","123","463497","0.0-85.0-0.0","95376387","wem/bandit_party_1","A229SEF35EGTSF","either","5","349","","","","","","","0","0","1","0.05295344446","","0.6","0.2","0.8","0.4","","","","","0.4807409838","0.06260074275","0.05295344446","0.4480494518","","","","","","","","","","75","K","2","","","44","main_expt",""
"","bandit","124","465442","0.0-86.0-0.0","95376387","wem/bandit_party_1","A229SEF35EGTSF","either","5","420","","","","","","","0","0","1","0.02744239742","","0.6","0.2","0.8","0.4","","","","","0.4507048108","0.08062123592","0.02744239742","0.4269729589","","","","","","","","","","75","K","2","","","45","main_expt",""
"","bandit","125","467333","0.0-87.0-0.0","95376387","wem/bandit_party_1","A229SEF35EGTSF","either","5","339","","","","","","","0","0","1","","0.4475746277","0.6","0.2","0.8","0.4","0.4382321206","0.1110847749","0.02347437243","0.4475746277","","","","","","","","","","","","","","76","L","3","","","46","main_expt",""
"","bandit","126","469288","0.0-88.0-0.0","95376387","wem/bandit_party_1","A229SEF35EGTSF","either","5","428","","","","","","","0","1","0","","0.4295618238","0.6","0.2","0.8","0.4","0.4393937913","0.05346849493","0.02418160198","0.4295618238","","","","","","","","","","","","","","76","L","3","","","47","main_expt",""
"","bandit","127","471022","0.0-89.0-0.0","95376387","wem/bandit_party_1","A229SEF35EGTSF","either","5","211","","","","","","","0","0","1","0.4431907244","","0.6","0.2","0.8","0.4","","","","","0.440318131","0.04499733497","0.01182676654","0.4431907244","","","","","","","","","","76","L","3","","","48","main_expt",""
"","bandit","128","472979","0.0-90.0-0.0","95376387","wem/bandit_party_1","A229SEF35EGTSF","either","5","444","","","","","","","0","1","0","","0.4187732916","0.6","0.2","0.8","0.4","0.4362102412","0.07378534534","0.0186287842","0.4187732916","","","","","","","","","","","","","","76","L","3","","","49","main_expt",""
"","bandit","129","474894","0.0-91.0-0.0","95376387","wem/bandit_party_1","A229SEF35EGTSF","either","5","385","","","","","","","0","1","0","","0.356579213","0.6","0.2","0.8","0.4","0.44488671","0.06168845619","0.02550629551","0.356579213","","","","","","","","","","","","","","76","L","3","","","50","main_expt",""
"","bandit","130","476862","0.0-92.0-0.0","95376387","wem/bandit_party_1","A229SEF35EGTSF","either","5","438","","","","","","","0","1","0","","0.2629404955","0.6","0.2","0.8","0.4","0.4633405548","0.1062028567","0.04366809707","0.2629404955","","","","","","","","","","","","","","76","L","3","","","51","main_expt",""
"","bandit","131","478743","0.0-93.0-0.0","95376387","wem/bandit_party_1","A229SEF35EGTSF","either","5","354","","","","","","","0","1","0","","0.2919747068","0.6","0.2","0.8","0.4","0.4528043762","0.1379608546","0.04357168116","0.2919747068","","","","","","","","","","","","","","76","L","3","","","52","main_expt",""
"","bandit","132","480714","0.0-94.0-0.0","95376387","wem/bandit_party_1","A229SEF35EGTSF","either","5","448","","","","","","","0","0","1","","0.3809901122","0.6","0.2","0.8","0.4","0.4390431751","0.1356826849","0.03899227154","0.3809901122","","","","","","","","","","","","","","76","L","3","","","53","main_expt",""
"","bandit","133","482599","0.0-95.0-0.0","95376387","wem/bandit_party_1","A229SEF35EGTSF","either","5","362","","","","","","","0","0","1","0.3452518694","","0.6","0.2","0.8","0.4","","","","","0.4549270822","0.1038772241","0.04009146386","0.3452518694","","","","","","","","","","76","L","3","","","54","main_expt",""
"","bandit","134","484508","0.0-96.0-0.0","95376387","wem/bandit_party_1","A229SEF35EGTSF","either","5","395","","","","","","","0","0","1","0.3263112327","","0.6","0.2","0.8","0.4","","","","","0.4710341864","0.1689791829","0.0155768565","0.3263112327","","","","","","","","","","76","L","3","","","55","main_expt",""
"","bandit","135","486455","0.0-97.0-0.0","95376387","wem/bandit_party_1","A229SEF35EGTSF","either","5","426","","","","","","","0","0","1","","0.3308963945","0.6","0.2","0.8","0.4","0.4745834276","0.1108888145","0.02112461672","0.3308963945","","","","","","","","","","","","","","76","L","3","","","56","main_expt",""
"","bandit","136","488288","0.0-98.0-0.0","95376387","wem/bandit_party_1","A229SEF35EGTSF","either","5","315","","","","","","","0","0","1","0.0126553198","","0.6","0.2","0.8","0.4","","","","","0.489318572","0.1206542402","0.0126553198","0.3150326571","","","","","","","","","","75","K","2","","","57","main_expt",""
"","bandit","137","490164","0.0-99.0-0.0","95376387","wem/bandit_party_1","A229SEF35EGTSF","either","5","359","","","","","","","0","0","1","0.01131359515","","0.6","0.2","0.8","0.4","","","","","0.480037986","0.09707343937","0.01131359515","0.3049116772","","","","","","","","","","75","K","2","","","58","main_expt",""
"","bandit","138","492053","0.0-100.0-0.0","95376387","wem/bandit_party_1","A229SEF35EGTSF","either","5","374","","","","","","","0","0","1","0.01030075821","","0.6","0.2","0.8","0.4","","","","","0.4593461039","0.1044384952","0.01030075821","0.3050987947","","","","","","","","","","75","K","2","","","59","main_expt",""
"","bandit","139","494010","0.0-101.0-0.0","95376387","wem/bandit_party_1","A229SEF35EGTSF","either","5","436","","","","","","","0","0","1","","0.005868957973","0.6","0.2","0.8","0.4","0.446051488","0.08890369623","0.005868957973","0.3274009355","","","","","","","","","","","","","","75","K","2","","","60","main_expt",""
"","bandit","140","495812","0.0-102.0-0.0","95376387","wem/bandit_party_1","A229SEF35EGTSF","either","5","272","","","","","","","0","0","1","0.08921221942","","0.6","0.2","0.8","0.4","","","","","0.4391285327","0.08921221942","0.004361943215","0.3428943983","","","","","","","","","","74","J","1","","","61","main_expt",""
"","bandit","141","497923","0.0-103.0-0.0","95376387","wem/bandit_party_1","A229SEF35EGTSF","either","5","583","","","","","","","0","0","1","","0.09812025034","0.6","0.2","0.8","0.4","0.4063883723","0.09812025034","0.005208412743","0.3549763931","","","","","","","","","","","","","","74","J","1","","","62","main_expt",""
"","bandit","142","500069","0.0-104.0-0.0","95376387","wem/bandit_party_1","A229SEF35EGTSF","either","5","618","","","","","","","0","0","1","","0.09006279409","0.6","0.2","0.8","0.4","0.4330387396","0.09006279409","0.006461011255","0.3496678451","","","","","","","","","","","","","","74","J","1","","","63","main_expt",""
"","bandit","143","502056","0.0-105.0-0.0","95376387","wem/bandit_party_1","A229SEF35EGTSF","either","5","460","","","","","","","0","0","1","0.1118976224","","0.6","0.2","0.8","0.4","","","","","0.4207902426","0.1118976224","0.01267926231","0.3188537263","","","","","","","","","","74","J","1","","","64","main_expt",""
"","bandit","144","503919","0.0-106.0-0.0","95376387","wem/bandit_party_1","A229SEF35EGTSF","either","5","332","","","","","","","0","0","1","","0.3719582347","0.6","0.2","0.8","0.4","0.3719582347","0.1053817613","0.009732787917","0.3191795336","","","","","","","","","","","","","","72","H","0","img/none_selected.jpg","","65","main_expt",""
"","bandit","145","505880","0.0-107.0-0.0","95376387","wem/bandit_party_1","A229SEF35EGTSF","either","5","432","","","","","","","0","0","1","0.3748569955","","0.6","0.2","0.8","0.4","","","","","0.3748569955","0.1307356695","0.01092542651","0.268616347","","","","","","","","","","72","H","0","img/none_selected.jpg","","66","main_expt",""
"","bandit","146","507766","0.0-108.0-0.0","95376387","wem/bandit_party_1","A229SEF35EGTSF","either","5","359","","","","","","","0","0","1","0.335252031","","0.6","0.2","0.8","0.4","","","","","0.335252031","0.1418436428","0.02125534741","0.259194563","","","","","","","","","","72","H","0","img/none_selected.jpg","","67","main_expt",""
"","bandit","147","509639","0.0-109.0-0.0","95376387","wem/bandit_party_1","A229SEF35EGTSF","either","5","343","","","","","","","1","0","0","0.3199157278","","0.6","0.2","0.8","0.4","","","","","0.3199157278","0.1459089566","0.02360283027","0.2281204868","","","","","","","","","","72","H","0","img/none_selected.jpg","","68","main_expt",""
"","bandit","148","511541","0.0-110.0-0.0","95376387","wem/bandit_party_1","A229SEF35EGTSF","either","5","374","","","","","","","0","0","1","","0.3068525281","0.6","0.2","0.8","0.4","0.3068525281","0.1809721424","0.02539305756","0.2195844169","","","","","","","","","","","","","","72","H","0","img/none_selected.jpg","","69","main_expt",""
"","bandit","149","513470","0.0-111.0-0.0","95376387","wem/bandit_party_1","A229SEF35EGTSF","either","5","402","","","","","","","0","0","1","0.3181076016","","0.6","0.2","0.8","0.4","","","","","0.3181076016","0.1784068974","0.05014388586","0.1883338509","","","","","","","","","","72","H","0","img/none_selected.jpg","","70","main_expt",""
"","bandit","150","515326","0.0-112.0-0.0","95376387","wem/bandit_party_1","A229SEF35EGTSF","either","5","264","","","","","","","0","0","1","","0.1973023396","0.6","0.2","0.8","0.4","0.2926426422","0.1973023396","0.04209054697","0.1639708178","","","","","","","","","","","","","","74","J","1","","","71","main_expt",""
"","bandit","151","517269","0.0-113.0-0.0","95376387","wem/bandit_party_1","A229SEF35EGTSF","either","5","427","","","","","","","0","1","0","","0.2436342847","0.6","0.2","0.8","0.4","0.2380263643","0.2436342847","0.05611199342","0.1312842785","","","","","","","","","","","","","","74","J","1","","","72","main_expt",""
"","bandit","152","519175","0.0-114.0-0.0","95376387","wem/bandit_party_1","A229SEF35EGTSF","either","5","378","","","","","","","0","1","0","","0.1992173182","0.6","0.2","0.8","0.4","0.2407197948","0.1992173182","0.05293238473","0.1805041857","","","","","","","","","","","","","","74","J","1","","","73","main_expt",""
"","bandit","153","521154","0.0-115.0-0.0","95376387","wem/bandit_party_1","A229SEF35EGTSF","either","5","459","","","","","","","0","0","1","","0.2347098304","0.6","0.2","0.8","0.4","0.2317468449","0.2347098304","0.0318456884","0.1739557812","","","","","","","","","","","","","","74","J","1","","","74","main_expt",""
"","bandit","154","523851","0.0-116.0-0.0","95376387","wem/bandit_party_1","A229SEF35EGTSF","either","5","1171","","","","","","","0","0","1","","0.2641442137","0.6","0.2","0.8","0.4","0.2545997551","0.2641442137","0.03873230677","0.2434916027","","","","","","","","","","","","","","74","J","1","","","75","main_expt",""
"","bandit","155","525767","0.0-117.0-0.0","95376387","wem/bandit_party_1","A229SEF35EGTSF","either","5","390","","","","","","","0","1","0","","0.3192644053","0.6","0.2","0.8","0.4","0.2890845388","0.3192644053","0.03304947682","0.2438468568","","","","","","","","","","","","","","74","J","1","","","76","main_expt",""
"","bandit","156","527648","0.0-118.0-0.0","95376387","wem/bandit_party_1","A229SEF35EGTSF","either","5","363","","","","","","","0","0","1","","0.3351132613","0.6","0.2","0.8","0.4","0.2386362654","0.3351132613","0.02607887458","0.2425324642","","","","","","","","","","","","","","74","J","1","","","77","main_expt",""
"","bandit","157","529540","0.0-119.0-0.0","95376387","wem/bandit_party_1","A229SEF35EGTSF","either","5","374","","","","","","","0","0","1","0.3086784207","","0.6","0.2","0.8","0.4","","","","","0.2673679704","0.3086784207","0.02492981692","0.205588479","","","","","","","","","","74","J","1","","","78","main_expt",""
"","bandit","158","531456","0.0-120.0-0.0","95376387","wem/bandit_party_1","A229SEF35EGTSF","either","5","387","","","","","","","0","0","1","","0.3076482073","0.6","0.2","0.8","0.4","0.2813811921","0.3076482073","0.01824110002","0.213062191","","","","","","","","","","","","","","74","J","1","","","79","main_expt",""
"","bandit","159","533347","0.0-121.0-0.0","95376387","wem/bandit_party_1","A229SEF35EGTSF","either","5","357","","","","","","","0","0","1","","0.0202176162","0.6","0.2","0.8","0.4","0.2419447949","0.3605025214","0.0202176162","0.1852926048","","","","","","","","","","","","","","75","K","2","","","80","main_expt",""
"","bandit","160","535258","0.0-122.0-0.0","95376387","wem/bandit_party_1","A229SEF35EGTSF","either","5","385","","","","","","","0","0","1","0.0252752587","","0.6","0.2","0.8","0.4","","","","","0.323481111","0.3286166321","0.0252752587","0.2332942271","","","","","","","","","","75","K","2","","","81","main_expt",""
"","bandit","161","537151","0.0-123.0-0.0","95376387","wem/bandit_party_1","A229SEF35EGTSF","either","5","364","","","","","","","0","0","1","0.05668457717","","0.6","0.2","0.8","0.4","","","","","0.3097244961","0.3459677762","0.05668457717","0.2087797338","","","","","","","","","","75","K","2","","","82","main_expt",""
"","bandit","162","539230","0.0-124.0-0.0","95376387","wem/bandit_party_1","A229SEF35EGTSF","either","5","556","","","","","","","0","0","1","0.07760530004","","0.6","0.2","0.8","0.4","","","","","0.2787498647","0.3092751195","0.07760530004","0.2049979043","","","","","","","","","","75","K","2","","","83","main_expt",""
"","bandit","163","541081","0.0-125.0-0.0","95376387","wem/bandit_party_1","A229SEF35EGTSF","either","5","316","","","","","","","0","0","1","","0.2151780091","0.6","0.2","0.8","0.4","0.2589524449","0.3044630387","0.03696005566","0.2151780091","","","","","","","","","","","","","","76","L","3","","","84","main_expt",""
"","bandit","164","543076","0.0-126.0-0.0","95376387","wem/bandit_party_1","A229SEF35EGTSF","either","5","469","","","","","","","0","0","1","0.1497615914","","0.6","0.2","0.8","0.4","","","","","0.2769318636","0.2812480587","0.04177257934","0.1497615914","","","","","","","","","","76","L","3","","","85","main_expt",""
"","bandit","165","544930","0.0-127.0-0.0","95376387","wem/bandit_party_1","A229SEF35EGTSF","either","5","341","","","","","","","1","0","0","0.1223687677","","0.6","0.2","0.8","0.4","","","","","0.2849222391","0.2506532223","0.0385770192","0.1223687677","","","","","","","","","","76","L","3","","","86","main_expt",""
"","bandit","166","546808","0.0-128.0-0.0","95376387","wem/bandit_party_1","A229SEF35EGTSF","either","5","357","","","","","","","0","0","1","","0.1472857413","0.6","0.2","0.8","0.4","0.3131087309","0.2269900387","0.03720252147","0.1472857413","","","","","","","","","","","","","","76","L","3","","","87","main_expt",""
"","bandit","167","548775","0.0-129.0-0.0","95376387","wem/bandit_party_1","A229SEF35EGTSF","either","5","435","","","","","","","0","0","1","0.1252586248","","0.6","0.2","0.8","0.4","","","","","0.3038587512","0.1504729919","0.06746059371","0.1252586248","","","","","","","","","","76","L","3","","","88","main_expt",""
"","bandit","168","550824","0.0-130.0-0.0","95376387","wem/bandit_party_1","A229SEF35EGTSF","either","5","520","","","","","","","0","0","1","0.1194927994","","0.6","0.2","0.8","0.4","","","","","0.3308022157","0.1382070302","0.04069757945","0.1194927994","","","","","","","","","","76","L","3","","","89","main_expt",""
"","bandit","169","552721","0.0-131.0-0.0","95376387","wem/bandit_party_1","A229SEF35EGTSF","either","5","366","","","","","","","0","0","1","0.07325379503","","0.6","0.2","0.8","0.4","","","","","0.3574922351","0.1364765349","0.07325379503","0.1589750007","","","","","","","","","","75","K","2","","","90","main_expt",""
"","bandit","170","554664","0.0-132.0-0.0","95376387","wem/bandit_party_1","A229SEF35EGTSF","either","5","424","","","","","","","1","0","0","0.06877471811","","0.6","0.2","0.8","0.4","","","","","0.3729517688","0.09318196272","0.06877471811","0.1859960426","","","","","","","","","","75","K","2","","","91","main_expt",""
"","bandit","171","556548","0.0-133.0-0.0","95376387","wem/bandit_party_1","A229SEF35EGTSF","either","5","355","","","","","","","0","0","1","0.04115987362","","0.6","0.2","0.8","0.4","","","","","0.398352994","0.06946097624","0.04115987362","0.192419488","","","","","","","","","","75","K","2","","","92","main_expt",""
"","bandit","172","558508","0.0-134.0-0.0","95376387","wem/bandit_party_1","A229SEF35EGTSF","either","5","427","","","","","","","0","0","1","0.07078892783","","0.6","0.2","0.8","0.4","","","","","0.4135860398","0.08102832817","0.07078892783","0.1716033463","","","","","","","","","","75","K","2","","","93","main_expt",""
"","bandit","173","560404","0.0-135.0-0.0","95376387","wem/bandit_party_1","A229SEF35EGTSF","either","5","359","","","","","","","0","0","1","","0.1271360848","0.6","0.2","0.8","0.4","0.3786880174","0.1271360848","0.05572868433","0.1935897604","","","","","","","","","","","","","","74","J","1","","","94","main_expt",""
"","bandit","174","562293","0.0-136.0-0.0","95376387","wem/bandit_party_1","A229SEF35EGTSF","either","5","361","","","","","","","0","1","0","","0.1097592989","0.6","0.2","0.8","0.4","0.3823424718","0.1097592989","0.05056929995","0.2193228015","","","","","","","","","","","","","","74","J","1","","","95","main_expt",""
"","bandit","175","564174","0.0-137.0-0.0","95376387","wem/bandit_party_1","A229SEF35EGTSF","either","5","363","","","","","","","0","0","1","","0.1085490834","0.6","0.2","0.8","0.4","0.3642725552","0.1085490834","0.04159874267","0.3262643469","","","","","","","","","","","","","","74","J","1","","","96","main_expt",""
"","bandit","176","566238","0.0-138.0-0.0","95376387","wem/bandit_party_1","A229SEF35EGTSF","either","5","549","","","","","","","0","0","1","","0.1049812554","0.6","0.2","0.8","0.4","0.3197717944","0.1049812554","0.03654451862","0.3207405496","","","","","","","","","","","","","","74","J","1","","","97","main_expt",""
"","bandit","177","568138","0.0-139.0-0.0","95376387","wem/bandit_party_1","A229SEF35EGTSF","either","5","378","","","","","","","0","0","1","","0.2514424369","0.6","0.2","0.8","0.4","0.2514424369","0.08177978443","0.04190300095","0.3712856991","","","","","","","","","","","","","","72","H","0","img/none_selected.jpg","","98","main_expt",""
"","bandit","178","570019","0.0-140.0-0.0","95376387","wem/bandit_party_1","A229SEF35EGTSF","either","5","348","","","","","","","0","0","1","0.2926772137","","0.6","0.2","0.8","0.4","","","","","0.2926772137","0.07574087804","0.08742990617","0.3740145378","","","","","","","","","","72","H","0","img/none_selected.jpg","","99","main_expt",""
"","bandit","179","572129","0.0-141.0-0.0","95376387","wem/bandit_party_1","A229SEF35EGTSF","either","5","596","","","","","","","0","0","1","0.234485335","","0.6","0.2","0.8","0.4","","","","","0.234485335","0.07829319678","0.08966523481","0.3776295542","","","","","","","","","","72","H","0","img/none_selected.jpg","","100","main_expt",""
"","bandit","180","574232","0.0-142.0-0.0","95376387","wem/bandit_party_1","A229SEF35EGTSF","either","5","591","","","","","","","0","0","1","0.250352175","","0.6","0.2","0.8","0.4","","","","","0.250352175","0.07919243683","0.07849065771","0.3592666398","","","","","","","","","","72","H","0","img/none_selected.jpg","","101","main_expt",""
"","bandit","181","576124","0.0-143.0-0.0","95376387","wem/bandit_party_1","A229SEF35EGTSF","either","5","377","","","","","","","0","0","1","0.1052753188","","0.6","0.2","0.8","0.4","","","","","0.2139972863","0.1052753188","0.1054267613","0.3412191773","","","","","","","","","","74","J","1","","","102","main_expt",""
"","bandit","182","578103","0.0-144.0-0.0","95376387","wem/bandit_party_1","A229SEF35EGTSF","either","5","337","","","","","","","0","0","1","0.1248526142","","0.6","0.2","0.8","0.4","","","","","0.20092706","0.1248526142","0.1120981937","0.3133100433","","","","","","","","","","74","J","1","","","103","main_expt",""
"","bandit","183","580021","0.0-145.0-0.0","95376387","wem/bandit_party_1","A229SEF35EGTSF","either","5","388","","","","","","","0","0","1","","0.142969925","0.6","0.2","0.8","0.4","0.2305366804","0.142969925","0.1034740879","0.3219148419","","","","","","","","","","","","","","74","J","1","","","104","main_expt",""
"","bandit","184","582001","0.0-146.0-0.0","95376387","wem/bandit_party_1","A229SEF35EGTSF","either","5","458","","","","","","","0","0","1","","0.13947254","0.6","0.2","0.8","0.4","0.2102135581","0.13947254","0.07597240327","0.3300892518","","","","","","","","","","","","","","74","J","1","","","105","main_expt",""
"","bandit","185","583644","0.0-147.0-0.0","95376387","wem/bandit_party_1","A229SEF35EGTSF","either","5","121","","","","","","","0","0","1","","0.3401839058","0.6","0.2","0.8","0.4","0.2219457329","0.1329526997","0.1124257427","0.3401839058","","","","","","","","","","","","","","76","L","3","","","106","main_expt",""
"","bandit","186","585553","0.0-148.0-0.0","95376387","wem/bandit_party_1","A229SEF35EGTSF","either","5","369","","","","","","","0","0","1","","0.3784706915","0.6","0.2","0.8","0.4","0.3048423019","0.1727290233","0.1133168519","0.3784706915","","","","","","","","","","","","","","76","L","3","","","107","main_expt",""
"","bandit","187","587527","0.0-149.0-0.0","95376387","wem/bandit_party_1","A229SEF35EGTSF","either","5","445","","","","","","","1","0","0","0.3945753887","","0.6","0.2","0.8","0.4","","","","","0.258150515","0.1864487031","0.1752395656","0.3945753887","","","","","","","","","","76","L","3","","","108","main_expt",""
"","bandit","188","589724","0.0-150.0-0.0","95376387","wem/bandit_party_1","A229SEF35EGTSF","either","5","665","","","","","","","0","0","1","","0.356827327","0.6","0.2","0.8","0.4","0.1859129148","0.2463216238","0.1862973424","0.356827327","","","","","","","","","","","","","","76","L","3","","","109","main_expt",""
"","bandit","189","591671","0.0-151.0-0.0","95376387","wem/bandit_party_1","A229SEF35EGTSF","either","5","415","","","","","","","0","0","1","0.2015845776","","0.6","0.2","0.8","0.4","","","","","0.1371624404","0.2431522628","0.2015845776","0.2344179837","","","","","","","","","","75","K","2","","","110","main_expt",""
"","bandit","190","593781","0.0-152.0-0.0","95376387","wem/bandit_party_1","A229SEF35EGTSF","either","5","576","","","","","","","0","0","1","0.2003651753","","0.6","0.2","0.8","0.4","","","","","0.1258232978","0.1757476643","0.2003651753","0.2644823096","","","","","","","","","","75","K","2","","","111","main_expt",""
"","bandit","191","595668","0.0-153.0-0.0","95376387","wem/bandit_party_1","A229SEF35EGTSF","either","5","351","","","","","","","0","0","1","0.21392293","","0.6","0.2","0.8","0.4","","","","","0.1529967373","0.2451518953","0.21392293","0.28311182","","","","","","","","","","75","K","2","","","112","main_expt",""
"","bandit","192","597600","0.0-154.0-0.0","95376387","wem/bandit_party_1","A229SEF35EGTSF","either","5","405","","","","","","","0","0","1","","0.1606798039","0.6","0.2","0.8","0.4","0.148248117","0.2407836715","0.1606798039","0.2413269532","","","","","","","","","","","","","","75","K","2","","","113","main_expt",""
"","bandit","193","599616","0.0-155.0-0.0","95376387","wem/bandit_party_1","A229SEF35EGTSF","either","5","483","","","","","","","0","0","1","0.2095980235","","0.6","0.2","0.8","0.4","","","","","0.1562208239","0.3099317417","0.2095980235","0.3100969134","","","","","","","","","","75","K","2","","","114","main_expt",""
"","bandit","194","601862","0.0-156.0-0.0","95376387","wem/bandit_party_1","A229SEF35EGTSF","either","5","718","","","","","","","0","0","1","0.2138032898","","0.6","0.2","0.8","0.4","","","","","0.2138032898","0.3180754701","0.2550279667","0.329842252","","","","","","","","","","72","H","0","img/none_selected.jpg","","115","main_expt",""
"","bandit","195","603778","0.0-157.0-0.0","95376387","wem/bandit_party_1","A229SEF35EGTSF","either","5","384","","","","","","","0","0","1","0.2331260325","","0.6","0.2","0.8","0.4","","","","","0.2331260325","0.2919742107","0.2471764387","0.3223706096","","","","","","","","","","72","H","0","img/none_selected.jpg","","116","main_expt",""
"","bandit","196","605659","0.0-158.0-0.0","95376387","wem/bandit_party_1","A229SEF35EGTSF","either","5","348","","","","","","","0","0","1","0.1826309729","","0.6","0.2","0.8","0.4","","","","","0.1826309729","0.2799774295","0.2730878341","0.3098408215","","","","","","","","","","72","H","0","img/none_selected.jpg","","117","main_expt",""
"","bandit","197","607534","0.0-159.0-0.0","95376387","wem/bandit_party_1","A229SEF35EGTSF","either","5","339","","","","","","","1","0","0","0.1511269107","","0.6","0.2","0.8","0.4","","","","","0.1511269107","0.2646714695","0.2071462199","0.2974554567","","","","","","","","","","72","H","0","img/none_selected.jpg","","118","main_expt",""
"","bandit","198","609429","0.0-160.0-0.0","95376387","wem/bandit_party_1","A229SEF35EGTSF","either","5","340","","","","","","","0","0","1","0.1559979654","","0.6","0.2","0.8","0.4","","","","","0.1559979654","0.3179839519","0.2275232499","0.3598468986","","","","","","","","","","72","H","0","img/none_selected.jpg","","119","main_expt",""
"","bandit","199","611346","0.0-161.0-0.0","95376387","wem/bandit_party_1","A229SEF35EGTSF","either","5","393","","","","","","","0","0","1","","0.1463004055","0.6","0.2","0.8","0.4","0.1463004055","0.3302262658","0.2767559596","0.2984373086","","","","","","","","","","","","","","72","H","0","img/none_selected.jpg","","120","main_expt",""
"","bandit","200","613371","0.0-162.0-0.0","95376387","wem/bandit_party_1","A229SEF35EGTSF","either","5","451","","","","","","","0","0","1","","0.3448590315","0.6","0.2","0.8","0.4","0.1418195479","0.3500549905","0.3448590315","0.2973090059","","","","","","","","","","","","","","75","K","2","","","121","main_expt",""
"","bandit","201","615202","0.0-163.0-0.0","95376387","wem/bandit_party_1","A229SEF35EGTSF","either","5","311","","","","","","","0","0","1","0.3593301016","","0.6","0.2","0.8","0.4","","","","","0.1270782113","0.2686616284","0.3593301016","0.3382791822","","","","","","","","","","75","K","2","","","122","main_expt",""
"","bandit","202","617129","0.0-164.0-0.0","95376387","wem/bandit_party_1","A229SEF35EGTSF","either","5","405","","","","","","","0","0","1","0.3680529171","","0.6","0.2","0.8","0.4","","","","","0.1207154071","0.2277230314","0.3680529171","0.3154347028","","","","","","","","","","75","K","2","","","123","main_expt",""
"","bandit","203","618750","0.0-165.0-0.0","95376387","wem/bandit_party_1","A229SEF35EGTSF","either","5","75","","","","","","","1","0","0","0.3476523483","","0.6","0.2","0.8","0.4","","","","","0.1229329119","0.3287090939","0.3476523483","0.2966737815","","","","","","","","","","75","K","2","","","124","main_expt",""
"","bandit","204","620744","0.0-166.0-0.0","95376387","wem/bandit_party_1","A229SEF35EGTSF","either","5","474","","","","","","","0","0","1","","0.3564603465","0.6","0.2","0.8","0.4","0.09241122996","0.3687339586","0.3564603465","0.3094831126","","","","","","","","","","","","","","75","K","2","","","125","main_expt",""
"","bandit","205","622796","0.0-167.0-0.0","95376387","wem/bandit_party_1","A229SEF35EGTSF","either","5","524","","","","","","","0","0","1","0.3550684458","","0.6","0.2","0.8","0.4","","","","","0.08418962236","0.3836195774","0.3550684458","0.2488993205","","","","","","","","","","75","K","2","","","126","main_expt",""
"","bandit","206","624659","0.0-168.0-0.0","95376387","wem/bandit_party_1","A229SEF35EGTSF","either","5","332","","","","","","","1","0","0","0.3235559827","","0.6","0.2","0.8","0.4","","","","","0.154715772","0.3617365958","0.3235559827","0.1953487027","","","","","","","","","","75","K","2","","","127","main_expt",""
"","bandit","207","626593","0.0-169.0-0.0","95376387","wem/bandit_party_1","A229SEF35EGTSF","either","5","411","","","","","","","0","0","1","0.312087491","","0.6","0.2","0.8","0.4","","","","","0.1556709078","0.3235283493","0.312087491","0.2171889907","","","","","","","","","","75","K","2","","","128","main_expt",""
"","bandit","208","628600","0.0-170.0-0.0","95376387","wem/bandit_party_1","A229SEF35EGTSF","either","5","487","","","","","","","0","0","1","0.2843272188","","0.6","0.2","0.8","0.4","","","","","0.1214200615","0.3453830546","0.2843272188","0.2467699801","","","","","","","","","","75","K","2","","","129","main_expt",""
"","bandit","209","630483","0.0-171.0-0.0","95376387","wem/bandit_party_1","A229SEF35EGTSF","either","5","347","","","","","","","0","0","1","0.1377283829","","0.6","0.2","0.8","0.4","","","","","0.1377283829","0.3242747857","0.2128416856","0.2814443482","","","","","","","","","","72","H","0","img/none_selected.jpg","","130","main_expt",""
"","bandit","210","632362","0.0-172.0-0.0","95376387","wem/bandit_party_1","A229SEF35EGTSF","either","5","358","","","","","","","1","0","0","0.1397421628","","0.6","0.2","0.8","0.4","","","","","0.1397421628","0.3417201858","0.2403879813","0.2834176508","","","","","","","","","","72","H","0","img/none_selected.jpg","","131","main_expt",""
"","bandit","211","634303","0.0-173.0-0.0","95376387","wem/bandit_party_1","A229SEF35EGTSF","either","5","411","","","","","","","1","0","0","0.1061875113","","0.6","0.2","0.8","0.4","","","","","0.1061875113","0.3498614837","0.2811421594","0.2429908031","","","","","","","","","","72","H","0","img/none_selected.jpg","","132","main_expt",""
"","bandit","212","636264","0.0-174.0-0.0","95376387","wem/bandit_party_1","A229SEF35EGTSF","either","5","417","","","","","","","0","0","1","","0.07774811701","0.6","0.2","0.8","0.4","0.07774811701","0.3134828643","0.3002858371","0.3053559495","","","","","","","","","","","","","","72","H","0","img/none_selected.jpg","","133","main_expt",""
"","bandit","213","638132","0.0-175.0-0.0","95376387","wem/bandit_party_1","A229SEF35EGTSF","either","5","333","","","","","","","0","0","1","0.08211281178","","0.6","0.2","0.8","0.4","","","","","0.08211281178","0.3554593188","0.277406375","0.2693478067","","","","","","","","","","72","H","0","img/none_selected.jpg","","134","main_expt",""
"","bandit","214","640060","0.0-176.0-0.0","95376387","wem/bandit_party_1","A229SEF35EGTSF","either","5","398","","","","","","","0","0","1","","0.1123817552","0.6","0.2","0.8","0.4","0.1123817552","0.3150900126","0.2897147582","0.3369166079","","","","","","","","","","","","","","72","H","0","img/none_selected.jpg","","135","main_expt",""
"","bandit","215","641950","0.0-177.0-0.0","95376387","wem/bandit_party_1","A229SEF35EGTSF","either","5","370","","","","","","","0","0","1","0.1478339482","","0.6","0.2","0.8","0.4","","","","","0.1478339482","0.3199395785","0.3590576628","0.268603144","","","","","","","","","","72","H","0","img/none_selected.jpg","","136","main_expt",""
"","bandit","216","644091","0.0-178.0-0.0","95376387","wem/bandit_party_1","A229SEF35EGTSF","either","5","514","","","","","","","0","0","1","","0.2373427956","0.6","0.2","0.8","0.4","0.1374936615","0.33362357","0.3822427384","0.2373427956","","","","","","","","","","","","","","76","L","3","","","137","main_expt",""
"","bandit","217","645940","0.0-179.0-0.0","95376387","wem/bandit_party_1","A229SEF35EGTSF","either","5","326","","","","","","","0","0","1","","0.2206869265","0.6","0.2","0.8","0.4","0.159761955","0.3611324022","0.3410071165","0.2206869265","","","","","","","","","","","","","","76","L","3","","","138","main_expt",""
"","bandit","218","647813","0.0-180.0-0.0","95376387","wem/bandit_party_1","A229SEF35EGTSF","either","5","346","","","","","","","0","0","1","","0.2177966349","0.6","0.2","0.8","0.4","0.1363721132","0.3504145086","0.3738014659","0.2177966349","","","","","","","","","","","","","","76","L","3","","","139","main_expt",""
"","bandit","219","649344","0.0-181.0-0.0","95376387","wem/bandit_party_1","A229SEF35EGTSF","either","5","13","","","","","","","0","0","1","","0.2387685432","0.6","0.2","0.8","0.4","0.1031445192","0.309774603","0.422575493","0.2387685432","","","","","","","","","","","","","","76","L","3","","","140","main_expt",""
"","bandit","220","651249","0.0-182.0-0.0","95376387","wem/bandit_party_1","A229SEF35EGTSF","either","5","388","","","","","","","0","0","1","0.2575087366","","0.6","0.2","0.8","0.4","","","","","0.09805286369","0.3506531288","0.4439129864","0.2575087366","","","","","","","","","","76","L","3","","","141","main_expt",""
"","bandit","221","652788","0.0-183.0-0.0","95376387","wem/bandit_party_1","A229SEF35EGTSF","either","5","2","","","","","","","1","0","0","0.4323802182","","0.6","0.2","0.8","0.4","","","","","0.1149002948","0.2965027242","0.4323802182","0.2392038972","","","","","","","","","","75","K","2","","","142","main_expt",""
"","bandit","222","654694","0.0-184.0-0.0","95376387","wem/bandit_party_1","A229SEF35EGTSF","either","5","377","","","","","","","1","0","0","0.4358412593","","0.6","0.2","0.8","0.4","","","","","0.1209542099","0.2087517366","0.4358412593","0.2216470548","","","","","","","","","","75","K","2","","","143","main_expt",""
"","bandit","223","656569","0.0-185.0-0.0","95376387","wem/bandit_party_1","A229SEF35EGTSF","either","5","358","","","","","","","1","0","0","0.4407373256","","0.6","0.2","0.8","0.4","","","","","0.1202521083","0.2313605626","0.4407373256","0.2224896139","","","","","","","","","","75","K","2","","","144","main_expt",""
"","bandit","224","658469","0.0-186.0-0.0","95376387","wem/bandit_party_1","A229SEF35EGTSF","either","5","364","","","","","","","1","0","0","0.4661091035","","0.6","0.2","0.8","0.4","","","","","0.1619743669","0.1785565547","0.4661091035","0.1925605464","","","","","","","","","","75","K","2","","","145","main_expt",""
"","bandit","225","660430","0.0-187.0-0.0","95376387","wem/bandit_party_1","A229SEF35EGTSF","either","5","444","","","","","","","0","0","1","0.4637097668","","0.6","0.2","0.8","0.4","","","","","0.1664631043","0.1770660648","0.4637097668","0.2069800611","","","","","","","","","","75","K","2","","","146","main_expt",""
"","bandit","226","662414","0.0-188.0-0.0","95376387","wem/bandit_party_1","A229SEF35EGTSF","either","5","409","","","","","","","0","0","1","","0.4700491642","0.6","0.2","0.8","0.4","0.1669241763","0.1063371611","0.4700491642","0.2489662189","","","","","","","","","","","","","","75","K","2","","","147","main_expt",""
"","bandit","227","664301","0.0-189.0-0.0","95376387","wem/bandit_party_1","A229SEF35EGTSF","either","5","351","","","","","","","1","0","0","0.4648109734","","0.6","0.2","0.8","0.4","","","","","0.1581456949","0.1216370817","0.4648109734","0.1946464158","","","","","","","","","","75","K","2","","","148","main_expt",""
"","bandit","228","666254","0.0-190.0-0.0","95376387","wem/bandit_party_1","A229SEF35EGTSF","either","5","438","","","","","","","1","0","0","0.4635511513","","0.6","0.2","0.8","0.4","","","","","0.1698392466","0.1024256959","0.4635511513","0.1826562491","","","","","","","","","","75","K","2","","","149","main_expt",""
"","bandit","229","668130","0.0-191.0-0.0","95376387","wem/bandit_party_1","A229SEF35EGTSF","either","5","356","","","","","","","1","0","0","0.4445017148","","0.6","0.2","0.8","0.4","","","","","0.2140114634","0.1371094633","0.4445017148","0.1750473563","","","","","","","","","","75","K","2","","","150","main_expt",""
"","bandit","230","670032","0.0-192.0-0.0","95376387","wem/bandit_party_1","A229SEF35EGTSF","either","5","370","","","","","","","0","0","1","","0.4434799742","0.6","0.2","0.8","0.4","0.2392960001","0.1702433702","0.4434799742","0.1109536645","","","","","","","","","","","","","","75","K","2","","","151","main_expt",""
"","bandit","231","671956","0.0-193.0-0.0","95376387","wem/bandit_party_1","A229SEF35EGTSF","either","5","399","","","","","","","1","0","0","0.4451665291","","0.6","0.2","0.8","0.4","","","","","0.2095863317","0.1860489046","0.4451665291","0.1143086707","","","","","","","","","","75","K","2","","","152","main_expt",""
"","bandit","232","673823","0.0-194.0-0.0","95376387","wem/bandit_party_1","A229SEF35EGTSF","either","5","342","","","","","","","0","1","0","","0.4401532833","0.6","0.2","0.8","0.4","0.2543258611","0.2117094388","0.4401532833","0.1236290712","","","","","","","","","","","","","","75","K","2","","","153","main_expt",""
"","bandit","233","675740","0.0-195.0-0.0","95376387","wem/bandit_party_1","A229SEF35EGTSF","either","5","377","","","","","","","0","0","1","0.4516855879","","0.6","0.2","0.8","0.4","","","","","0.2602259906","0.2072389033","0.4516855879","0.1600695342","","","","","","","","","","75","K","2","","","154","main_expt",""
"","bandit","234","677653","0.0-196.0-0.0","95376387","wem/bandit_party_1","A229SEF35EGTSF","either","5","379","","","","","","","0","0","1","0.4480264808","","0.6","0.2","0.8","0.4","","","","","0.2750581274","0.1986333914","0.4480264808","0.1770288166","","","","","","","","","","75","K","2","","","155","main_expt",""
"","bandit","235","679565","0.0-197.0-0.0","95376387","wem/bandit_party_1","A229SEF35EGTSF","either","5","377","","","","","","","0","0","1","","0.4260414265","0.6","0.2","0.8","0.4","0.2438045727","0.2054640346","0.4260414265","0.1761817894","","","","","","","","","","","","","","75","K","2","","","156","main_expt",""
"","bandit","236","681481","0.0-198.0-0.0","95376387","wem/bandit_party_1","A229SEF35EGTSF","either","5","383","","","","","","","0","0","1","0.4365201507","","0.6","0.2","0.8","0.4","","","","","0.2857025143","0.1810715383","0.4365201507","0.1998830888","","","","","","","","","","75","K","2","","","157","main_expt",""
"","bandit","237","683380","0.0-199.0-0.0","95376387","wem/bandit_party_1","A229SEF35EGTSF","either","5","347","","","","","","","1","0","0","0.4076244479","","0.6","0.2","0.8","0.4","","","","","0.2887719476","0.2118906364","0.4076244479","0.2150354531","","","","","","","","","","75","K","2","","","158","main_expt",""
"","bandit","238","685295","0.0-200.0-0.0","95376387","wem/bandit_party_1","A229SEF35EGTSF","either","5","390","","","","","","","0","0","1","","0.403953851","0.6","0.2","0.8","0.4","0.2859462397","0.2293976715","0.403953851","0.2221069796","","","","","","","","","","","","","","75","K","2","","","159","main_expt",""
"","bandit","239","687260","0.0-201.0-0.0","95376387","wem/bandit_party_1","A229SEF35EGTSF","either","5","439","","","","","","","0","0","1","0.4282135537","","0.6","0.2","0.8","0.4","","","","","0.207432816","0.2186051381","0.4282135537","0.2627335039","","","","","","","","","","75","K","2","","","160","main_expt",""
"","bandit","240","689108","0.0-202.0-0.0","95376387","wem/bandit_party_1","A229SEF35EGTSF","either","5","330","","","","","","","0","0","1","","0.1611694724","0.6","0.2","0.8","0.4","0.1611694724","0.2175927206","0.4479073124","0.2922457848","","","","","","","","","","","","","","72","H","0","img/none_selected.jpg","","161","main_expt",""
"","bandit","241","690985","0.0-203.0-0.0","95376387","wem/bandit_party_1","A229SEF35EGTSF","either","5","347","","","","","","","0","0","1","0.14378348","","0.6","0.2","0.8","0.4","","","","","0.14378348","0.2370404117","0.4456201243","0.3040212123","","","","","","","","","","72","H","0","img/none_selected.jpg","","162","main_expt",""
"","bandit","242","692945","0.0-204.0-0.0","95376387","wem/bandit_party_1","A229SEF35EGTSF","either","5","442","","","","","","","0","0","1","","0.1707099899","0.6","0.2","0.8","0.4","0.1707099899","0.2778780432","0.4384930657","0.2933359027","","","","","","","","","","","","","","72","H","0","img/none_selected.jpg","","163","main_expt",""
"","bandit","243","694900","0.0-205.0-0.0","95376387","wem/bandit_party_1","A229SEF35EGTSF","either","5","424","","","","","","","0","0","1","0.1933693166","","0.6","0.2","0.8","0.4","","","","","0.1933693166","0.2643388611","0.4231568034","0.2388203062","","","","","","","","","","72","H","0","img/none_selected.jpg","","164","main_expt",""
"","bandit","244","696807","0.0-206.0-0.0","95376387","wem/bandit_party_1","A229SEF35EGTSF","either","5","372","","","","","","","0","0","1","0.1967204453","","0.6","0.2","0.8","0.4","","","","","0.2406324952","0.1967204453","0.4412535734","0.2646204916","","","","","","","","","","74","J","1","","","165","main_expt",""
"","bandit","245","698693","0.0-207.0-0.0","95376387","wem/bandit_party_1","A229SEF35EGTSF","either","5","352","","","","","","","0","0","1","0.1567937345","","0.6","0.2","0.8","0.4","","","","","0.2650462377","0.1567937345","0.438364003","0.2591758032","","","","","","","","","","74","J","1","","","166","main_expt",""
"","bandit","246","700589","0.0-208.0-0.0","95376387","wem/bandit_party_1","A229SEF35EGTSF","either","5","365","","","","","","","0","0","1","0.1201482918","","0.6","0.2","0.8","0.4","","","","","0.245875583","0.1201482918","0.4290991351","0.1955934818","","","","","","","","","","74","J","1","","","167","main_expt",""
"","bandit","247","702459","0.0-209.0-0.0","95376387","wem/bandit_party_1","A229SEF35EGTSF","either","5","351","","","","","","","0","0","1","","0.0936051119","0.6","0.2","0.8","0.4","0.257303599","0.0936051119","0.4510860662","0.2090603634","","","","","","","","","","","","","","74","J","1","","","168","main_expt",""
"","bandit","248","704524","0.0-210.0-0.0","95376387","wem/bandit_party_1","A229SEF35EGTSF","either","5","544","","","","","","","0","0","1","","0.08775096918","0.6","0.2","0.8","0.4","0.2993732043","0.08775096918","0.4491424364","0.2678479696","","","","","","","","","","","","","","74","J","1","","","169","main_expt",""
"","bandit","249","706244","0.0-211.0-0.0","95376387","wem/bandit_party_1","A229SEF35EGTSF","either","5","185","","","","","","","0","0","1","","0.2532125956","0.6","0.2","0.8","0.4","0.3388977639","0.06743429675","0.4332244901","0.2532125956","","","","","","","","","","","","","","76","L","3","","","170","main_expt",""
"","bandit","250","708109","0.0-212.0-0.0","95376387","wem/bandit_party_1","A229SEF35EGTSF","either","5","331","","","","","","","0","0","1","","0.2568627054","0.6","0.2","0.8","0.4","0.2947926635","0.05979118822","0.4405036994","0.2568627054","","","","","","","","","","","","","","76","L","3","","","171","main_expt",""
"","bandit","251","710027","0.0-213.0-0.0","95376387","wem/bandit_party_1","A229SEF35EGTSF","either","5","381","","","","","","","0","0","1","0.2451563353","","0.6","0.2","0.8","0.4","","","","","0.2892529657","0.03200499914","0.4358521759","0.2451563353","","","","","","","","","","76","L","3","","","172","main_expt",""
"","bandit","252","711974","0.0-214.0-0.0","95376387","wem/bandit_party_1","A229SEF35EGTSF","either","5","426","","","","","","","0","0","1","0.3003395367","","0.6","0.2","0.8","0.4","","","","","0.2571917514","0.04613358223","0.4471617722","0.3003395367","","","","","","","","","","76","L","3","","","173","main_expt",""
"","bandit","253","713982","0.0-215.0-0.0","95376387","wem/bandit_party_1","A229SEF35EGTSF","either","5","476","","","","","","","0","1","0","","0.2545998681","0.6","0.2","0.8","0.4","0.244173221","0.05969677181","0.4560251174","0.2545998681","","","","","","","","","","","","","","76","L","3","","","174","main_expt",""
"","bandit","254","715919","0.0-216.0-0.0","95376387","wem/bandit_party_1","A229SEF35EGTSF","either","5","406","","","","","","","0","0","1","","0.3383135611","0.6","0.2","0.8","0.4","0.2038098688","0.05930066603","0.4379349024","0.3383135611","","","","","","","","","","","","","","76","L","3","","","175","main_expt",""
"","bandit","255","717794","0.0-217.0-0.0","95376387","wem/bandit_party_1","A229SEF35EGTSF","either","5","355","","","","","","","1","0","0","0.3880627729","","0.6","0.2","0.8","0.4","","","","","0.2053823003","0.08110879181","0.4328841116","0.3880627729","","","","","","","","","","76","L","3","","","176","main_expt",""
"","bandit","256","719754","0.0-218.0-0.0","95376387","wem/bandit_party_1","A229SEF35EGTSF","either","5","436","","","","","","","0","1","0","","0.3920994557","0.6","0.2","0.8","0.4","0.2193083282","0.07611568943","0.3965365967","0.3920994557","","","","","","","","","","","","","","76","L","3","","","177","main_expt",""
"","bandit","257","721623","0.0-219.0-0.0","95376387","wem/bandit_party_1","A229SEF35EGTSF","either","5","350","","","","","","","0","0","1","0.3882277994","","0.6","0.2","0.8","0.4","","","","","0.1904263594","0.1220467165","0.3899234309","0.3882277994","","","","","","","","","","76","L","3","","","178","main_expt",""
"","bandit","258","723525","0.0-220.0-0.0","95376387","wem/bandit_party_1","A229SEF35EGTSF","either","5","382","","","","","","","0","0","1","0.3939691408","","0.6","0.2","0.8","0.4","","","","","0.2212788648","0.1698853315","0.4238443777","0.3939691408","","","","","","","","","","76","L","3","","","179","main_expt",""
"","bandit","259","725420","0.0-221.0-0.0","95376387","wem/bandit_party_1","A229SEF35EGTSF","either","5","375","","","","","","","1","0","0","0.4074656662","","0.6","0.2","0.8","0.4","","","","","0.2640717145","0.1374762061","0.4487400994","0.4074656662","","","","","","","","","","76","L","3","","","180","main_expt",""
"","bandit","260","727282","0.0-222.0-0.0","95376387","wem/bandit_party_1","A229SEF35EGTSF","either","5","321","","","","","","","0","0","1","","0.3724421945","0.6","0.2","0.8","0.4","0.2426483564","0.09961924189","0.4314573438","0.3724421945","","","","","","","","","","","","","","76","L","3","","","181","main_expt",""
"","bandit","261","729462","0.0-223.0-0.0","95376387","wem/bandit_party_1","A229SEF35EGTSF","either","5","630","","","","","","","0","0","1","","0.2998177931","0.6","0.2","0.8","0.4","0.2001563476","0.1391043194","0.4458059303","0.2998177931","","","","","","","","","","","","","","76","L","3","","","182","main_expt",""
"","bandit","262","731413","0.0-224.0-0.0","95376387","wem/bandit_party_1","A229SEF35EGTSF","either","5","407","","","","","","","0","0","1","0.3629728763","","0.6","0.2","0.8","0.4","","","","","0.2167094124","0.1336424596","0.4485460149","0.3629728763","","","","","","","","","","76","L","3","","","183","main_expt",""
"","bandit","263","733339","0.0-225.0-0.0","95376387","wem/bandit_party_1","A229SEF35EGTSF","either","5","381","","","","","","","0","1","0","","0.4078350507","0.6","0.2","0.8","0.4","0.2402813617","0.115911235","0.4078350507","0.3763603645","","","","","","","","","","","","","","75","K","2","","","184","main_expt",""
"","bandit","264","735253","0.0-226.0-0.0","95376387","wem/bandit_party_1","A229SEF35EGTSF","either","5","376","","","","","","","0","0","1","0.3805788675","","0.6","0.2","0.8","0.4","","","","","0.2745112141","0.1394203739","0.3805788675","0.3472982705","","","","","","","","","","75","K","2","","","185","main_expt",""
"","bandit","265","737146","0.0-227.0-0.0","95376387","wem/bandit_party_1","A229SEF35EGTSF","either","5","362","","","","","","","0","0","1","0.4236809331","","0.6","0.2","0.8","0.4","","","","","0.2774566956","0.1557479742","0.4236809331","0.3095995051","","","","","","","","","","75","K","2","","","186","main_expt",""
"","bandit","266","739114","0.0-228.0-0.0","95376387","wem/bandit_party_1","A229SEF35EGTSF","either","5","434","","","","","","","0","0","1","0.4058627081","","0.6","0.2","0.8","0.4","","","","","0.2876011691","0.1823611596","0.4058627081","0.2567332284","","","","","","","","","","75","K","2","","","187","main_expt",""
"","bandit","267","740998","0.0-229.0-0.0","95376387","wem/bandit_party_1","A229SEF35EGTSF","either","5","354","","","","","","","0","0","1","0.2947112378","","0.6","0.2","0.8","0.4","","","","","0.2947112378","0.1854179297","0.3913346521","0.2555256861","","","","","","","","","","72","H","0","img/none_selected.jpg","","188","main_expt",""
"","bandit","268","742859","0.0-230.0-0.0","95376387","wem/bandit_party_1","A229SEF35EGTSF","either","5","338","","","","","","","0","1","0","","0.2581494","0.6","0.2","0.8","0.4","0.2581494","0.1875645599","0.3760164219","0.2009875262","","","","","","","","","","","","","","72","H","0","img/none_selected.jpg","","189","main_expt",""
"","bandit","269","744807","0.0-231.0-0.0","95376387","wem/bandit_party_1","A229SEF35EGTSF","either","5","412","","","","","","","0","0","1","","0.1756323468","0.6","0.2","0.8","0.4","0.1756323468","0.2018323604","0.3327352817","0.2055488595","","","","","","","","","","","","","","72","H","0","img/none_selected.jpg","","190","main_expt",""
"","bandit","270","746674","0.0-232.0-0.0","95376387","wem/bandit_party_1","A229SEF35EGTSF","either","5","334","","","","","","","0","0","1","0.2521570866","","0.6","0.2","0.8","0.4","","","","","0.2521570866","0.221094727","0.3015177445","0.1506387864","","","","","","","","","","72","H","0","img/none_selected.jpg","","191","main_expt",""
"","bandit","271","748617","0.0-233.0-0.0","95376387","wem/bandit_party_1","A229SEF35EGTSF","either","5","422","","","","","","","0","0","1","0.2964739449","","0.6","0.2","0.8","0.4","","","","","0.2964739449","0.2320570195","0.2773298268","0.2027442266","","","","","","","","","","72","H","0","img/none_selected.jpg","","192","main_expt",""
"","bandit","272","750486","0.0-234.0-0.0","95376387","wem/bandit_party_1","A229SEF35EGTSF","either","5","334","","","","","","","1","0","0","0.2612966838","","0.6","0.2","0.8","0.4","","","","","0.2612966838","0.2948950962","0.2836613797","0.1969137872","","","","","","","","","","72","H","0","img/none_selected.jpg","","193","main_expt",""
"","bandit","273","752376","0.0-235.0-0.0","95376387","wem/bandit_party_1","A229SEF35EGTSF","either","5","370","","","","","","","0","1","0","","0.3292914436","0.6","0.2","0.8","0.4","0.3292914436","0.2602906927","0.2799350415","0.2114994946","","","","","","","","","","","","","","72","H","0","img/none_selected.jpg","","194","main_expt",""
"","bandit","274","754330","0.0-236.0-0.0","95376387","wem/bandit_party_1","A229SEF35EGTSF","either","5","420","","","","","","","1","0","0","0.4070308407","","0.6","0.2","0.8","0.4","","","","","0.4070308407","0.1771499101","0.2068597772","0.2467939011","","","","","","","","","","72","H","0","img/none_selected.jpg","","195","main_expt",""
"","bandit","275","756226","0.0-237.0-0.0","95376387","wem/bandit_party_1","A229SEF35EGTSF","either","5","362","","","","","","","0","0","1","","0.3494820729","0.6","0.2","0.8","0.4","0.3494820729","0.1746274925","0.2679469531","0.2731811988","","","","","","","","","","","","","","72","H","0","img/none_selected.jpg","","196","main_expt",""
"","bandit","276","758105","0.0-238.0-0.0","95376387","wem/bandit_party_1","A229SEF35EGTSF","either","5","353","","","","","","","1","0","0","0.3571939809","","0.6","0.2","0.8","0.4","","","","","0.3571939809","0.193224684","0.2448078588","0.2512114903","","","","","","","","","","72","H","0","img/none_selected.jpg","","197","main_expt",""
"","bandit","277","760089","0.0-239.0-0.0","95376387","wem/bandit_party_1","A229SEF35EGTSF","either","5","445","","","","","","","1","0","0","0.382430028","","0.6","0.2","0.8","0.4","","","","","0.382430028","0.1771509929","0.2433987968","0.190651112","","","","","","","","","","72","H","0","img/none_selected.jpg","","198","main_expt",""
"","bandit","278","761979","0.0-240.0-0.0","95376387","wem/bandit_party_1","A229SEF35EGTSF","either","5","355","","","","","","","0","0","1","0.3353474301","","0.6","0.2","0.8","0.4","","","","","0.3353474301","0.2466668772","0.2653624242","0.1701189695","","","","","","","","","","72","H","0","img/none_selected.jpg","","199","main_expt",""
"","bandit","279","764107","0.0-241.0-0.0","95376387","wem/bandit_party_1","A229SEF35EGTSF","either","5","465","","","","","","","0","0","1","","0.3321976498","0.6","0.2","0.8","0.4","0.3321976498","0.2477816141","0.2551376492","0.1656975488","","","","","","","","","","","","","","72","H","0","img/none_selected.jpg","","200","main_expt",""
"","bandit","280","765996","0.0-242.0-0.0","95376387","wem/bandit_party_1","A229SEF35EGTSF","either","5","355","","","","","","","0","0","1","0.3218117355","","0.6","0.2","0.8","0.4","","","","","0.3218117355","0.2744817861","0.2660639347","0.1647298582","","","","","","","","","","72","H","0","img/none_selected.jpg","","201","main_expt",""
"","bandit","281","767942","0.0-243.0-0.0","95376387","wem/bandit_party_1","A229SEF35EGTSF","either","5","402","","","","","","","0","0","1","0.2949214693","","0.6","0.2","0.8","0.4","","","","","0.2949214693","0.3043062986","0.2220900594","0.1242041815","","","","","","","","","","72","H","0","img/none_selected.jpg","","202","main_expt",""
"","bandit","282","769905","0.0-244.0-0.0","95376387","wem/bandit_party_1","A229SEF35EGTSF","either","5","430","","","","","","","0","1","0","","0.300077299","0.6","0.2","0.8","0.4","0.300077299","0.272185569","0.1543353204","0.1684487429","","","","","","","","","","","","","","72","H","0","img/none_selected.jpg","","203","main_expt",""
"","bandit","283","771801","0.0-245.0-0.0","95376387","wem/bandit_party_1","A229SEF35EGTSF","either","5","355","","","","","","","0","1","0","","0.2610767704","0.6","0.2","0.8","0.4","0.2866085977","0.2610767704","0.1605482003","0.1666409686","","","","","","","","","","","","","","74","J","1","","","204","main_expt",""
"","bandit","284","773733","0.0-246.0-0.0","95376387","wem/bandit_party_1","A229SEF35EGTSF","either","5","390","","","","","","","0","0","1","","0.2832615928","0.6","0.2","0.8","0.4","0.2695546272","0.2832615928","0.1406914754","0.2197286508","","","","","","","","","","","","","","74","J","1","","","205","main_expt",""
"","bandit","285","775640","0.0-247.0-0.0","95376387","wem/bandit_party_1","A229SEF35EGTSF","either","5","369","","","","","","","0","0","1","","0.300913322","0.6","0.2","0.8","0.4","0.2622178416","0.300913322","0.1138947463","0.2754509052","","","","","","","","","","","","","","74","J","1","","","206","main_expt",""
"","bandit","286","777493","0.0-248.0-0.0","95376387","wem/bandit_party_1","A229SEF35EGTSF","either","5","310","","","","","","","0","0","1","","0.3260258847","0.6","0.2","0.8","0.4","0.2498186578","0.3260258847","0.1096702189","0.2664869377","","","","","","","","","","","","","","74","J","1","","","207","main_expt",""
"","bandit","287","779429","0.0-249.0-0.0","95376387","wem/bandit_party_1","A229SEF35EGTSF","either","5","396","","","","","","","0","0","1","","0.3173829003","0.6","0.2","0.8","0.4","0.2335358635","0.3173829003","0.09922356593","0.2686565688","","","","","","","","","","","","","","74","J","1","","","208","main_expt",""
"","bandit","288","781444","0.0-250.0-0.0","95376387","wem/bandit_party_1","A229SEF35EGTSF","either","5","491","","","","","","","0","0","1","0.101567507","","0.6","0.2","0.8","0.4","","","","","0.2638942681","0.3153846937","0.101567507","0.2380255957","","","","","","","","","","75","K","2","","","209","main_expt",""
"","bandit","289","783482","0.0-251.0-0.0","95376387","wem/bandit_party_1","A229SEF35EGTSF","either","5","366","","","","","","","0","0","1","0.08675379402","","0.6","0.2","0.8","0.4","","","","","0.2526926237","0.3010876552","0.08675379402","0.2507768727","","","","","","","","","","75","K","2","","","210","main_expt",""
"","bandit","290","785371","0.0-252.0-0.0","95376387","wem/bandit_party_1","A229SEF35EGTSF","either","5","371","","","","","","","0","0","1","0.07512021269","","0.6","0.2","0.8","0.4","","","","","0.2740367769","0.2864900033","0.07512021269","0.2685142319","","","","","","","","","","75","K","2","","","211","main_expt",""
"","bandit","291","787297","0.0-253.0-0.0","95376387","wem/bandit_party_1","A229SEF35EGTSF","either","5","397","","","","","","","0","0","1","0.08144254236","","0.6","0.2","0.8","0.4","","","","","0.2440836191","0.3163372434","0.08144254236","0.260511483","","","","","","","","","","75","K","2","","","212","main_expt",""
"","bandit","292","789256","0.0-254.0-0.0","95376387","wem/bandit_party_1","A229SEF35EGTSF","either","5","442","","","","","","","0","0","1","0.06585574052","","0.6","0.2","0.8","0.4","","","","","0.2341903104","0.2701305136","0.06585574052","0.2579605047","","","","","","","","","","75","K","2","","","213","main_expt",""
"","bandit","293","791560","0.0-255.0-0.0","95376387","wem/bandit_party_1","A229SEF35EGTSF","either","5","762","","","","","","","0","1","0","","0.302599165","0.6","0.2","0.8","0.4","0.2097526345","0.302599165","0.08686614453","0.2470456849","","","","","","","","","","","","","","74","J","1","","","214","main_expt",""
"","bandit","294","793479","0.0-256.0-0.0","95376387","wem/bandit_party_1","A229SEF35EGTSF","either","5","377","","","","","","","0","0","1","","0.2968005471","0.6","0.2","0.8","0.4","0.1796882487","0.2968005471","0.1068548489","0.3285383036","","","","","","","","","","","","","","74","J","1","","","215","main_expt",""
"","bandit","295","795262","0.0-257.0-0.0","95376387","wem/bandit_party_1","A229SEF35EGTSF","either","5","241","","","","","","","0","0","1","","0.2835536598","0.6","0.2","0.8","0.4","0.2237900511","0.2835536598","0.1211736082","0.3780044773","","","","","","","","","","","","","","74","J","1","","","216","main_expt",""
"","bandit","296","797178","0.0-258.0-0.0","95376387","wem/bandit_party_1","A229SEF35EGTSF","either","5","347","","","","","","","0","0","1","","0.2520762718","0.6","0.2","0.8","0.4","0.2265358539","0.2520762718","0.09343701815","0.3939228946","","","","","","","","","","","","","","74","J","1","","","217","main_expt",""
"","bandit","297","799826","0.0-259.0-0.0","95376387","wem/bandit_party_1","A229SEF35EGTSF","either","5","1126","","","","","","","0","0","1","","0.2562699476","0.6","0.2","0.8","0.4","0.2364013437","0.2562699476","0.1001055386","0.3198270803","","","","","","","","","","","","","","74","J","1","","","218","main_expt",""
"","bandit","298","801742","0.0-260.0-0.0","95376387","wem/bandit_party_1","A229SEF35EGTSF","either","5","381","","","","","","","0","0","1","","0.3002431464","0.6","0.2","0.8","0.4","0.2810560361","0.3002431464","0.09524874014","0.3502502288","","","","","","","","","","","","","","74","J","1","","","219","main_expt",""
"","bandit","299","804329","0.0-261.0-0.0","95376387","wem/bandit_party_1","A229SEF35EGTSF","either","5","1057","","","","","","","0","0","1","","0.3027429446","0.6","0.2","0.8","0.4","0.3027429446","0.3365413303","0.1304899995","0.3402456168","","","","","","","","","","","","","","72","H","0","img/none_selected.jpg","","220","main_expt",""
"","bandit","300","806186","0.0-262.0-0.0","95376387","wem/bandit_party_1","A229SEF35EGTSF","either","5","321","","","","","","","0","0","1","","0.3132134988","0.6","0.2","0.8","0.4","0.3132134988","0.2946103072","0.1272814923","0.3770059732","","","","","","","","","","","","","","72","H","0","img/none_selected.jpg","","221","main_expt",""
"","bandit","301","808128","0.0-263.0-0.0","95376387","wem/bandit_party_1","A229SEF35EGTSF","either","5","399","","","","","","","0","0","1","0.2424821827","","0.6","0.2","0.8","0.4","","","","","0.2424821827","0.3267284332","0.1654407056","0.3864421123","","","","","","","","","","72","H","0","img/none_selected.jpg","","222","main_expt",""
"","bandit","302","810045","0.0-264.0-0.0","95376387","wem/bandit_party_1","A229SEF35EGTSF","either","5","374","","","","","","","0","0","1","0.2595367495","","0.6","0.2","0.8","0.4","","","","","0.2595367495","0.3175152631","0.1788325852","0.4205211408","","","","","","","","","","72","H","0","img/none_selected.jpg","","223","main_expt",""
"","bandit","303","812050","0.0-265.0-0.0","95376387","wem/bandit_party_1","A229SEF35EGTSF","either","5","471","","","","","","","0","1","0","","0.328819141","0.6","0.2","0.8","0.4","0.328819141","0.3192400935","0.1736623033","0.4131889957","","","","","","","","","","","","","","72","H","0","img/none_selected.jpg","","224","main_expt",""
"","bandit","304","814027","0.0-266.0-0.0","95376387","wem/bandit_party_1","A229SEF35EGTSF","either","5","434","","","","","","","1","0","0","0.356121412","","0.6","0.2","0.8","0.4","","","","","0.356121412","0.3096750449","0.1721911447","0.4001513574","","","","","","","","","","72","H","0","img/none_selected.jpg","","225","main_expt",""
"","bandit","305","815920","0.0-267.0-0.0","95376387","wem/bandit_party_1","A229SEF35EGTSF","either","5","353","","","","","","","1","0","0","0.3394019192","","0.6","0.2","0.8","0.4","","","","","0.3394019192","0.3142833063","0.2133818582","0.3963688582","","","","","","","","","","72","H","0","img/none_selected.jpg","","226","main_expt",""
"","bandit","306","817841","0.0-268.0-0.0","95376387","wem/bandit_party_1","A229SEF35EGTSF","either","5","374","","","","","","","0","0","1","","0.2860553004","0.6","0.2","0.8","0.4","0.2860553004","0.3096885674","0.2620007467","0.3979714495","","","","","","","","","","","","","","72","H","0","img/none_selected.jpg","","227","main_expt",""
"","bandit","307","819679","0.0-269.0-0.0","95376387","wem/bandit_party_1","A229SEF35EGTSF","either","5","296","","","","","","","1","0","0","0.2967856672","","0.6","0.2","0.8","0.4","","","","","0.2967856672","0.3048295172","0.2961930455","0.3811043637","","","","","","","","","","72","H","0","img/none_selected.jpg","","228","main_expt",""
"","bandit","308","821602","0.0-270.0-0.0","95376387","wem/bandit_party_1","A229SEF35EGTSF","either","5","379","","","","","","","0","0","1","0.2857745529","","0.6","0.2","0.8","0.4","","","","","0.2857745529","0.2553920021","0.3081123415","0.3488149186","","","","","","","","","","72","H","0","img/none_selected.jpg","","229","main_expt",""
"","bandit","309","823345","0.0-271.0-0.0","95376387","wem/bandit_party_1","A229SEF35EGTSF","either","5","205","","","","","","","0","0","1","","0.2589404948","0.6","0.2","0.8","0.4","0.2589404948","0.2783794412","0.3027177586","0.2883621188","","","","","","","","","","","","","","72","H","0","img/none_selected.jpg","","230","main_expt",""
"","bandit","310","825317","0.0-272.0-0.0","95376387","wem/bandit_party_1","A229SEF35EGTSF","either","5","430","","","","","","","0","0","1","0.2628441024","","0.6","0.2","0.8","0.4","","","","","0.2628441024","0.2735536708","0.2495346478","0.2444465504","","","","","","","","","","72","H","0","img/none_selected.jpg","","231","main_expt",""
"","bandit","311","827255","0.0-273.0-0.0","95376387","wem/bandit_party_1","A229SEF35EGTSF","either","5","391","","","","","","","0","0","1","","0.2996930955","0.6","0.2","0.8","0.4","0.276537748","0.2262440502","0.2185872191","0.2996930955","","","","","","","","","","","","","","76","L","3","","","232","main_expt",""
"","bandit","312","829129","0.0-274.0-0.0","95376387","wem/bandit_party_1","A229SEF35EGTSF","either","5","341","","","","","","","0","0","1","0.3103031796","","0.6","0.2","0.8","0.4","","","","","0.2485723575","0.2171974885","0.1874863907","0.3103031796","","","","","","","","","","76","L","3","","","233","main_expt",""
"","bandit","313","831251","0.0-275.0-0.0","95376387","wem/bandit_party_1","A229SEF35EGTSF","either","5","597","","","","","","","0","1","0","","0.2971988612","0.6","0.2","0.8","0.4","0.2172766866","0.2951485073","0.2165838284","0.2971988612","","","","","","","","","","","","","","76","L","3","","","234","main_expt",""
"","bandit","314","833160","0.0-276.0-0.0","95376387","wem/bandit_party_1","A229SEF35EGTSF","either","5","380","","","","","","","1","0","0","0.3266576642","","0.6","0.2","0.8","0.4","","","","","0.221542824","0.3135740045","0.1791302586","0.3266576642","","","","","","","","","","76","L","3","","","235","main_expt",""
