"consent","trial_type","trial_index","time_elapsed","internal_node_id","subjID","study","MID","cond","drift","rt","responses","button_pressed","key_press","like","value","connected","gems","bombs","no_reward","GemPrChosen","BombPrChosen","GainOverPainPr_0","GainOverPainPr_1","GainOverPainPr_2","GainOverPainPr_3","LosePr_0","LosePr_1","LosePr_2","LosePr_3","WinPr_0","WinPr_1","WinPr_2","WinPr_3","Q0","Q1","Q2","gender","age","ethnicity","label","expt_phase","target","respCharCode","respKey","respChoiceNum","respChoice","practice","trial_counter","trial_label","Q0_index","view_history"
"GDM/GDM_behavioral_consent_30min_online.html","consent","0","31992","0.0-0.0","96415329","wem/bandit_party_1","A1R9PH4LOMKZ13","either","7","","","","","","","","","","","","","","","","","","","","","","","","","","","","","","","","","","","","","","","","","",""
"","survey-text","1","42633","0.0-1.0","96415329","wem/bandit_party_1","A1R9PH4LOMKZ13","either","7","9635","{""Q0"":""A1R9PH4LOMKZ13""}","","","","","","","","","","","","","","","","","","","","","","","","","","","","","","","","","","","","","","","",""
"","button-response","2","46295","0.0-2.0","96415329","wem/bandit_party_1","A1R9PH4LOMKZ13","either","7","2658","","1","","","","","","","","","","","","","","","","","","","","","","","","","","","","","","","","","","","","","","",""
"","text-replacement","3","55824","0.0-3.0","96415329","wem/bandit_party_1","A1R9PH4LOMKZ13","either","7","8526","","","32","","","","","","","","","","","","","","","","","","","","","","","","","","","","","","","","","","","","","",""
"","text-replacement","4","61263","0.0-4.0","96415329","wem/bandit_party_1","A1R9PH4LOMKZ13","either","7","5438","","","32","","","","","","","","","","","","","","","","","","","","","","","","","","","","","","","","","","","","","",""
"","identification","5","68792","0.0-6.0-0.0","96415329","wem/bandit_party_1","A1R9PH4LOMKZ13","either","7","7517","","","","3","2","2","","","","","","","","","","","","","","","","","","","","","","","","pre","identification_pre","the Republican party","","","","","","","","",""
"","identification","6","74184","0.0-6.0-1.0","96415329","wem/bandit_party_1","A1R9PH4LOMKZ13","either","7","4381","","","","4","4","4","","","","","","","","","","","","","","","","","","","","","","","","pre","identification_pre","the Democratic Party","","","","","","","","",""
"","text-replacement","7","79936","0.0-7.0","96415329","wem/bandit_party_1","A1R9PH4LOMKZ13","either","7","4750","","","32","","","","","","","","","","","","","","","","","","","","","","","","","","","","","","","","","","","","","",""
"","text-replacement","8","88734","0.0-8.0","96415329","wem/bandit_party_1","A1R9PH4LOMKZ13","either","7","8797","","","32","","","","","","","","","","","","","","","","","","","","","","","","","","","","","","","","","","","","","",""
"","text-replacement","9","95720","0.0-9.0","96415329","wem/bandit_party_1","A1R9PH4LOMKZ13","either","7","6984","","","32","","","","","","","","","","","","","","","","","","","","","","","","","","","","","","","","","","","","","",""
"","text-replacement","10","99407","0.0-10.0","96415329","wem/bandit_party_1","A1R9PH4LOMKZ13","either","7","3685","","","32","","","","","","","","","","","","","","","","","","","","","","","","","","","","","","","","","","","","","",""
"","text-replacement","11","106143","0.0-11.0","96415329","wem/bandit_party_1","A1R9PH4LOMKZ13","either","7","6735","","","32","","","","","","","","","","","","","","","","","","","","","","","","","","","","","","","","","","","","","",""
"","bandit","12","109318","0.0-12.0-0.0","96415329","wem/bandit_party_1","A1R9PH4LOMKZ13","either","7","1668","","","","","","","0","0","1","0","0","","","","","0","","","","0","","","","","","","","","","","","","74","J","0","img/none_selected_demo.jpg","true","0","","",""
"","bandit","13","112189","0.0-13.0-0.0","96415329","wem/bandit_party_1","A1R9PH4LOMKZ13","either","7","1366","","","","","","","0","0","1","0","0","","","","","0","","","","0","","","","","","","","","","","","","75","K","0","img/none_selected_demo.jpg","true","0","","",""
"","text-replacement","14","116991","0.0-14.0","96415329","wem/bandit_party_1","A1R9PH4LOMKZ13","either","7","4800","","","32","","","","","","","","","","","","","","","","","","","","","","","","","","","","","","","","","","","","","",""
"","text-replacement","15","120454","0.0-15.0","96415329","wem/bandit_party_1","A1R9PH4LOMKZ13","either","7","3462","","","32","","","","","","","","","","","","","","","","","","","","","","","","","","","","","","","","","","","","","",""
"","text-replacement","16","127831","0.0-16.0","96415329","wem/bandit_party_1","A1R9PH4LOMKZ13","either","7","7376","","","32","","","","","","","","","","","","","","","","","","","","","","","","","","","","","","","","","","","","","",""
"","text-replacement","17","134982","0.0-17.0","96415329","wem/bandit_party_1","A1R9PH4LOMKZ13","either","7","7149","","","32","","","","","","","","","","","","","","","","","","","","","","","","","","","","","","","","","","","","","",""
"","bandit","18","137331","0.0-18.0-0.0","96415329","wem/bandit_party_1","A1R9PH4LOMKZ13","either","7","845","","","","","","","1","0","0","0.8","","0.5","0.5","","","","","","","0.8","0.2","","","","","","","","","","","","74","J","0","img/none_selected_demo.jpg","true","0","80_20_practice","",""
"","bandit","19","139348","0.0-18.0-1.0","96415329","wem/bandit_party_1","A1R9PH4LOMKZ13","either","7","513","","","","","","","1","0","0","0.8","","0.5","0.5","","","","","","","0.8","0.2","","","","","","","","","","","","74","J","0","img/none_selected_demo.jpg","true","0","80_20_practice","",""
"","bandit","20","141251","0.0-18.0-2.0","96415329","wem/bandit_party_1","A1R9PH4LOMKZ13","either","7","399","","","","","","","0","0","1","","0.8","0.5","0.5","","","0.8","0.2","","","","","","","","","","","","","","","","74","J","0","img/none_selected_demo.jpg","true","0","80_20_practice","",""
"","bandit","21","143027","0.0-18.0-3.0","96415329","wem/bandit_party_1","A1R9PH4LOMKZ13","either","7","271","","","","","","","0","1","0","","0.8","0.5","0.5","","","0.8","0.2","","","","","","","","","","","","","","","","74","J","0","img/none_selected_demo.jpg","true","0","80_20_practice","",""
"","bandit","22","144812","0.0-18.0-4.0","96415329","wem/bandit_party_1","A1R9PH4LOMKZ13","either","7","280","","","","","","","0","1","0","","0.8","0.5","0.5","","","0.8","0.2","","","","","","","","","","","","","","","","74","J","0","img/none_selected_demo.jpg","true","0","80_20_practice","",""
"","bandit","23","146564","0.0-18.0-5.0","96415329","wem/bandit_party_1","A1R9PH4LOMKZ13","either","7","248","","","","","","","0","0","1","0.8","","0.5","0.5","","","","","","","0.8","0.2","","","","","","","","","","","","74","J","0","img/none_selected_demo.jpg","true","0","80_20_practice","",""
"","bandit","24","148372","0.0-18.0-6.0","96415329","wem/bandit_party_1","A1R9PH4LOMKZ13","either","7","304","","","","","","","0","1","0","","0.8","0.5","0.5","","","0.8","0.2","","","","","","","","","","","","","","","","74","J","0","img/none_selected_demo.jpg","true","0","80_20_practice","",""
"","bandit","25","150196","0.0-18.0-7.0","96415329","wem/bandit_party_1","A1R9PH4LOMKZ13","either","7","320","","","","","","","0","0","1","","0.2","0.5","0.5","","","0.8","0.2","","","","","","","","","","","","","","","","75","K","1","","true","0","80_20_practice","",""
"","bandit","26","151932","0.0-18.0-8.0","96415329","wem/bandit_party_1","A1R9PH4LOMKZ13","either","7","231","","","","","","","0","0","1","","0.2","0.5","0.5","","","0.8","0.2","","","","","","","","","","","","","","","","75","K","1","","true","0","80_20_practice","",""
"","bandit","27","153692","0.0-18.0-9.0","96415329","wem/bandit_party_1","A1R9PH4LOMKZ13","either","7","256","","","","","","","0","1","0","","0.8","0.5","0.5","","","0.8","0.2","","","","","","","","","","","","","","","","74","J","0","img/none_selected_demo.jpg","true","0","80_20_practice","",""
"","bandit","28","155355","0.0-18.0-10.0","96415329","wem/bandit_party_1","A1R9PH4LOMKZ13","either","7","159","","","","","","","1","0","0","0.8","","0.5","0.5","","","","","","","0.8","0.2","","","","","","","","","","","","74","J","0","img/none_selected_demo.jpg","true","0","80_20_practice","",""
"","bandit","29","157155","0.0-18.0-11.0","96415329","wem/bandit_party_1","A1R9PH4LOMKZ13","either","7","296","","","","","","","0","1","0","","0.8","0.5","0.5","","","0.8","0.2","","","","","","","","","","","","","","","","74","J","0","img/none_selected_demo.jpg","true","0","80_20_practice","",""
"","bandit","30","159059","0.0-18.0-12.0","96415329","wem/bandit_party_1","A1R9PH4LOMKZ13","either","7","400","","","","","","","1","0","0","0.8","","0.5","0.5","","","","","","","0.8","0.2","","","","","","","","","","","","74","J","0","img/none_selected_demo.jpg","true","0","80_20_practice","",""
"","bandit","31","160821","0.0-18.0-13.0","96415329","wem/bandit_party_1","A1R9PH4LOMKZ13","either","7","256","","","","","","","0","1","0","","0.8","0.5","0.5","","","0.8","0.2","","","","","","","","","","","","","","","","74","J","0","img/none_selected_demo.jpg","true","0","80_20_practice","",""
"","bandit","32","162556","0.0-18.0-14.0","96415329","wem/bandit_party_1","A1R9PH4LOMKZ13","either","7","230","","","","","","","0","0","1","","0.8","0.5","0.5","","","0.8","0.2","","","","","","","","","","","","","","","","74","J","0","img/none_selected_demo.jpg","true","0","80_20_practice","",""
"","bandit","33","164268","0.0-18.0-15.0","96415329","wem/bandit_party_1","A1R9PH4LOMKZ13","either","7","207","","","","","","","1","0","0","0.8","","0.5","0.5","","","","","","","0.8","0.2","","","","","","","","","","","","74","J","0","img/none_selected_demo.jpg","true","0","80_20_practice","",""
"","bandit","34","166035","0.0-18.0-16.0","96415329","wem/bandit_party_1","A1R9PH4LOMKZ13","either","7","263","","","","","","","0","1","0","","0.8","0.5","0.5","","","0.8","0.2","","","","","","","","","","","","","","","","74","J","0","img/none_selected_demo.jpg","true","0","80_20_practice","",""
"","bandit","35","167780","0.0-18.0-17.0","96415329","wem/bandit_party_1","A1R9PH4LOMKZ13","either","7","240","","","","","","","0","0","1","","0.8","0.5","0.5","","","0.8","0.2","","","","","","","","","","","","","","","","74","J","0","img/none_selected_demo.jpg","true","0","80_20_practice","",""
"","bandit","36","169499","0.0-18.0-18.0","96415329","wem/bandit_party_1","A1R9PH4LOMKZ13","either","7","215","","","","","","","1","0","0","0.8","","0.5","0.5","","","","","","","0.8","0.2","","","","","","","","","","","","74","J","0","img/none_selected_demo.jpg","true","0","80_20_practice","",""
"","bandit","37","171117","0.0-18.0-19.0","96415329","wem/bandit_party_1","A1R9PH4LOMKZ13","either","7","113","","","","","","","0","0","1","","0.8","0.5","0.5","","","0.8","0.2","","","","","","","","","","","","","","","","74","J","0","img/none_selected_demo.jpg","true","0","80_20_practice","",""
"","text-replacement","38","174775","0.0-19.0","96415329","wem/bandit_party_1","A1R9PH4LOMKZ13","either","7","3656","","","32","","","","","","","","","","","","","","","","","","","","","","","","","","","","","","","","","","","","","",""
"","bandit","39","177996","0.0-20.0-0.0","96415329","wem/bandit_party_1","A1R9PH4LOMKZ13","either","7","1717","","","","","","","1","0","0","1","0","","","","","0","1","","","1","0","","","","","","","","","","","","74","J","0","img/none_selected_demo.jpg","true","0","","",""
"","text-replacement","40","183024","0.0-21.0","96415329","wem/bandit_party_1","A1R9PH4LOMKZ13","either","7","5026","","","32","","","","","","","","","","","","","","","","","","","","","","","","","","","","","","","","","","","","","",""
"","text-replacement","41","187815","0.0-22.0","96415329","wem/bandit_party_1","A1R9PH4LOMKZ13","either","7","4790","","","32","","","","","","","","","","","","","","","","","","","","","","","","","","","","","","","","","","","","","",""
"","text-replacement","42","191062","0.0-23.0","96415329","wem/bandit_party_1","A1R9PH4LOMKZ13","either","7","3246","","","32","","","","","","","","","","","","","","","","","","","","","","","","","","","","","","","","","","","","","",""
"","text-replacement","43","193951","0.0-24.0","96415329","wem/bandit_party_1","A1R9PH4LOMKZ13","either","7","2887","","","32","","","","","","","","","","","","","","","","","","","","","","","","","","","","","","","","","","","","","",""
"","text-replacement","44","200207","0.0-25.0","96415329","wem/bandit_party_1","A1R9PH4LOMKZ13","either","7","6254","","","32","","","","","","","","","","","","","","","","","","","","","","","","","","","","","","","","","","","","","",""
"","text-replacement","45","203767","0.0-26.0","96415329","wem/bandit_party_1","A1R9PH4LOMKZ13","either","7","3558","","","32","","","","","","","","","","","","","","","","","","","","","","","","","","","","","","","","","","","","","",""
"","text-replacement","46","206576","0.0-27.0","96415329","wem/bandit_party_1","A1R9PH4LOMKZ13","either","7","2807","","","32","","","","","","","","","","","","","","","","","","","","","","","","","","","","","","","","","","","","","",""
"","text-replacement","47","211230","0.0-28.0","96415329","wem/bandit_party_1","A1R9PH4LOMKZ13","either","7","4653","","","32","","","","","","","","","","","","","","","","","","","","","","","","","","","","","","","","","","","","","",""
"","text-replacement","48","231159","0.0-29.0","96415329","wem/bandit_party_1","A1R9PH4LOMKZ13","either","7","19928","","","32","","","","","","","","","","","","","","","","","","","","","","","","","","","","","","","","","","","","","",""
"","text-replacement","49","232943","0.0-30.0","96415329","wem/bandit_party_1","A1R9PH4LOMKZ13","either","7","1783","","","32","","","","","","","","","","","","","","","","","","","","","","","","","","","","","","","","","","","","","",""
"","text-replacement","50","236638","0.0-31.0","96415329","wem/bandit_party_1","A1R9PH4LOMKZ13","either","7","3693","","","32","","","","","","","","","","","","","","","","","","","","","","","","","","","","","","","","","","","","","",""
"","bandit","51","238644","0.0-32.0-0.0","96415329","wem/bandit_party_1","A1R9PH4LOMKZ13","either","7","501","","","","","","","0","1","0","","0.8","0.5","0.5","0.5","0.5","0.8","0.2","0.6","0.2","","","","","","","","","","","","","","72","H","0","img/none_selected.jpg","true","0","full_practice","",""
"","bandit","52","240452","0.0-32.0-1.0","96415329","wem/bandit_party_1","A1R9PH4LOMKZ13","either","7","303","","","","","","","1","0","0","0.8","","0.5","0.5","0.5","0.5","","","","","0.8","0.2","0.6","0.2","","","","","","","","","","72","H","0","img/none_selected.jpg","true","0","full_practice","",""
"","bandit","53","242252","0.0-32.0-2.0","96415329","wem/bandit_party_1","A1R9PH4LOMKZ13","either","7","295","","","","","","","1","0","0","0.8","","0.5","0.5","0.5","0.5","","","","","0.8","0.2","0.6","0.2","","","","","","","","","","72","H","0","img/none_selected.jpg","true","0","full_practice","",""
"","bandit","54","244012","0.0-32.0-3.0","96415329","wem/bandit_party_1","A1R9PH4LOMKZ13","either","7","255","","","","","","","0","0","1","","0.8","0.5","0.5","0.5","0.5","0.8","0.2","0.6","0.2","","","","","","","","","","","","","","72","H","0","img/none_selected.jpg","true","0","full_practice","",""
"","bandit","55","246003","0.0-32.0-4.0","96415329","wem/bandit_party_1","A1R9PH4LOMKZ13","either","7","487","","","","","","","0","0","1","","0.8","0.5","0.5","0.5","0.5","0.8","0.2","0.6","0.2","","","","","","","","","","","","","","72","H","0","img/none_selected.jpg","true","0","full_practice","",""
"","bandit","56","247699","0.0-32.0-5.0","96415329","wem/bandit_party_1","A1R9PH4LOMKZ13","either","7","192","","","","","","","0","0","1","","0.6","0.5","0.5","0.5","0.5","0.8","0.2","0.6","0.2","","","","","","","","","","","","","","75","K","2","","true","0","full_practice","",""
"","bandit","57","249516","0.0-32.0-6.0","96415329","wem/bandit_party_1","A1R9PH4LOMKZ13","either","7","310","","","","","","","0","1","0","","0.6","0.5","0.5","0.5","0.5","0.8","0.2","0.6","0.2","","","","","","","","","","","","","","75","K","2","","true","0","full_practice","",""
"","bandit","58","251292","0.0-32.0-7.0","96415329","wem/bandit_party_1","A1R9PH4LOMKZ13","either","7","271","","","","","","","1","0","0","0.6","","0.5","0.5","0.5","0.5","","","","","0.8","0.2","0.6","0.2","","","","","","","","","","75","K","2","","true","0","full_practice","",""
"","bandit","59","253076","0.0-32.0-8.0","96415329","wem/bandit_party_1","A1R9PH4LOMKZ13","either","7","280","","","","","","","1","0","0","0.6","","0.5","0.5","0.5","0.5","","","","","0.8","0.2","0.6","0.2","","","","","","","","","","75","K","2","","true","0","full_practice","",""
"","bandit","60","254740","0.0-32.0-9.0","96415329","wem/bandit_party_1","A1R9PH4LOMKZ13","either","7","158","","","","","","","0","1","0","","0.6","0.5","0.5","0.5","0.5","0.8","0.2","0.6","0.2","","","","","","","","","","","","","","75","K","2","","true","0","full_practice","",""
"","bandit","61","256524","0.0-32.0-10.0","96415329","wem/bandit_party_1","A1R9PH4LOMKZ13","either","7","280","","","","","","","0","1","0","","0.6","0.5","0.5","0.5","0.5","0.8","0.2","0.6","0.2","","","","","","","","","","","","","","75","K","2","","true","0","full_practice","",""
"","bandit","62","258269","0.0-32.0-11.0","96415329","wem/bandit_party_1","A1R9PH4LOMKZ13","either","7","239","","","","","","","0","0","1","0.6","","0.5","0.5","0.5","0.5","","","","","0.8","0.2","0.6","0.2","","","","","","","","","","75","K","2","","true","0","full_practice","",""
"","bandit","63","259971","0.0-32.0-12.0","96415329","wem/bandit_party_1","A1R9PH4LOMKZ13","either","7","198","","","","","","","0","0","1","","0.2","0.5","0.5","0.5","0.5","0.8","0.2","0.6","0.2","","","","","","","","","","","","","","74","J","1","","true","0","full_practice","",""
"","bandit","64","261651","0.0-32.0-13.0","96415329","wem/bandit_party_1","A1R9PH4LOMKZ13","either","7","175","","","","","","","0","0","1","0.2","","0.5","0.5","0.5","0.5","","","","","0.8","0.2","0.6","0.2","","","","","","","","","","74","J","1","","true","0","full_practice","",""
"","bandit","65","263275","0.0-32.0-14.0","96415329","wem/bandit_party_1","A1R9PH4LOMKZ13","either","7","120","","","","","","","0","1","0","","0.2","0.5","0.5","0.5","0.5","0.8","0.2","0.6","0.2","","","","","","","","","","","","","","76","L","3","","true","0","full_practice","",""
"","bandit","66","265051","0.0-32.0-15.0","96415329","wem/bandit_party_1","A1R9PH4LOMKZ13","either","7","271","","","","","","","1","0","0","0.2","","0.5","0.5","0.5","0.5","","","","","0.8","0.2","0.6","0.2","","","","","","","","","","76","L","3","","true","0","full_practice","",""
"","bandit","67","266844","0.0-32.0-16.0","96415329","wem/bandit_party_1","A1R9PH4LOMKZ13","either","7","287","","","","","","","1","0","0","0.2","","0.5","0.5","0.5","0.5","","","","","0.8","0.2","0.6","0.2","","","","","","","","","","76","L","3","","true","0","full_practice","",""
"","bandit","68","268460","0.0-32.0-17.0","96415329","wem/bandit_party_1","A1R9PH4LOMKZ13","either","7","112","","","","","","","0","0","1","","0.2","0.5","0.5","0.5","0.5","0.8","0.2","0.6","0.2","","","","","","","","","","","","","","76","L","3","","true","0","full_practice","",""
"","bandit","69","270268","0.0-32.0-18.0","96415329","wem/bandit_party_1","A1R9PH4LOMKZ13","either","7","303","","","","","","","0","0","1","","0.2","0.5","0.5","0.5","0.5","0.8","0.2","0.6","0.2","","","","","","","","","","","","","","74","J","1","","true","0","full_practice","",""
"","bandit","70","271940","0.0-32.0-19.0","96415329","wem/bandit_party_1","A1R9PH4LOMKZ13","either","7","167","","","","","","","0","0","1","0.2","","0.5","0.5","0.5","0.5","","","","","0.8","0.2","0.6","0.2","","","","","","","","","","74","J","1","","true","0","full_practice","",""
"","text","71","274958","0.0-33.0","96415329","wem/bandit_party_1","A1R9PH4LOMKZ13","either","7","3013","","","32","","","","","","","","","","","","","","","","","","","","","","","","","","","","","","","","","","","","","",""
"","text-replacement","72","284119","0.0-34.0","96415329","wem/bandit_party_1","A1R9PH4LOMKZ13","either","7","8157","","","32","","","","","","","","","","","","","","","","","","","","","","","","","","","","","","","","","","","","","",""
"","text-replacement","73","292070","0.0-35.0","96415329","wem/bandit_party_1","A1R9PH4LOMKZ13","either","7","7950","","","32","","","","","","","","","","","","","","","","","","","","","","","","","","","","","","","","","","","","","",""
"","text-replacement","74","297855","0.0-36.0","96415329","wem/bandit_party_1","A1R9PH4LOMKZ13","either","7","5784","","","32","","","","","","","","","","","","","","","","","","","","","","","","","","","","","","","","","","","","","",""
"","text-replacement","75","302495","0.0-37.0","96415329","wem/bandit_party_1","A1R9PH4LOMKZ13","either","7","4638","","","32","","","","","","","","","","","","","","","","","","","","","","","","","","","","","","","","","","","","","",""
"","text-replacement","76","308712","0.0-38.0","96415329","wem/bandit_party_1","A1R9PH4LOMKZ13","either","7","6214","","","32","","","","","","","","","","","","","","","","","","","","","","","","","","","","","","","","","","","","","",""
"","survey-multi-choice-replacement","77","318137","0.0-39.0-0.0","96415329","wem/bandit_party_1","A1R9PH4LOMKZ13","either","7","9418","","","","","","","","","","","","","","","","","","","","","","","","Equal amounts of money will be added to the pool for <span style='color:blue;'>DEMOCRATS</span> and subtracted from the pool for <span style='color:red;'>REPUBLICANS</span>","","","","","","","attn_check","","","","","","","","","2",""
"","instructions","78","320743","0.0-39.0-1.0-0.0","96415329","wem/bandit_party_1","A1R9PH4LOMKZ13","either","7","1604","","","","","","","","","","","","","","","","","","","","","","","","","","","","","","","","","","","","","","","","","[{""page_index"":0,""viewing_time"":1603}]"
"","survey-multi-choice-replacement","79","327247","0.0-39.1-0.1","96415329","wem/bandit_party_1","A1R9PH4LOMKZ13","either","7","5496","","","","","","","","","","","","","","","","","","","","","","","","Money will be added to the pool for <span style='color:blue;'>DEMOCRATS</span>","","","","","","","attn_check","","","","","","","","","0",""
"","survey-multi-choice-replacement","80","331111","0.0-40.0-0.0","96415329","wem/bandit_party_1","A1R9PH4LOMKZ13","either","7","2856","","","","","","","","","","","","","","","","","","","","","","","","Money will be subtracted from the pool for <span style='color:red;'>REPUBLICANS</span>","","","","","","","attn_check","","","","","","","","","1",""
"","instructions","81","334045","0.0-40.0-1.0-0.0","96415329","wem/bandit_party_1","A1R9PH4LOMKZ13","either","7","1931","","","","","","","","","","","","","","","","","","","","","","","","","","","","","","","","","","","","","","","","","[{""page_index"":0,""viewing_time"":1931}]"
"","survey-multi-choice-replacement","82","342231","0.0-40.1-0.1","96415329","wem/bandit_party_1","A1R9PH4LOMKZ13","either","7","7178","","","","","","","","","","","","","","","","","","","","","","","","Money will be added to the pool for <span style='color:blue;'>DEMOCRATS</span>","","","","","","","attn_check","","","","","","","","","0",""
"","instructions","83","344374","0.0-40.1-1.1-0.1","96415329","wem/bandit_party_1","A1R9PH4LOMKZ13","either","7","1140","","","","","","","","","","","","","","","","","","","","","","","","","","","","","","","","","","","","","","","","","[{""page_index"":0,""viewing_time"":1139}]"
"","survey-multi-choice-replacement","84","349206","0.0-40.2-0.2","96415329","wem/bandit_party_1","A1R9PH4LOMKZ13","either","7","3825","","","","","","","","","","","","","","","","","","","","","","","","Equal amounts of money will be added to the pool for <span style='color:blue;'>DEMOCRATS</span> and subtracted from the pool for <span style='color:red;'>REPUBLICANS</span>","","","","","","","attn_check","","","","","","","","","2",""
"","survey-multi-choice-replacement","85","353423","0.0-41.0-0.0","96415329","wem/bandit_party_1","A1R9PH4LOMKZ13","either","7","3209","","","","","","","","","","","","","","","","","","","","","","","","No money will be added to either pool","","","","","","","attn_check","","","","","","","","","3",""
"","bandit","86","358204","0.0-42.0-0.0","96415329","wem/bandit_party_1","A1R9PH4LOMKZ13","either","7","2273","","","","","","","0","0","1","","0.06530018083","0.8","0.4","0.6","0.2","0.01738065524","0.1480066451","0.06530018083","0.1952616071","","","","","","","","","","","","","","75","K","2","","","1","main_expt","",""
"","bandit","87","360332","0.0-43.0-0.0","96415329","wem/bandit_party_1","A1R9PH4LOMKZ13","either","7","622","","","","","","","0","0","1","0.1053714073","","0.8","0.4","0.6","0.2","","","","","0.0196943787","0.1053714073","0.1011701763","0.1652234336","","","","","","","","","","74","J","1","","","2","main_expt","",""
"","bandit","88","362675","0.0-44.0-0.0","96415329","wem/bandit_party_1","A1R9PH4LOMKZ13","either","7","837","","","","","","","0","0","1","0.01678573497","","0.8","0.4","0.6","0.2","","","","","0.01678573497","0.1460078221","0.09486719381","0.1347382479","","","","","","","","","","72","H","0","img/none_selected.jpg","","3","main_expt","",""
"","bandit","89","364316","0.0-45.0-0.0","96415329","wem/bandit_party_1","A1R9PH4LOMKZ13","either","7","136","","","","","","","0","0","1","","0.1684625442","0.8","0.4","0.6","0.2","0.02981965743","0.1866138214","0.06705802814","0.1684625442","","","","","","","","","","","","","","76","L","3","","","4","main_expt","",""
"","bandit","90","366116","0.0-46.0-0.0","96415329","wem/bandit_party_1","A1R9PH4LOMKZ13","either","7","295","","","","","","","0","0","1","","0.0822298525","0.8","0.4","0.6","0.2","0.02600208211","0.2445348717","0.0822298525","0.1792029032","","","","","","","","","","","","","","75","K","2","","","5","main_expt","",""
"","bandit","91","367883","0.0-47.0-0.0","96415329","wem/bandit_party_1","A1R9PH4LOMKZ13","either","7","262","","","","","","","0","0","1","0.02332436933","","0.8","0.4","0.6","0.2","","","","","0.02332436933","0.2546962146","0.09162209411","0.2153873139","","","","","","","","","","72","H","0","img/none_selected.jpg","","6","main_expt","",""
"","bandit","92","369667","0.0-48.0-0.0","96415329","wem/bandit_party_1","A1R9PH4LOMKZ13","either","7","279","","","","","","","0","0","1","","0.2344841702","0.8","0.4","0.6","0.2","0.02864040813","0.2344841702","0.1028820098","0.1757762721","","","","","","","","","","","","","","74","J","1","","","7","main_expt","",""
"","bandit","93","371444","0.0-49.0-0.0","96415329","wem/bandit_party_1","A1R9PH4LOMKZ13","either","7","271","","","","","","","0","0","1","","0.2241229746","0.8","0.4","0.6","0.2","0.02951264166","0.2473344203","0.1532270122","0.2241229746","","","","","","","","","","","","","","76","L","3","","","8","main_expt","",""
"","bandit","94","373212","0.0-50.0-0.0","96415329","wem/bandit_party_1","A1R9PH4LOMKZ13","either","7","262","","","","","","","0","0","1","","0.2199426203","0.8","0.4","0.6","0.2","0.02997011939","0.2642160399","0.2131450397","0.2199426203","","","","","","","","","","","","","","76","L","3","","","9","main_expt","",""
"","bandit","95","374877","0.0-51.0-0.0","96415329","wem/bandit_party_1","A1R9PH4LOMKZ13","either","7","159","","","","","","","0","0","1","","0.2104627424","0.8","0.4","0.6","0.2","0.02489651457","0.2104627424","0.2985754635","0.1520686932","","","","","","","","","","","","","","74","J","1","","","10","main_expt","",""
"","bandit","96","376444","0.0-52.0-0.0","96415329","wem/bandit_party_1","A1R9PH4LOMKZ13","either","7","61","","","","","","","0","0","1","0.01651058827","","0.8","0.4","0.6","0.2","","","","","0.01651058827","0.219372878","0.2924640086","0.2013349999","","","","","","","","","","72","H","0","img/none_selected.jpg","","11","main_expt","",""
"","bandit","97","378044","0.0-53.0-0.0","96415329","wem/bandit_party_1","A1R9PH4LOMKZ13","either","7","92","","","","","","","0","1","0","","0.3264291113","0.8","0.4","0.6","0.2","0.02341729431","0.2105839871","0.3264291113","0.2156800105","","","","","","","","","","","","","","75","K","2","","","12","main_expt","",""
"","bandit","98","379827","0.0-54.0-0.0","96415329","wem/bandit_party_1","A1R9PH4LOMKZ13","either","7","278","","","","","","","0","0","1","0.3254913314","","0.8","0.4","0.6","0.2","","","","","0.0257410372","0.2511698571","0.3254913314","0.1833947696","","","","","","","","","","75","K","2","","","13","main_expt","",""
"","bandit","99","381571","0.0-55.0-0.0","96415329","wem/bandit_party_1","A1R9PH4LOMKZ13","either","7","239","","","","","","","0","1","0","","0.3428504842","0.8","0.4","0.6","0.2","0.02570014082","0.2158977649","0.3428504842","0.243643366","","","","","","","","","","","","","","75","K","2","","","14","main_expt","",""
"","bandit","100","383291","0.0-56.0-0.0","96415329","wem/bandit_party_1","A1R9PH4LOMKZ13","either","7","215","","","","","","","0","0","1","","0.3244047679","0.8","0.4","0.6","0.2","0.04268316416","0.2762480727","0.3244047679","0.2265365198","","","","","","","","","","","","","","75","K","2","","","15","main_expt","",""
"","bandit","101","384859","0.0-57.0-0.0","96415329","wem/bandit_party_1","A1R9PH4LOMKZ13","either","7","63","","","","","","","1","0","0","0.3025313629","","0.8","0.4","0.6","0.2","","","","","0.04667408308","0.3202890724","0.3025313629","0.2484951132","","","","","","","","","","75","K","2","","","16","main_expt","",""
"","bandit","102","386508","0.0-58.0-0.0","96415329","wem/bandit_party_1","A1R9PH4LOMKZ13","either","7","144","","","","","","","0","0","1","","0.3291216938","0.8","0.4","0.6","0.2","0.0506688767","0.3680552247","0.3291216938","0.2570267238","","","","","","","","","","","","","","75","K","2","","","17","main_expt","",""
"","bandit","103","388084","0.0-59.0-0.0","96415329","wem/bandit_party_1","A1R9PH4LOMKZ13","either","7","68","","","","","","","0","0","1","","0.2987881532","0.8","0.4","0.6","0.2","0.02988526167","0.3968593921","0.2987881532","0.287418789","","","","","","","","","","","","","","75","K","2","","","18","main_expt","",""
"","bandit","104","389620","0.0-60.0-0.0","96415329","wem/bandit_party_1","A1R9PH4LOMKZ13","either","7","31","","","","","","","0","0","1","0.03476350355","","0.8","0.4","0.6","0.2","","","","","0.03476350355","0.4192996399","0.281207523","0.2338710899","","","","","","","","","","72","H","0","img/none_selected.jpg","","19","main_expt","",""
"","bandit","105","391212","0.0-61.0-0.0","96415329","wem/bandit_party_1","A1R9PH4LOMKZ13","either","7","87","","","","","","","0","0","1","0.0233687216","","0.8","0.4","0.6","0.2","","","","","0.0233687216","0.4362768361","0.291129981","0.2335293464","","","","","","","","","","72","H","0","img/none_selected.jpg","","20","main_expt","",""
"","bandit","106","392780","0.0-62.0-0.0","96415329","wem/bandit_party_1","A1R9PH4LOMKZ13","either","7","62","","","","","","","0","0","1","0.4599691003","","0.8","0.4","0.6","0.2","","","","","0.01272547494","0.4599691003","0.2729578326","0.2434826965","","","","","","","","","","74","J","1","","","21","main_expt","",""
"","bandit","107","394348","0.0-63.0-0.0","96415329","wem/bandit_party_1","A1R9PH4LOMKZ13","either","7","62","","","","","","","1","0","0","0.44353765","","0.8","0.4","0.6","0.2","","","","","0.01739491555","0.44353765","0.2805141014","0.2702300591","","","","","","","","","","74","J","1","","","22","main_expt","",""
"","bandit","108","395979","0.0-64.0-0.0","96415329","wem/bandit_party_1","A1R9PH4LOMKZ13","either","7","125","","","","","","","0","1","0","","0.4105594395","0.8","0.4","0.6","0.2","0.006692102231","0.4105594395","0.3016389313","0.2424740502","","","","","","","","","","","","","","74","J","1","","","23","main_expt","",""
"","bandit","109","399116","0.0-65.0-0.0","96415329","wem/bandit_party_1","A1R9PH4LOMKZ13","either","7","1632","","","","","","","0","0","1","","0.4243351486","0.8","0.4","0.6","0.2","0.01209419849","0.4243351486","0.2475621169","0.1754503809","","","","","","","","","","","","","","74","J","1","","","24","main_expt","",""
"","bandit","110","401484","0.0-66.0-0.0","96415329","wem/bandit_party_1","A1R9PH4LOMKZ13","either","7","862","","","","","","","1","0","0","0.4172780312","","0.8","0.4","0.6","0.2","","","","","0.009734580702","0.4172780312","0.2607476102","0.2023019753","","","","","","","","","","74","J","1","","","25","main_expt","",""
"","bandit","111","403348","0.0-67.0-0.0","96415329","wem/bandit_party_1","A1R9PH4LOMKZ13","either","7","359","","","","","","","0","0","1","","0.3981062588","0.8","0.4","0.6","0.2","0.008596148908","0.3981062588","0.292589008","0.1887270612","","","","","","","","","","","","","","74","J","1","","","26","main_expt","",""
"","bandit","112","404995","0.0-68.0-0.0","96415329","wem/bandit_party_1","A1R9PH4LOMKZ13","either","7","141","","","","","","","1","0","0","0.3889188119","","0.8","0.4","0.6","0.2","","","","","0.01380650739","0.3889188119","0.2978950393","0.2526986378","","","","","","","","","","74","J","1","","","27","main_expt","",""
"","bandit","113","406852","0.0-69.0-0.0","96415329","wem/bandit_party_1","A1R9PH4LOMKZ13","either","7","351","","","","","","","0","0","1","","0.3699095679","0.8","0.4","0.6","0.2","0.01160852189","0.3699095679","0.337392419","0.2536033627","","","","","","","","","","","","","","74","J","1","","","28","main_expt","",""
"","bandit","114","408740","0.0-70.0-0.0","96415329","wem/bandit_party_1","A1R9PH4LOMKZ13","either","7","382","","","","","","","0","0","1","0.3830759015","","0.8","0.4","0.6","0.2","","","","","0.02858314752","0.4087832773","0.3830759015","0.258258936","","","","","","","","","","75","K","2","","","29","main_expt","",""
"","bandit","115","410413","0.0-71.0-0.0","96415329","wem/bandit_party_1","A1R9PH4LOMKZ13","either","7","167","","","","","","","0","0","1","","0.3152574144","0.8","0.4","0.6","0.2","0.0265596094","0.4162513677","0.3778881599","0.3152574144","","","","","","","","","","","","","","76","L","3","","","30","main_expt","",""
"","bandit","116","412092","0.0-72.0-0.0","96415329","wem/bandit_party_1","A1R9PH4LOMKZ13","either","7","173","","","","","","","0","0","1","","0.43337534","0.8","0.4","0.6","0.2","0.02828816112","0.43337534","0.3585458117","0.3508579725","","","","","","","","","","","","","","74","J","1","","","31","main_expt","",""
"","bandit","117","413836","0.0-73.0-0.0","96415329","wem/bandit_party_1","A1R9PH4LOMKZ13","either","7","238","","","","","","","0","0","1","","0.4399105216","0.8","0.4","0.6","0.2","0.03857304495","0.4399105216","0.3511664436","0.3902021543","","","","","","","","","","","","","","74","J","1","","","32","main_expt","",""
"","bandit","118","415796","0.0-74.0-0.0","96415329","wem/bandit_party_1","A1R9PH4LOMKZ13","either","7","453","","","","","","","0","0","1","0.02642959278","","0.8","0.4","0.6","0.2","","","","","0.02642959278","0.3859623535","0.3924960189","0.4112626521","","","","","","","","","","72","H","0","img/none_selected.jpg","","33","main_expt","",""
"","bandit","119","417332","0.0-75.0-0.0","96415329","wem/bandit_party_1","A1R9PH4LOMKZ13","either","7","28","","","","","","","0","0","1","0.06800028167","","0.8","0.4","0.6","0.2","","","","","0.06800028167","0.4231921331","0.3713907517","0.3912589523","","","","","","","","","","72","H","0","img/none_selected.jpg","","34","main_expt","",""
"","bandit","120","419397","0.0-76.0-0.0","96415329","wem/bandit_party_1","A1R9PH4LOMKZ13","either","7","558","","","","","","","0","1","0","","0.3663646496","0.8","0.4","0.6","0.2","0.05710280771","0.3950458867","0.3929004689","0.3663646496","","","","","","","","","","","","","","76","L","3","","","35","main_expt","",""
"","bandit","121","421093","0.0-77.0-0.0","96415329","wem/bandit_party_1","A1R9PH4LOMKZ13","either","7","191","","","","","","","0","0","1","","0.3045225128","0.8","0.4","0.6","0.2","0.07756943076","0.4005306787","0.3820467604","0.3045225128","","","","","","","","","","","","","","76","L","3","","","36","main_expt","",""
"","bandit","122","422732","0.0-78.0-0.0","96415329","wem/bandit_party_1","A1R9PH4LOMKZ13","either","7","133","","","","","","","0","1","0","","0.2806474599","0.8","0.4","0.6","0.2","0.06074629621","0.3972735937","0.3948022939","0.2806474599","","","","","","","","","","","","","","76","L","3","","","37","main_expt","",""
"","bandit","123","424405","0.0-79.0-0.0","96415329","wem/bandit_party_1","A1R9PH4LOMKZ13","either","7","165","","","","","","","0","1","0","","0.3558759705","0.8","0.4","0.6","0.2","0.07063042774","0.38339591","0.3769579019","0.3558759705","","","","","","","","","","","","","","76","L","3","","","38","main_expt","",""
"","bandit","124","426103","0.0-80.0-0.0","96415329","wem/bandit_party_1","A1R9PH4LOMKZ13","either","7","191","","","","","","","0","1","0","","0.3194138052","0.8","0.4","0.6","0.2","0.06209293178","0.3906354184","0.4030344636","0.3194138052","","","","","","","","","","","","","","76","L","3","","","39","main_expt","",""
"","bandit","125","427893","0.0-81.0-0.0","96415329","wem/bandit_party_1","A1R9PH4LOMKZ13","either","7","285","","","","","","","0","0","1","","0.3549086085","0.8","0.4","0.6","0.2","0.06952578958","0.3623676206","0.3622335218","0.3549086085","","","","","","","","","","","","","","76","L","3","","","40","main_expt","",""
"","bandit","126","429493","0.0-82.0-0.0","96415329","wem/bandit_party_1","A1R9PH4LOMKZ13","either","7","94","","","","","","","0","1","0","","0.3452113815","0.8","0.4","0.6","0.2","0.1291245709","0.3873704927","0.3911596719","0.3452113815","","","","","","","","","","","","","","76","L","3","","","41","main_expt","",""
"","bandit","127","431245","0.0-83.0-0.0","96415329","wem/bandit_party_1","A1R9PH4LOMKZ13","either","7","246","","","","","","","0","0","1","","0.3522960267","0.8","0.4","0.6","0.2","0.1174523948","0.359823116","0.3921858285","0.3522960267","","","","","","","","","","","","","","76","L","3","","","42","main_expt","",""
"","bandit","128","432861","0.0-84.0-0.0","96415329","wem/bandit_party_1","A1R9PH4LOMKZ13","either","7","111","","","","","","","0","1","0","","0.3093122096","0.8","0.4","0.6","0.2","0.1201484523","0.3710191411","0.3831213528","0.3093122096","","","","","","","","","","","","","","76","L","3","","","43","main_expt","",""
"","bandit","129","434517","0.0-85.0-0.0","96415329","wem/bandit_party_1","A1R9PH4LOMKZ13","either","7","149","","","","","","","0","1","0","","0.3026159556","0.8","0.4","0.6","0.2","0.09958360536","0.3874065465","0.3518708159","0.3026159556","","","","","","","","","","","","","","76","L","3","","","44","main_expt","",""
"","bandit","130","436132","0.0-86.0-0.0","96415329","wem/bandit_party_1","A1R9PH4LOMKZ13","either","7","109","","","","","","","0","0","1","","0.3336294247","0.8","0.4","0.6","0.2","0.05173655998","0.3851533971","0.3122870636","0.3336294247","","","","","","","","","","","","","","76","L","3","","","45","main_expt","",""
"","bandit","131","437684","0.0-87.0-0.0","96415329","wem/bandit_party_1","A1R9PH4LOMKZ13","either","7","46","","","","","","","1","0","0","0.3400222736","","0.8","0.4","0.6","0.2","","","","","0.05945041096","0.4055883719","0.2635721956","0.3400222736","","","","","","","","","","76","L","3","","","46","main_expt","",""
"","bandit","132","439428","0.0-88.0-0.0","96415329","wem/bandit_party_1","A1R9PH4LOMKZ13","either","7","239","","","","","","","0","0","1","","0.328707825","0.8","0.4","0.6","0.2","0.04375763727","0.3671593179","0.2856785865","0.328707825","","","","","","","","","","","","","","76","L","3","","","47","main_expt","",""
"","bandit","133","441045","0.0-89.0-0.0","96415329","wem/bandit_party_1","A1R9PH4LOMKZ13","either","7","109","","","","","","","0","0","1","","0.3307690822","0.8","0.4","0.6","0.2","0.0666370861","0.3198203038","0.2649087478","0.3307690822","","","","","","","","","","","","","","76","L","3","","","48","main_expt","",""
"","bandit","134","442597","0.0-90.0-0.0","96415329","wem/bandit_party_1","A1R9PH4LOMKZ13","either","7","47","","","","","","","0","0","1","","0.3438067684","0.8","0.4","0.6","0.2","0.08266213623","0.3111357295","0.2462979357","0.3438067684","","","","","","","","","","","","","","76","L","3","","","49","main_expt","",""
"","bandit","135","444157","0.0-91.0-0.0","96415329","wem/bandit_party_1","A1R9PH4LOMKZ13","either","7","54","","","","","","","0","0","1","0.2490076798","","0.8","0.4","0.6","0.2","","","","","0.08795051988","0.3196682981","0.2490076798","0.4037002216","","","","","","","","","","75","K","2","","","50","main_expt","",""
"","bandit","136","445829","0.0-92.0-0.0","96415329","wem/bandit_party_1","A1R9PH4LOMKZ13","either","7","166","","","","","","","0","0","1","0.305209751","","0.8","0.4","0.6","0.2","","","","","0.07533366945","0.3088596379","0.305209751","0.3557518394","","","","","","","","","","75","K","2","","","51","main_expt","",""
"","bandit","137","447780","0.0-93.0-0.0","96415329","wem/bandit_party_1","A1R9PH4LOMKZ13","either","7","445","","","","","","","0","1","0","","0.06506638851","0.8","0.4","0.6","0.2","0.06506638851","0.3060924957","0.3087204988","0.3254324358","","","","","","","","","","","","","","72","H","0","img/none_selected.jpg","","52","main_expt","",""
"","bandit","138","449437","0.0-94.0-0.0","96415329","wem/bandit_party_1","A1R9PH4LOMKZ13","either","7","150","","","","","","","0","0","1","0.06562792832","","0.8","0.4","0.6","0.2","","","","","0.06562792832","0.3229319808","0.2984188648","0.2952150256","","","","","","","","","","72","H","0","img/none_selected.jpg","","53","main_expt","",""
"","bandit","139","451164","0.0-95.0-0.0","96415329","wem/bandit_party_1","A1R9PH4LOMKZ13","either","7","221","","","","","","","0","0","1","0.04630081711","","0.8","0.4","0.6","0.2","","","","","0.04630081711","0.3280138586","0.3353917468","0.300320608","","","","","","","","","","72","H","0","img/none_selected.jpg","","54","main_expt","",""
"","bandit","140","452845","0.0-96.0-0.0","96415329","wem/bandit_party_1","A1R9PH4LOMKZ13","either","7","175","","","","","","","0","0","1","","0.03868373719","0.8","0.4","0.6","0.2","0.03868373719","0.2777260571","0.3259144651","0.2985084879","","","","","","","","","","","","","","72","H","0","img/none_selected.jpg","","55","main_expt","",""
"","bandit","141","454365","0.0-97.0-0.0","96415329","wem/bandit_party_1","A1R9PH4LOMKZ13","either","7","13","","","","","","","0","0","1","0.3259049121","","0.8","0.4","0.6","0.2","","","","","0.06235362297","0.1791004868","0.3259049121","0.2607009345","","","","","","","","","","75","K","2","","","56","main_expt","",""
"","bandit","142","455940","0.0-98.0-0.0","96415329","wem/bandit_party_1","A1R9PH4LOMKZ13","either","7","69","","","","","","","0","0","1","","0.2182265394","0.8","0.4","0.6","0.2","0.04639461243","0.2182265394","0.3687904078","0.2565854794","","","","","","","","","","","","","","74","J","1","","","57","main_expt","",""
"","bandit","143","457500","0.0-99.0-0.0","96415329","wem/bandit_party_1","A1R9PH4LOMKZ13","either","7","53","","","","","","","1","0","0","0.2970860181","","0.8","0.4","0.6","0.2","","","","","0.08954448139","0.2970860181","0.3422038875","0.319121847","","","","","","","","","","74","J","1","","","58","main_expt","",""
"","bandit","144","459261","0.0-100.0-0.0","96415329","wem/bandit_party_1","A1R9PH4LOMKZ13","either","7","253","","","","","","","1","0","0","0.3249685468","","0.8","0.4","0.6","0.2","","","","","0.07390342289","0.3249685468","0.3771421139","0.3269923399","","","","","","","","","","74","J","1","","","59","main_expt","",""
"","bandit","145","460901","0.0-101.0-0.0","96415329","wem/bandit_party_1","A1R9PH4LOMKZ13","either","7","134","","","","","","","0","0","1","","0.2931470039","0.8","0.4","0.6","0.2","0.05801548519","0.2931470039","0.3620124399","0.3150968823","","","","","","","","","","","","","","74","J","1","","","60","main_expt","",""
"","bandit","146","462533","0.0-102.0-0.0","96415329","wem/bandit_party_1","A1R9PH4LOMKZ13","either","7","125","","","","","","","0","0","1","","0.2646536279","0.8","0.4","0.6","0.2","0.07333263924","0.2646536279","0.3958116198","0.324539239","","","","","","","","","","","","","","74","J","1","","","61","main_expt","",""
"","bandit","147","464141","0.0-103.0-0.0","96415329","wem/bandit_party_1","A1R9PH4LOMKZ13","either","7","103","","","","","","","0","0","1","","0.242461968","0.8","0.4","0.6","0.2","0.07563430262","0.242461968","0.3615218546","0.3066306166","","","","","","","","","","","","","","74","J","1","","","62","main_expt","",""
"","bandit","148","465765","0.0-104.0-0.0","96415329","wem/bandit_party_1","A1R9PH4LOMKZ13","either","7","117","","","","","","","0","0","1","","0.3574266064","0.8","0.4","0.6","0.2","0.06826526778","0.2206683029","0.3574266064","0.3068900116","","","","","","","","","","","","","","75","K","2","","","63","main_expt","",""
"","bandit","149","468125","0.0-105.0-0.0","96415329","wem/bandit_party_1","A1R9PH4LOMKZ13","either","7","854","","","","","","","0","0","1","","0.3541915859","0.8","0.4","0.6","0.2","0.1175271989","0.2288959862","0.3541915859","0.2936494982","","","","","","","","","","","","","","75","K","2","","","64","main_expt","",""
"","bandit","150","469932","0.0-106.0-0.0","96415329","wem/bandit_party_1","A1R9PH4LOMKZ13","either","7","301","","","","","","","0","0","1","","0.1273865191","0.8","0.4","0.6","0.2","0.1273865191","0.2346523549","0.3339820985","0.290236101","","","","","","","","","","","","","","72","H","0","img/none_selected.jpg","","65","main_expt","",""
"","bandit","151","471764","0.0-107.0-0.0","96415329","wem/bandit_party_1","A1R9PH4LOMKZ13","either","7","324","","","","","","","0","0","1","","0.2512036594","0.8","0.4","0.6","0.2","0.09075088943","0.1881688105","0.3195467083","0.2512036594","","","","","","","","","","","","","","76","L","3","","","66","main_expt","",""
"","bandit","152","473308","0.0-108.0-0.0","96415329","wem/bandit_party_1","A1R9PH4LOMKZ13","either","7","38","","","","","","","0","0","1","","0.263747572","0.8","0.4","0.6","0.2","0.08077075725","0.231043846","0.3477383846","0.263747572","","","","","","","","","","","","","","76","L","3","","","67","main_expt","",""
"","bandit","153","474853","0.0-109.0-0.0","96415329","wem/bandit_party_1","A1R9PH4LOMKZ13","either","7","38","","","","","","","0","0","1","0.08810311296","","0.8","0.4","0.6","0.2","","","","","0.08810311296","0.2576664243","0.3365352069","0.2892519303","","","","","","","","","","72","H","0","img/none_selected.jpg","","68","main_expt","",""
"","bandit","154","476493","0.0-110.0-0.0","96415329","wem/bandit_party_1","A1R9PH4LOMKZ13","either","7","132","","","","","","","1","0","0","0.3148812039","","0.8","0.4","0.6","0.2","","","","","0.1260156682","0.2183283259","0.3148812039","0.2383664846","","","","","","","","","","75","K","2","","","69","main_expt","",""
"","bandit","155","478228","0.0-111.0-0.0","96415329","wem/bandit_party_1","A1R9PH4LOMKZ13","either","7","229","","","","","","","0","0","1","0.3154014692","","0.8","0.4","0.6","0.2","","","","","0.08773951932","0.2260484764","0.3154014692","0.2497111545","","","","","","","","","","75","K","2","","","70","main_expt","",""
"","bandit","156","479939","0.0-112.0-0.0","96415329","wem/bandit_party_1","A1R9PH4LOMKZ13","either","7","204","","","","","","","0","0","1","","0.219815459","0.8","0.4","0.6","0.2","0.1154304285","0.3196469567","0.219815459","0.2095843002","","","","","","","","","","","","","","75","K","2","","","71","main_expt","",""
"","bandit","157","481484","0.0-113.0-0.0","96415329","wem/bandit_party_1","A1R9PH4LOMKZ13","either","7","39","","","","","","","0","0","1","0.2623730272","","0.8","0.4","0.6","0.2","","","","","0.10097247","0.3644141189","0.2623730272","0.1972488467","","","","","","","","","","75","K","2","","","72","main_expt","",""
"","bandit","158","483219","0.0-114.0-0.0","96415329","wem/bandit_party_1","A1R9PH4LOMKZ13","either","7","229","","","","","","","0","0","1","","0.4081842109","0.8","0.4","0.6","0.2","0.0746930591","0.4081842109","0.2639805735","0.15494396","","","","","","","","","","","","","","74","J","1","","","73","main_expt","",""
"","bandit","159","484772","0.0-115.0-0.0","96415329","wem/bandit_party_1","A1R9PH4LOMKZ13","either","7","46","","","","","","","0","1","0","","0.4506698749","0.8","0.4","0.6","0.2","0.1124392477","0.4506698749","0.2770925356","0.1324790415","","","","","","","","","","","","","","74","J","1","","","74","main_expt","",""
"","bandit","160","486548","0.0-116.0-0.0","96415329","wem/bandit_party_1","A1R9PH4LOMKZ13","either","7","270","","","","","","","0","0","1","","0.454520075","0.8","0.4","0.6","0.2","0.113494578","0.454520075","0.2796652475","0.179195356","","","","","","","","","","","","","","74","J","1","","","75","main_expt","",""
"","bandit","161","488179","0.0-117.0-0.0","96415329","wem/bandit_party_1","A1R9PH4LOMKZ13","either","7","125","","","","","","","0","1","0","","0.466199952","0.8","0.4","0.6","0.2","0.1469344428","0.466199952","0.3153427244","0.215808919","","","","","","","","","","","","","","74","J","1","","","76","main_expt","",""
"","bandit","162","489780","0.0-118.0-0.0","96415329","wem/bandit_party_1","A1R9PH4LOMKZ13","either","7","94","","","","","","","0","1","0","","0.4402141775","0.8","0.4","0.6","0.2","0.2152215887","0.4402141775","0.3676911864","0.2312347408","","","","","","","","","","","","","","74","J","1","","","77","main_expt","",""
"","bandit","163","491451","0.0-119.0-0.0","96415329","wem/bandit_party_1","A1R9PH4LOMKZ13","either","7","165","","","","","","","0","0","1","","0.4525957793","0.8","0.4","0.6","0.2","0.2055177618","0.4525957793","0.3434277392","0.2197025874","","","","","","","","","","","","","","74","J","1","","","78","main_expt","",""
"","bandit","164","493084","0.0-120.0-0.0","96415329","wem/bandit_party_1","A1R9PH4LOMKZ13","either","7","126","","","","","","","0","0","1","0.4630799716","","0.8","0.4","0.6","0.2","","","","","0.222262525","0.4630799716","0.3758616161","0.2227420924","","","","","","","","","","74","J","1","","","79","main_expt","",""
"","bandit","165","494700","0.0-121.0-0.0","96415329","wem/bandit_party_1","A1R9PH4LOMKZ13","either","7","109","","","","","","","0","0","1","","0.3862393514","0.8","0.4","0.6","0.2","0.2700860438","0.423693353","0.3862393514","0.2283057493","","","","","","","","","","","","","","75","K","2","","","80","main_expt","",""
"","bandit","166","496207","0.0-122.0-0.0","96415329","wem/bandit_party_1","A1R9PH4LOMKZ13","either","7","1","","","","","","","0","0","1","","0.2721525977","0.8","0.4","0.6","0.2","0.2642688004","0.4319112677","0.3593770893","0.2721525977","","","","","","","","","","","","","","76","L","3","","","81","main_expt","",""
"","bandit","167","498220","0.0-123.0-0.0","96415329","wem/bandit_party_1","A1R9PH4LOMKZ13","either","7","506","","","","","","","1","0","0","0.2824164754","","0.8","0.4","0.6","0.2","","","","","0.2824164754","0.441827487","0.4035110645","0.2850237184","","","","","","","","","","72","H","0","img/none_selected.jpg","","82","main_expt","",""
"","bandit","168","499949","0.0-124.0-0.0","96415329","wem/bandit_party_1","A1R9PH4LOMKZ13","either","7","221","","","","","","","0","0","1","0.2819095575","","0.8","0.4","0.6","0.2","","","","","0.2819095575","0.4288861504","0.3719627038","0.3236436683","","","","","","","","","","72","H","0","img/none_selected.jpg","","83","main_expt","",""
"","bandit","169","501604","0.0-125.0-0.0","96415329","wem/bandit_party_1","A1R9PH4LOMKZ13","either","7","149","","","","","","","0","0","1","0.2589745902","","0.8","0.4","0.6","0.2","","","","","0.2589745902","0.4350385517","0.3349288927","0.3339638593","","","","","","","","","","72","H","0","img/none_selected.jpg","","84","main_expt","",""
"","bandit","170","503228","0.0-126.0-0.0","96415329","wem/bandit_party_1","A1R9PH4LOMKZ13","either","7","117","","","","","","","0","0","1","","0.3626504113","0.8","0.4","0.6","0.2","0.3626504113","0.4255505645","0.3247899262","0.3795022601","","","","","","","","","","","","","","72","H","0","img/none_selected.jpg","","85","main_expt","",""
"","bandit","171","504821","0.0-127.0-0.0","96415329","wem/bandit_party_1","A1R9PH4LOMKZ13","either","7","84","","","","","","","0","0","1","","0.4330938692","0.8","0.4","0.6","0.2","0.3598915268","0.4330938692","0.3443557019","0.3835523064","","","","","","","","","","","","","","74","J","1","","","86","main_expt","",""
"","bandit","172","506379","0.0-128.0-0.0","96415329","wem/bandit_party_1","A1R9PH4LOMKZ13","either","7","52","","","","","","","0","1","0","","0.4548398529","0.8","0.4","0.6","0.2","0.3433052933","0.4548398529","0.3648776167","0.3772514457","","","","","","","","","","","","","","74","J","1","","","87","main_expt","",""
"","bandit","173","508123","0.0-129.0-0.0","96415329","wem/bandit_party_1","A1R9PH4LOMKZ13","either","7","238","","","","","","","0","0","1","","0.4493124031","0.8","0.4","0.6","0.2","0.4022938878","0.4493124031","0.3609631839","0.3766830519","","","","","","","","","","","","","","74","J","1","","","88","main_expt","",""
"","bandit","174","509732","0.0-130.0-0.0","96415329","wem/bandit_party_1","A1R9PH4LOMKZ13","either","7","103","","","","","","","0","1","0","","0.4161110063","0.8","0.4","0.6","0.2","0.4141493151","0.4161110063","0.3636167192","0.3537755119","","","","","","","","","","","","","","74","J","1","","","89","main_expt","",""
"","bandit","175","511388","0.0-131.0-0.0","96415329","wem/bandit_party_1","A1R9PH4LOMKZ13","either","7","149","","","","","","","0","0","1","0.405260856","","0.8","0.4","0.6","0.2","","","","","0.4136124289","0.405260856","0.3563441379","0.3014761449","","","","","","","","","","74","J","1","","","90","main_expt","",""
"","bandit","176","512924","0.0-132.0-0.0","96415329","wem/bandit_party_1","A1R9PH4LOMKZ13","either","7","30","","","","","","","0","1","0","","0.3827048226","0.8","0.4","0.6","0.2","0.4184852842","0.3827048226","0.3389138503","0.2694038268","","","","","","","","","","","","","","74","J","1","","","91","main_expt","",""
"","bandit","177","514676","0.0-133.0-0.0","96415329","wem/bandit_party_1","A1R9PH4LOMKZ13","either","7","245","","","","","","","0","0","1","","0.3552182969","0.8","0.4","0.6","0.2","0.4456808576","0.3552182969","0.3263360165","0.2651536323","","","","","","","","","","","","","","74","J","1","","","92","main_expt","",""
"","bandit","178","516183","0.0-134.0-0.0","96415329","wem/bandit_party_1","A1R9PH4LOMKZ13","either","7","0","","","","","","","0","0","1","0.2844131911","","0.8","0.4","0.6","0.2","","","","","0.4355219805","0.3286897504","0.2844131911","0.1997208586","","","","","","","","","","75","K","2","","","93","main_expt","",""
"","bandit","179","517828","0.0-135.0-0.0","96415329","wem/bandit_party_1","A1R9PH4LOMKZ13","either","7","137","","","","","","","0","0","1","0.2978465223","","0.8","0.4","0.6","0.2","","","","","0.4609821192","0.3422490236","0.2978465223","0.2442555344","","","","","","","","","","75","K","2","","","94","main_expt","",""
"","bandit","180","519396","0.0-136.0-0.0","96415329","wem/bandit_party_1","A1R9PH4LOMKZ13","either","7","61","","","","","","","1","0","0","0.3160161054","","0.8","0.4","0.6","0.2","","","","","0.4419374505","0.3160161054","0.2638723705","0.2638839348","","","","","","","","","","74","J","1","","","95","main_expt","",""
"","bandit","181","520933","0.0-137.0-0.0","96415329","wem/bandit_party_1","A1R9PH4LOMKZ13","either","7","30","","","","","","","1","0","0","0.2945538732","","0.8","0.4","0.6","0.2","","","","","0.39438674","0.2945538732","0.2276010735","0.2265245807","","","","","","","","","","74","J","1","","","96","main_expt","",""
"","bandit","182","522571","0.0-138.0-0.0","96415329","wem/bandit_party_1","A1R9PH4LOMKZ13","either","7","131","","","","","","","0","0","1","","0.393563827","0.8","0.4","0.6","0.2","0.3617668419","0.393563827","0.2045446072","0.1969189177","","","","","","","","","","","","","","74","J","1","","","97","main_expt","",""
"","bandit","183","524180","0.0-139.0-0.0","96415329","wem/bandit_party_1","A1R9PH4LOMKZ13","either","7","101","","","","","","","1","0","0","0.3737913853","","0.8","0.4","0.6","0.2","","","","","0.3737913853","0.4046254927","0.2436418828","0.1761144245","","","","","","","","","","72","H","0","img/none_selected.jpg","","98","main_expt","",""
"","bandit","184","525771","0.0-140.0-0.0","96415329","wem/bandit_party_1","A1R9PH4LOMKZ13","either","7","85","","","","","","","1","0","0","0.4221129479","","0.8","0.4","0.6","0.2","","","","","0.4221129479","0.3659012549","0.2473144087","0.1211630765","","","","","","","","","","72","H","0","img/none_selected.jpg","","99","main_expt","",""
"","bandit","185","527539","0.0-141.0-0.0","96415329","wem/bandit_party_1","A1R9PH4LOMKZ13","either","7","262","","","","","","","0","0","1","0.3857893684","","0.8","0.4","0.6","0.2","","","","","0.3857893684","0.400368336","0.2707360286","0.1257326749","","","","","","","","","","72","H","0","img/none_selected.jpg","","100","main_expt","",""
"","bandit","186","529092","0.0-142.0-0.0","96415329","wem/bandit_party_1","A1R9PH4LOMKZ13","either","7","45","","","","","","","1","0","0","0.3635527264","","0.8","0.4","0.6","0.2","","","","","0.3635527264","0.4367931528","0.3250409822","0.09975532208","","","","","","","","","","72","H","0","img/none_selected.jpg","","101","main_expt","",""
"","bandit","187","530796","0.0-143.0-0.0","96415329","wem/bandit_party_1","A1R9PH4LOMKZ13","either","7","197","","","","","","","1","0","0","0.3738375489","","0.8","0.4","0.6","0.2","","","","","0.3738375489","0.4371155326","0.3088580598","0.1127414424","","","","","","","","","","72","H","0","img/none_selected.jpg","","102","main_expt","",""
"","bandit","188","532421","0.0-144.0-0.0","96415329","wem/bandit_party_1","A1R9PH4LOMKZ13","either","7","117","","","","","","","0","0","1","0.3860163181","","0.8","0.4","0.6","0.2","","","","","0.3860163181","0.388648264","0.2901001995","0.1232600734","","","","","","","","","","72","H","0","img/none_selected.jpg","","103","main_expt","",""
"","bandit","189","534012","0.0-145.0-0.0","96415329","wem/bandit_party_1","A1R9PH4LOMKZ13","either","7","83","","","","","","","0","0","1","0.390692362","","0.8","0.4","0.6","0.2","","","","","0.390692362","0.3718469433","0.309645936","0.08156843846","","","","","","","","","","72","H","0","img/none_selected.jpg","","104","main_expt","",""
"","bandit","190","535603","0.0-146.0-0.0","96415329","wem/bandit_party_1","A1R9PH4LOMKZ13","either","7","84","","","","","","","1","0","0","0.4139082553","","0.8","0.4","0.6","0.2","","","","","0.4139082553","0.3920304628","0.3386062745","0.08245659199","","","","","","","","","","72","H","0","img/none_selected.jpg","","105","main_expt","",""
"","bandit","191","537195","0.0-147.0-0.0","96415329","wem/bandit_party_1","A1R9PH4LOMKZ13","either","7","85","","","","","","","0","1","0","","0.3295275825","0.8","0.4","0.6","0.2","0.3295275825","0.3733497125","0.3827539061","0.1276639339","","","","","","","","","","","","","","72","H","0","img/none_selected.jpg","","106","main_expt","",""
"","bandit","192","538899","0.0-148.0-0.0","96415329","wem/bandit_party_1","A1R9PH4LOMKZ13","either","7","198","","","","","","","0","1","0","","0.3499712774","0.8","0.4","0.6","0.2","0.3499712774","0.3878439861","0.3401355396","0.1812689745","","","","","","","","","","","","","","72","H","0","img/none_selected.jpg","","107","main_expt","",""
"","bandit","193","540556","0.0-149.0-0.0","96415329","wem/bandit_party_1","A1R9PH4LOMKZ13","either","7","149","","","","","","","0","0","1","0.2666891207","","0.8","0.4","0.6","0.2","","","","","0.2666891207","0.3529013302","0.3258039352","0.2187982558","","","","","","","","","","72","H","0","img/none_selected.jpg","","108","main_expt","",""
"","bandit","194","542140","0.0-150.0-0.0","96415329","wem/bandit_party_1","A1R9PH4LOMKZ13","either","7","77","","","","","","","0","0","1","0.2575067634","","0.8","0.4","0.6","0.2","","","","","0.2575067634","0.3457683734","0.374919859","0.2201216928","","","","","","","","","","72","H","0","img/none_selected.jpg","","109","main_expt","",""
"","bandit","195","543820","0.0-151.0-0.0","96415329","wem/bandit_party_1","A1R9PH4LOMKZ13","either","7","174","","","","","","","1","0","0","0.3656186065","","0.8","0.4","0.6","0.2","","","","","0.2664913793","0.3316873257","0.3656186065","0.1789817232","","","","","","","","","","75","K","2","","","110","main_expt","",""
"","bandit","196","545355","0.0-152.0-0.0","96415329","wem/bandit_party_1","A1R9PH4LOMKZ13","either","7","28","","","","","","","0","0","1","0.3649701027","","0.8","0.4","0.6","0.2","","","","","0.2233446911","0.3434945318","0.3649701027","0.2404947452","","","","","","","","","","75","K","2","","","111","main_expt","",""
"","bandit","197","547051","0.0-153.0-0.0","96415329","wem/bandit_party_1","A1R9PH4LOMKZ13","either","7","190","","","","","","","1","0","0","0.3371716456","","0.8","0.4","0.6","0.2","","","","","0.2170082082","0.2729480053","0.3371716456","0.2959558532","","","","","","","","","","75","K","2","","","112","main_expt","",""
"","bandit","198","548844","0.0-154.0-0.0","96415329","wem/bandit_party_1","A1R9PH4LOMKZ13","either","7","286","","","","","","","0","1","0","","0.2587224119","0.8","0.4","0.6","0.2","0.1912277411","0.2579672073","0.2587224119","0.2966985553","","","","","","","","","","","","","","75","K","2","","","113","main_expt","",""
"","bandit","199","550516","0.0-155.0-0.0","96415329","wem/bandit_party_1","A1R9PH4LOMKZ13","either","7","164","","","","","","","0","0","1","0.2384324947","","0.8","0.4","0.6","0.2","","","","","0.1691995451","0.24654084","0.2384324947","0.3289730608","","","","","","","","","","75","K","2","","","114","main_expt","",""
"","bandit","200","552132","0.0-156.0-0.0","96415329","wem/bandit_party_1","A1R9PH4LOMKZ13","either","7","108","","","","","","","1","0","0","0.2705755989","","0.8","0.4","0.6","0.2","","","","","0.1263730162","0.246649757","0.2705755989","0.2783705844","","","","","","","","","","75","K","2","","","115","main_expt","",""
"","bandit","201","553780","0.0-157.0-0.0","96415329","wem/bandit_party_1","A1R9PH4LOMKZ13","either","7","142","","","","","","","0","1","0","","0.2666822","0.8","0.4","0.6","0.2","0.1130092975","0.2190482835","0.2666822","0.2990421824","","","","","","","","","","","","","","75","K","2","","","116","main_expt","",""
"","bandit","202","555492","0.0-158.0-0.0","96415329","wem/bandit_party_1","A1R9PH4LOMKZ13","either","7","205","","","","","","","0","0","1","","0.2664749026","0.8","0.4","0.6","0.2","0.1317362661","0.1860086181","0.2664749026","0.3214730448","","","","","","","","","","","","","","75","K","2","","","117","main_expt","",""
"","bandit","203","557003","0.0-159.0-0.0","96415329","wem/bandit_party_1","A1R9PH4LOMKZ13","either","7","5","","","","","","","0","0","1","0.285497096","","0.8","0.4","0.6","0.2","","","","","0.08460291254","0.1765749983","0.285497096","0.3996160597","","","","","","","","","","75","K","2","","","118","main_expt","",""
"","bandit","204","558627","0.0-160.0-0.0","96415329","wem/bandit_party_1","A1R9PH4LOMKZ13","either","7","117","","","","","","","0","0","1","","0.1840588368","0.8","0.4","0.6","0.2","0.09168363065","0.1840588368","0.3004427434","0.4143362638","","","","","","","","","","","","","","74","J","1","","","119","main_expt","",""
"","bandit","205","560435","0.0-161.0-0.0","96415329","wem/bandit_party_1","A1R9PH4LOMKZ13","either","7","301","","","","","","","0","0","1","","0.1988357929","0.8","0.4","0.6","0.2","0.06729372802","0.1988357929","0.2419855731","0.372340151","","","","","","","","","","","","","","74","J","1","","","120","main_expt","",""
"","bandit","206","561979","0.0-162.0-0.0","96415329","wem/bandit_party_1","A1R9PH4LOMKZ13","either","7","36","","","","","","","0","1","0","","0.2315674","0.8","0.4","0.6","0.2","0.08346408207","0.2315674","0.3054132847","0.3910424524","","","","","","","","","","","","","","74","J","1","","","121","main_expt","",""
"","bandit","207","563636","0.0-163.0-0.0","96415329","wem/bandit_party_1","A1R9PH4LOMKZ13","either","7","148","","","","","","","0","0","1","","0.2041322171","0.8","0.4","0.6","0.2","0.05632743158","0.2041322171","0.2473202095","0.3813410711","","","","","","","","","","","","","","74","J","1","","","122","main_expt","",""
"","bandit","208","565236","0.0-164.0-0.0","96415329","wem/bandit_party_1","A1R9PH4LOMKZ13","either","7","92","","","","","","","0","0","1","0.1945268209","","0.8","0.4","0.6","0.2","","","","","0.05516745574","0.1945268209","0.2909195989","0.4247291795","","","","","","","","","","74","J","1","","","123","main_expt","",""
"","bandit","209","566869","0.0-165.0-0.0","96415329","wem/bandit_party_1","A1R9PH4LOMKZ13","either","7","126","","","","","","","0","0","1","","0.4311179713","0.8","0.4","0.6","0.2","0.05528311039","0.2206749142","0.3493750294","0.4311179713","","","","","","","","","","","","","","76","L","3","","","124","main_expt","",""
"","bandit","210","568452","0.0-166.0-0.0","96415329","wem/bandit_party_1","A1R9PH4LOMKZ13","either","7","75","","","","","","","0","0","1","","0.4085782939","0.8","0.4","0.6","0.2","0.07149807259","0.212012295","0.3883668019","0.4085782939","","","","","","","","","","","","","","76","L","3","","","125","main_expt","",""
"","bandit","211","570035","0.0-167.0-0.0","96415329","wem/bandit_party_1","A1R9PH4LOMKZ13","either","7","76","","","","","","","0","1","0","","0.4110861309","0.8","0.4","0.6","0.2","0.1137803622","0.1656684785","0.3888129637","0.4110861309","","","","","","","","","","","","","","76","L","3","","","126","main_expt","",""
"","bandit","212","571668","0.0-168.0-0.0","96415329","wem/bandit_party_1","A1R9PH4LOMKZ13","either","7","125","","","","","","","0","0","1","","0.4214671818","0.8","0.4","0.6","0.2","0.1003054442","0.1685301808","0.3659195129","0.4214671818","","","","","","","","","","","","","","76","L","3","","","127","main_expt","",""
"","bandit","213","573179","0.0-169.0-0.0","96415329","wem/bandit_party_1","A1R9PH4LOMKZ13","either","7","4","","","","","","","0","1","0","","0.36889317","0.8","0.4","0.6","0.2","0.1378169536","0.1703551811","0.3689954399","0.36889317","","","","","","","","","","","","","","76","L","3","","","128","main_expt","",""
"","bandit","214","574796","0.0-170.0-0.0","96415329","wem/bandit_party_1","A1R9PH4LOMKZ13","either","7","110","","","","","","","0","0","1","","0.3840267129","0.8","0.4","0.6","0.2","0.1333081235","0.1624753709","0.3600340942","0.3840267129","","","","","","","","","","","","","","76","L","3","","","129","main_expt","",""
"","bandit","215","576372","0.0-171.0-0.0","96415329","wem/bandit_party_1","A1R9PH4LOMKZ13","either","7","68","","","","","","","0","0","1","","0.3809677701","0.8","0.4","0.6","0.2","0.1682212827","0.2335662737","0.3580797835","0.3809677701","","","","","","","","","","","","","","76","L","3","","","130","main_expt","",""
"","bandit","216","577948","0.0-172.0-0.0","96415329","wem/bandit_party_1","A1R9PH4LOMKZ13","either","7","69","","","","","","","1","0","0","0.3785893338","","0.8","0.4","0.6","0.2","","","","","0.2193829955","0.240441026","0.3785893338","0.3681933818","","","","","","","","","","75","K","2","","","131","main_expt","",""
"","bandit","217","579491","0.0-173.0-0.0","96415329","wem/bandit_party_1","A1R9PH4LOMKZ13","either","7","36","","","","","","","0","0","1","0.3764735404","","0.8","0.4","0.6","0.2","","","","","0.2693349046","0.2266699971","0.3764735404","0.3664045944","","","","","","","","","","75","K","2","","","132","main_expt","",""
"","bandit","218","581124","0.0-174.0-0.0","96415329","wem/bandit_party_1","A1R9PH4LOMKZ13","either","7","124","","","","","","","0","0","1","","0.3433534211","0.8","0.4","0.6","0.2","0.2576546077","0.1994193025","0.3433534211","0.4046437197","","","","","","","","","","","","","","75","K","2","","","133","main_expt","",""
"","bandit","219","582772","0.0-175.0-0.0","96415329","wem/bandit_party_1","A1R9PH4LOMKZ13","either","7","142","","","","","","","0","0","1","0.3606247271","","0.8","0.4","0.6","0.2","","","","","0.2412372273","0.1891464922","0.3606247271","0.364490756","","","","","","","","","","75","K","2","","","134","main_expt","",""
"","bandit","220","584436","0.0-176.0-0.0","96415329","wem/bandit_party_1","A1R9PH4LOMKZ13","either","7","156","","","","","","","1","0","0","0.2198641054","","0.8","0.4","0.6","0.2","","","","","0.2198641054","0.1614798668","0.3268624306","0.311914316","","","","","","","","","","72","H","0","img/none_selected.jpg","","135","main_expt","",""
"","bandit","221","585943","0.0-177.0-0.0","96415329","wem/bandit_party_1","A1R9PH4LOMKZ13","either","7","0","","","","","","","0","0","1","0.2504132697","","0.8","0.4","0.6","0.2","","","","","0.2504132697","0.1880386222","0.2854606769","0.2653901568","","","","","","","","","","72","H","0","img/none_selected.jpg","","136","main_expt","",""
"","bandit","222","587692","0.0-178.0-0.0","96415329","wem/bandit_party_1","A1R9PH4LOMKZ13","either","7","241","","","","","","","0","0","1","0.1912230989","","0.8","0.4","0.6","0.2","","","","","0.1912230989","0.1961818793","0.3311747399","0.2413295316","","","","","","","","","","72","H","0","img/none_selected.jpg","","137","main_expt","",""
"","bandit","223","589284","0.0-179.0-0.0","96415329","wem/bandit_party_1","A1R9PH4LOMKZ13","either","7","85","","","","","","","0","0","1","0.1576256809","","0.8","0.4","0.6","0.2","","","","","0.1576256809","0.2857678963","0.2570785188","0.2060295423","","","","","","","","","","72","H","0","img/none_selected.jpg","","138","main_expt","",""
"","bandit","224","590892","0.0-180.0-0.0","96415329","wem/bandit_party_1","A1R9PH4LOMKZ13","either","7","100","","","","","","","0","0","1","0.1019788138","","0.8","0.4","0.6","0.2","","","","","0.1019788138","0.3449131854","0.2858060749","0.1809645164","","","","","","","","","","72","H","0","img/none_selected.jpg","","139","main_expt","",""
"","bandit","225","592555","0.0-181.0-0.0","96415329","wem/bandit_party_1","A1R9PH4LOMKZ13","either","7","156","","","","","","","0","0","1","","0.2537716732","0.8","0.4","0.6","0.2","0.07754087054","0.2537716732","0.2975559752","0.1843216893","","","","","","","","","","","","","","74","J","1","","","140","main_expt","",""
"","bandit","226","594083","0.0-182.0-0.0","96415329","wem/bandit_party_1","A1R9PH4LOMKZ13","either","7","20","","","","","","","0","0","1","0.2858111263","","0.8","0.4","0.6","0.2","","","","","0.09489610577","0.2858111263","0.2802168405","0.1651876155","","","","","","","","","","74","J","1","","","141","main_expt","",""
"","bandit","227","595747","0.0-183.0-0.0","96415329","wem/bandit_party_1","A1R9PH4LOMKZ13","either","7","157","","","","","","","0","0","1","","0.303049367","0.8","0.4","0.6","0.2","0.09601428546","0.303049367","0.2231986748","0.1536427928","","","","","","","","","","","","","","74","J","1","","","142","main_expt","",""
"","bandit","228","597468","0.0-184.0-0.0","96415329","wem/bandit_party_1","A1R9PH4LOMKZ13","either","7","212","","","","","","","0","0","1","","0.2032880393","0.8","0.4","0.6","0.2","0.08301142993","0.2969419413","0.2032880393","0.1546140226","","","","","","","","","","","","","","75","K","2","","","143","main_expt","",""
"","bandit","229","599101","0.0-185.0-0.0","96415329","wem/bandit_party_1","A1R9PH4LOMKZ13","either","7","124","","","","","","","0","0","1","0.1746031107","","0.8","0.4","0.6","0.2","","","","","0.09599686985","0.3128690494","0.1967741464","0.1746031107","","","","","","","","","","76","L","3","","","144","main_expt","",""
"","bandit","230","601678","0.0-186.0-0.0","96415329","wem/bandit_party_1","A1R9PH4LOMKZ13","either","7","1069","","","","","","","0","0","1","0.07499383622","","0.8","0.4","0.6","0.2","","","","","0.07499383622","0.2991796355","0.2283154954","0.2021387556","","","","","","","","","","72","H","0","img/none_selected.jpg","","145","main_expt","",""
"","bandit","231","603237","0.0-187.0-0.0","96415329","wem/bandit_party_1","A1R9PH4LOMKZ13","either","7","52","","","","","","","0","0","1","0.09566861","","0.8","0.4","0.6","0.2","","","","","0.09566861","0.3163763193","0.2118700154","0.2504344391","","","","","","","","","","72","H","0","img/none_selected.jpg","","146","main_expt","",""
"","bandit","232","604836","0.0-188.0-0.0","96415329","wem/bandit_party_1","A1R9PH4LOMKZ13","either","7","92","","","","","","","0","0","1","0.210437557","","0.8","0.4","0.6","0.2","","","","","0.08578591382","0.3198025905","0.210437557","0.2437718569","","","","","","","","","","75","K","2","","","147","main_expt","",""
"","bandit","233","606356","0.0-189.0-0.0","96415329","wem/bandit_party_1","A1R9PH4LOMKZ13","either","7","13","","","","","","","0","0","1","","0.2588245921","0.8","0.4","0.6","0.2","0.1147887709","0.2588245921","0.2370661354","0.2446677265","","","","","","","","","","","","","","74","J","1","","","148","main_expt","",""
"","bandit","234","607956","0.0-190.0-0.0","96415329","wem/bandit_party_1","A1R9PH4LOMKZ13","either","7","93","","","","","","","0","0","1","","0.248712437","0.8","0.4","0.6","0.2","0.1378203382","0.248712437","0.2430363771","0.2911002833","","","","","","","","","","","","","","74","J","1","","","149","main_expt","",""
"","bandit","235","609701","0.0-191.0-0.0","96415329","wem/bandit_party_1","A1R9PH4LOMKZ13","either","7","237","","","","","","","0","0","1","","0.3529655025","0.8","0.4","0.6","0.2","0.1414499273","0.179144869","0.2242182381","0.3529655025","","","","","","","","","","","","","","76","L","3","","","150","main_expt","",""
"","bandit","236","611220","0.0-192.0-0.0","96415329","wem/bandit_party_1","A1R9PH4LOMKZ13","either","7","12","","","","","","","0","0","1","","0.3885741111","0.8","0.4","0.6","0.2","0.07852348772","0.1545669956","0.1997145133","0.3885741111","","","","","","","","","","","","","","76","L","3","","","151","main_expt","",""
"","bandit","237","612741","0.0-193.0-0.0","96415329","wem/bandit_party_1","A1R9PH4LOMKZ13","either","7","13","","","","","","","0","1","0","","0.3690499696","0.8","0.4","0.6","0.2","0.08485793113","0.1651714415","0.2195927633","0.3690499696","","","","","","","","","","","","","","76","L","3","","","152","main_expt","",""
"","bandit","238","614412","0.0-194.0-0.0","96415329","wem/bandit_party_1","A1R9PH4LOMKZ13","either","7","163","","","","","","","0","1","0","","0.3710492515","0.8","0.4","0.6","0.2","0.1083789561","0.2396245514","0.2121816628","0.3710492515","","","","","","","","","","","","","","76","L","3","","","153","main_expt","",""
"","bandit","239","616069","0.0-195.0-0.0","96415329","wem/bandit_party_1","A1R9PH4LOMKZ13","either","7","148","","","","","","","0","0","1","","0.3483335413","0.8","0.4","0.6","0.2","0.109098481","0.2085838567","0.1830588608","0.3483335413","","","","","","","","","","","","","","76","L","3","","","154","main_expt","",""
"","bandit","240","617580","0.0-196.0-0.0","96415329","wem/bandit_party_1","A1R9PH4LOMKZ13","either","7","4","","","","","","","0","0","1","","0.3343760247","0.8","0.4","0.6","0.2","0.1758262092","0.1864274254","0.2031423662","0.3343760247","","","","","","","","","","","","","","76","L","3","","","155","main_expt","",""
"","bandit","241","619189","0.0-197.0-0.0","96415329","wem/bandit_party_1","A1R9PH4LOMKZ13","either","7","101","","","","","","","0","0","1","","0.3742013553","0.8","0.4","0.6","0.2","0.2046597001","0.1750870897","0.2022731065","0.3742013553","","","","","","","","","","","","","","76","L","3","","","156","main_expt","",""
"","bandit","242","620717","0.0-198.0-0.0","96415329","wem/bandit_party_1","A1R9PH4LOMKZ13","either","7","19","","","","","","","0","0","1","0.1826661219","","0.8","0.4","0.6","0.2","","","","","0.1774751899","0.1321985386","0.1826661219","0.3620366094","","","","","","","","","","75","K","2","","","157","main_expt","",""
"","bandit","243","622269","0.0-199.0-0.0","96415329","wem/bandit_party_1","A1R9PH4LOMKZ13","either","7","45","","","","","","","0","0","1","0.1658993888","","0.8","0.4","0.6","0.2","","","","","0.1612033886","0.1341899746","0.1658993888","0.3671714071","","","","","","","","","","75","K","2","","","158","main_expt","",""
"","bandit","244","623958","0.0-200.0-0.0","96415329","wem/bandit_party_1","A1R9PH4LOMKZ13","either","7","181","","","","","","","0","0","1","0.1586838935","","0.8","0.4","0.6","0.2","","","","","0.1586838935","0.1567784951","0.1620079643","0.4015988616","","","","","","","","","","72","H","0","img/none_selected.jpg","","159","main_expt","",""
"","bandit","245","625637","0.0-201.0-0.0","96415329","wem/bandit_party_1","A1R9PH4LOMKZ13","either","7","171","","","","","","","0","0","1","","0.2159944071","0.8","0.4","0.6","0.2","0.2159944071","0.1615549635","0.2453635642","0.4004877553","","","","","","","","","","","","","","72","H","0","img/none_selected.jpg","","160","main_expt","",""
"","bandit","246","627332","0.0-202.0-0.0","96415329","wem/bandit_party_1","A1R9PH4LOMKZ13","either","7","188","","","","","","","0","0","1","","0.1854631015","0.8","0.4","0.6","0.2","0.2105769377","0.1854631015","0.2456373749","0.4095849454","","","","","","","","","","","","","","74","J","1","","","161","main_expt","",""
"","bandit","247","628840","0.0-203.0-0.0","96415329","wem/bandit_party_1","A1R9PH4LOMKZ13","either","7","1","","","","","","","0","0","1","","0.21229469","0.8","0.4","0.6","0.2","0.2006925765","0.21229469","0.2460125232","0.3978002783","","","","","","","","","","","","","","74","J","1","","","162","main_expt","",""
"","bandit","248","630524","0.0-204.0-0.0","96415329","wem/bandit_party_1","A1R9PH4LOMKZ13","either","7","177","","","","","","","0","0","1","","0.162194177","0.8","0.4","0.6","0.2","0.2365124807","0.162194177","0.2013568893","0.4180552148","","","","","","","","","","","","","","74","J","1","","","163","main_expt","",""
"","bandit","249","632172","0.0-205.0-0.0","96415329","wem/bandit_party_1","A1R9PH4LOMKZ13","either","7","140","","","","","","","0","0","1","0.1933595846","","0.8","0.4","0.6","0.2","","","","","0.2157370886","0.1535707797","0.1933595846","0.4407560021","","","","","","","","","","75","K","2","","","164","main_expt","",""
"","bandit","250","633682","0.0-206.0-0.0","96415329","wem/bandit_party_1","A1R9PH4LOMKZ13","either","7","0","","","","","","","0","0","1","0.167552211","","0.8","0.4","0.6","0.2","","","","","0.2166787898","0.2315934193","0.167552211","0.4582960521","","","","","","","","","","75","K","2","","","165","main_expt","",""
"","bandit","251","635533","0.0-207.0-0.0","96415329","wem/bandit_party_1","A1R9PH4LOMKZ13","either","7","343","","","","","","","0","0","1","","0.2579087381","0.8","0.4","0.6","0.2","0.1846262972","0.2579087381","0.1311237951","0.4337500892","","","","","","","","","","","","","","74","J","1","","","166","main_expt","",""
"","bandit","252","637181","0.0-208.0-0.0","96415329","wem/bandit_party_1","A1R9PH4LOMKZ13","either","7","139","","","","","","","0","0","1","0.1888750078","","0.8","0.4","0.6","0.2","","","","","0.1888750078","0.2496457694","0.1714029316","0.4537582576","","","","","","","","","","72","H","0","img/none_selected.jpg","","167","main_expt","",""
"","bandit","253","638853","0.0-209.0-0.0","96415329","wem/bandit_party_1","A1R9PH4LOMKZ13","either","7","164","","","","","","","0","0","1","0.4473485534","","0.8","0.4","0.6","0.2","","","","","0.2315683769","0.234558796","0.1494402723","0.4473485534","","","","","","","","","","76","L","3","","","168","main_expt","",""
"","bandit","254","640517","0.0-210.0-0.0","96415329","wem/bandit_party_1","A1R9PH4LOMKZ13","either","7","156","","","","","","","1","0","0","0.4471591033","","0.8","0.4","0.6","0.2","","","","","0.2018123945","0.2458600006","0.1819888556","0.4471591033","","","","","","","","","","76","L","3","","","169","main_expt","",""
"","bandit","255","642205","0.0-211.0-0.0","96415329","wem/bandit_party_1","A1R9PH4LOMKZ13","either","7","179","","","","","","","0","0","1","0.4581839475","","0.8","0.4","0.6","0.2","","","","","0.139238222","0.2214583157","0.2329206984","0.4581839475","","","","","","","","","","76","L","3","","","170","main_expt","",""
"","bandit","256","643821","0.0-212.0-0.0","96415329","wem/bandit_party_1","A1R9PH4LOMKZ13","either","7","108","","","","","","","0","0","1","","0.4674995421","0.8","0.4","0.6","0.2","0.1466511374","0.296208115","0.2000607923","0.4674995421","","","","","","","","","","","","","","76","L","3","","","171","main_expt","",""
"","bandit","257","645462","0.0-213.0-0.0","96415329","wem/bandit_party_1","A1R9PH4LOMKZ13","either","7","133","","","","","","","0","1","0","","0.4455620345","0.8","0.4","0.6","0.2","0.1348290388","0.3062379281","0.2342957318","0.4455620345","","","","","","","","","","","","","","76","L","3","","","172","main_expt","",""
"","bandit","258","647029","0.0-214.0-0.0","96415329","wem/bandit_party_1","A1R9PH4LOMKZ13","either","7","59","","","","","","","1","0","0","0.4471610379","","0.8","0.4","0.6","0.2","","","","","0.1521691919","0.2498067723","0.2189308077","0.4471610379","","","","","","","","","","76","L","3","","","173","main_expt","",""
"","bandit","259","648692","0.0-215.0-0.0","96415329","wem/bandit_party_1","A1R9PH4LOMKZ13","either","7","155","","","","","","","1","0","0","0.4496576915","","0.8","0.4","0.6","0.2","","","","","0.2191935525","0.1803522277","0.2373932689","0.4496576915","","","","","","","","","","76","L","3","","","174","main_expt","",""
"","bandit","260","650284","0.0-216.0-0.0","96415329","wem/bandit_party_1","A1R9PH4LOMKZ13","either","7","85","","","","","","","0","0","1","","0.4715297358","0.8","0.4","0.6","0.2","0.219961305","0.2014319342","0.2160264752","0.4715297358","","","","","","","","","","","","","","76","L","3","","","175","main_expt","",""
"","bandit","261","651941","0.0-217.0-0.0","96415329","wem/bandit_party_1","A1R9PH4LOMKZ13","either","7","148","","","","","","","0","0","1","","0.477956151","0.8","0.4","0.6","0.2","0.1882485239","0.2122003168","0.1990604306","0.477956151","","","","","","","","","","","","","","76","L","3","","","176","main_expt","",""
"","bandit","262","653565","0.0-218.0-0.0","96415329","wem/bandit_party_1","A1R9PH4LOMKZ13","either","7","115","","","","","","","0","0","1","","0.4563721206","0.8","0.4","0.6","0.2","0.1644902553","0.2629069455","0.1729978196","0.4563721206","","","","","","","","","","","","","","76","L","3","","","177","main_expt","",""
"","bandit","263","655381","0.0-219.0-0.0","96415329","wem/bandit_party_1","A1R9PH4LOMKZ13","either","7","307","","","","","","","0","0","1","0.1713669852","","0.8","0.4","0.6","0.2","","","","","0.1713669852","0.2336104206","0.1633080779","0.4409869931","","","","","","","","","","72","H","0","img/none_selected.jpg","","178","main_expt","",""
"","bandit","264","657045","0.0-220.0-0.0","96415329","wem/bandit_party_1","A1R9PH4LOMKZ13","either","7","156","","","","","","","0","0","1","0.2263400462","","0.8","0.4","0.6","0.2","","","","","0.2263400462","0.1887504226","0.1243251356","0.4243126063","","","","","","","","","","72","H","0","img/none_selected.jpg","","179","main_expt","",""
"","bandit","265","658732","0.0-221.0-0.0","96415329","wem/bandit_party_1","A1R9PH4LOMKZ13","either","7","179","","","","","","","0","0","1","0.138376641","","0.8","0.4","0.6","0.2","","","","","0.2036870175","0.138376641","0.1150149055","0.4312830743","","","","","","","","","","74","J","1","","","180","main_expt","",""
"","bandit","266","660379","0.0-222.0-0.0","96415329","wem/bandit_party_1","A1R9PH4LOMKZ13","either","7","139","","","","","","","0","0","1","0.1883992559","","0.8","0.4","0.6","0.2","","","","","0.1934599198","0.1883992559","0.1407924877","0.4433127893","","","","","","","","","","74","J","1","","","181","main_expt","",""
"","bandit","267","662132","0.0-223.0-0.0","96415329","wem/bandit_party_1","A1R9PH4LOMKZ13","either","7","243","","","","","","","1","0","0","0.128889003","","0.8","0.4","0.6","0.2","","","","","0.2424515525","0.128889003","0.09672650852","0.440136403","","","","","","","","","","74","J","1","","","182","main_expt","",""
"","bandit","268","663819","0.0-224.0-0.0","96415329","wem/bandit_party_1","A1R9PH4LOMKZ13","either","7","179","","","","","","","0","0","1","0.1748769843","","0.8","0.4","0.6","0.2","","","","","0.1961777535","0.1748769843","0.09888002855","0.4347693449","","","","","","","","","","74","J","1","","","183","main_expt","",""
"","bandit","269","665435","0.0-225.0-0.0","96415329","wem/bandit_party_1","A1R9PH4LOMKZ13","either","7","108","","","","","","","0","0","1","0.1945994373","","0.8","0.4","0.6","0.2","","","","","0.1489283113","0.1945994373","0.07200145298","0.4277130926","","","","","","","","","","74","J","1","","","184","main_expt","",""
"","bandit","270","667204","0.0-226.0-0.0","96415329","wem/bandit_party_1","A1R9PH4LOMKZ13","either","7","261","","","","","","","0","0","1","","0.09476413333","0.8","0.4","0.6","0.2","0.1499965078","0.1644748654","0.09476413333","0.3956248437","","","","","","","","","","","","","","75","K","2","","","185","main_expt","",""
"","bandit","271","668715","0.0-227.0-0.0","96415329","wem/bandit_party_1","A1R9PH4LOMKZ13","either","7","2","","","","","","","0","0","1","","0.06556422103","0.8","0.4","0.6","0.2","0.2169832988","0.1504635592","0.06556422103","0.3748928266","","","","","","","","","","","","","","75","K","2","","","186","main_expt","",""
"","bandit","272","670460","0.0-228.0-0.0","96415329","wem/bandit_party_1","A1R9PH4LOMKZ13","either","7","236","","","","","","","0","0","1","","0.08901149072","0.8","0.4","0.6","0.2","0.2655186329","0.1760039214","0.08901149072","0.3848139325","","","","","","","","","","","","","","75","K","2","","","187","main_expt","",""
"","bandit","273","672092","0.0-229.0-0.0","96415329","wem/bandit_party_1","A1R9PH4LOMKZ13","either","7","124","","","","","","","0","0","1","0.2738785118","","0.8","0.4","0.6","0.2","","","","","0.2738785118","0.1203267588","0.09471428588","0.3990176401","","","","","","","","","","72","H","0","img/none_selected.jpg","","188","main_expt","",""
"","bandit","274","673700","0.0-230.0-0.0","96415329","wem/bandit_party_1","A1R9PH4LOMKZ13","either","7","99","","","","","","","1","0","0","0.1171540391","","0.8","0.4","0.6","0.2","","","","","0.3041874674","0.1171540391","0.05118235823","0.3581396838","","","","","","","","","","74","J","1","","","189","main_expt","",""
"","bandit","275","675244","0.0-231.0-0.0","96415329","wem/bandit_party_1","A1R9PH4LOMKZ13","either","7","35","","","","","","","0","0","1","","0.1535230761","0.8","0.4","0.6","0.2","0.3229453735","0.1535230761","0.05788318751","0.2882972244","","","","","","","","","","","","","","74","J","1","","","190","main_expt","",""
"","bandit","276","676891","0.0-232.0-0.0","96415329","wem/bandit_party_1","A1R9PH4LOMKZ13","either","7","138","","","","","","","0","0","1","","0.1372750947","0.8","0.4","0.6","0.2","0.3818249757","0.1372750947","0.08736915481","0.3145326233","","","","","","","","","","","","","","74","J","1","","","191","main_expt","",""
"","bandit","277","678477","0.0-233.0-0.0","96415329","wem/bandit_party_1","A1R9PH4LOMKZ13","either","7","77","","","","","","","0","0","1","","0.1047771501","0.8","0.4","0.6","0.2","0.4157726243","0.1047771501","0.08251019118","0.3270603702","","","","","","","","","","","","","","74","J","1","","","192","main_expt","",""
"","bandit","278","680092","0.0-234.0-0.0","96415329","wem/bandit_party_1","A1R9PH4LOMKZ13","either","7","106","","","","","","","0","0","1","0.4611608212","","0.8","0.4","0.6","0.2","","","","","0.4611608212","0.1100845432","0.06897628064","0.3604030797","","","","","","","","","","72","H","0","img/none_selected.jpg","","193","main_expt","",""
"","bandit","279","681700","0.0-235.0-0.0","96415329","wem/bandit_party_1","A1R9PH4LOMKZ13","either","7","98","","","","","","","0","0","1","","0.06801266305","0.8","0.4","0.6","0.2","0.4508818777","0.1468163818","0.06801266305","0.357423186","","","","","","","","","","","","","","75","K","2","","","194","main_expt","",""
"","bandit","280","683291","0.0-236.0-0.0","96415329","wem/bandit_party_1","A1R9PH4LOMKZ13","either","7","82","","","","","","","0","0","1","","0.3697779856","0.8","0.4","0.6","0.2","0.4278921451","0.1495594621","0.09923709358","0.3697779856","","","","","","","","","","","","","","76","L","3","","","195","main_expt","",""
"","bandit","281","684987","0.0-237.0-0.0","96415329","wem/bandit_party_1","A1R9PH4LOMKZ13","either","7","187","","","","","","","0","0","1","0.4256293003","","0.8","0.4","0.6","0.2","","","","","0.4256293003","0.2263220537","0.1103063831","0.3617177512","","","","","","","","","","72","H","0","img/none_selected.jpg","","196","main_expt","",""
"","bandit","282","686716","0.0-238.0-0.0","96415329","wem/bandit_party_1","A1R9PH4LOMKZ13","either","7","218","","","","","","","0","0","1","","0.07377144043","0.8","0.4","0.6","0.2","0.4476975038","0.2204718804","0.07377144043","0.3775990084","","","","","","","","","","","","","","75","K","2","","","197","main_expt","",""
"","bandit","283","688236","0.0-239.0-0.0","96415329","wem/bandit_party_1","A1R9PH4LOMKZ13","either","7","10","","","","","","","0","0","1","0.2401118457","","0.8","0.4","0.6","0.2","","","","","0.4434357272","0.2401118457","0.08863448313","0.4144042571","","","","","","","","","","74","J","1","","","198","main_expt","",""
"","bandit","284","689901","0.0-240.0-0.0","96415329","wem/bandit_party_1","A1R9PH4LOMKZ13","either","7","155","","","","","","","0","1","0","","0.4081775392","0.8","0.4","0.6","0.2","0.4245114622","0.2673724497","0.1082179128","0.4081775392","","","","","","","","","","","","","","76","L","3","","","199","main_expt","",""
"","bandit","285","691547","0.0-241.0-0.0","96415329","wem/bandit_party_1","A1R9PH4LOMKZ13","either","7","137","","","","","","","0","0","1","","0.4166156547","0.8","0.4","0.6","0.2","0.4087100315","0.3125307902","0.09350688576","0.4166156547","","","","","","","","","","","","","","76","L","3","","","200","main_expt","",""
"","bandit","286","693180","0.0-242.0-0.0","96415329","wem/bandit_party_1","A1R9PH4LOMKZ13","either","7","123","","","","","","","0","1","0","","0.4306537176","0.8","0.4","0.6","0.2","0.4361521275","0.2914574258","0.1036625099","0.4306537176","","","","","","","","","","","","","","76","L","3","","","201","main_expt","",""
"","bandit","287","694772","0.0-243.0-0.0","96415329","wem/bandit_party_1","A1R9PH4LOMKZ13","either","7","82","","","","","","","0","1","0","","0.449382563","0.8","0.4","0.6","0.2","0.3332596158","0.2550600684","0.1216733889","0.449382563","","","","","","","","","","","","","","76","L","3","","","202","main_expt","",""
"","bandit","288","696356","0.0-244.0-0.0","96415329","wem/bandit_party_1","A1R9PH4LOMKZ13","either","7","75","","","","","","","0","0","1","0.4506576586","","0.8","0.4","0.6","0.2","","","","","0.3581848779","0.2769745997","0.120655788","0.4506576586","","","","","","","","","","76","L","3","","","203","main_expt","",""
"","bandit","289","697948","0.0-245.0-0.0","96415329","wem/bandit_party_1","A1R9PH4LOMKZ13","either","7","83","","","","","","","0","1","0","","0.454839243","0.8","0.4","0.6","0.2","0.3597133043","0.2752990059","0.1082970726","0.454839243","","","","","","","","","","","","","","76","L","3","","","204","main_expt","",""
"","bandit","290","699603","0.0-246.0-0.0","96415329","wem/bandit_party_1","A1R9PH4LOMKZ13","either","7","146","","","","","","","0","0","1","","0.4512889682","0.8","0.4","0.6","0.2","0.3630183988","0.2901512169","0.09143681274","0.4512889682","","","","","","","","","","","","","","76","L","3","","","205","main_expt","",""
"","bandit","291","701156","0.0-247.0-0.0","96415329","wem/bandit_party_1","A1R9PH4LOMKZ13","either","7","45","","","","","","","0","0","1","","0.4591490044","0.8","0.4","0.6","0.2","0.3737494834","0.2823763913","0.08377413986","0.4591490044","","","","","","","","","","","","","","76","L","3","","","206","main_expt","",""
"","bandit","292","702755","0.0-248.0-0.0","96415329","wem/bandit_party_1","A1R9PH4LOMKZ13","either","7","91","","","","","","","0","0","1","0.4650593633","","0.8","0.4","0.6","0.2","","","","","0.3668784438","0.2708062506","0.1585073664","0.4650593633","","","","","","","","","","76","L","3","","","207","main_expt","",""
"","bandit","293","704380","0.0-249.0-0.0","96415329","wem/bandit_party_1","A1R9PH4LOMKZ13","either","7","116","","","","","","","0","0","1","0.162299901","","0.8","0.4","0.6","0.2","","","","","0.4045351895","0.2641553663","0.162299901","0.4641513068","","","","","","","","","","75","K","2","","","208","main_expt","",""
"","bandit","294","705932","0.0-250.0-0.0","96415329","wem/bandit_party_1","A1R9PH4LOMKZ13","either","7","43","","","","","","","1","0","0","0.4567807332","","0.8","0.4","0.6","0.2","","","","","0.4402386934","0.2704675845","0.1542266077","0.4567807332","","","","","","","","","","76","L","3","","","209","main_expt","",""
"","bandit","295","707532","0.0-251.0-0.0","96415329","wem/bandit_party_1","A1R9PH4LOMKZ13","either","7","91","","","","","","","0","1","0","","0.428253188","0.8","0.4","0.6","0.2","0.4483623408","0.3420868926","0.1890415559","0.428253188","","","","","","","","","","","","","","76","L","3","","","210","main_expt","",""
"","bandit","296","709292","0.0-252.0-0.0","96415329","wem/bandit_party_1","A1R9PH4LOMKZ13","either","7","250","","","","","","","0","0","1","","0.410271385","0.8","0.4","0.6","0.2","0.4471415093","0.3069688952","0.1818133019","0.410271385","","","","","","","","","","","","","","76","L","3","","","211","main_expt","",""
"","bandit","297","710883","0.0-253.0-0.0","96415329","wem/bandit_party_1","A1R9PH4LOMKZ13","either","7","82","","","","","","","0","0","1","0.4065587724","","0.8","0.4","0.6","0.2","","","","","0.4374655127","0.3005379093","0.1782747956","0.4065587724","","","","","","","","","","76","L","3","","","212","main_expt","",""
"","bandit","298","712429","0.0-254.0-0.0","96415329","wem/bandit_party_1","A1R9PH4LOMKZ13","either","7","36","","","","","","","0","0","1","","0.1935195711","0.8","0.4","0.6","0.2","0.4381457257","0.213882915","0.1935195711","0.4007116542","","","","","","","","","","","","","","75","K","2","","","213","main_expt","",""
"","bandit","299","713939","0.0-255.0-0.0","96415329","wem/bandit_party_1","A1R9PH4LOMKZ13","either","7","1","","","","","","","0","0","1","0.2421176173","","0.8","0.4","0.6","0.2","","","","","0.4643769008","0.2138557204","0.2421176173","0.4246209323","","","","","","","","","","75","K","2","","","214","main_expt","",""
"","bandit","300","715531","0.0-256.0-0.0","96415329","wem/bandit_party_1","A1R9PH4LOMKZ13","either","7","83","","","","","","","0","0","1","0.2629876012","","0.8","0.4","0.6","0.2","","","","","0.4328812357","0.2142566612","0.2629876012","0.3993057066","","","","","","","","","","75","K","2","","","215","main_expt","",""
"","bandit","301","717203","0.0-257.0-0.0","96415329","wem/bandit_party_1","A1R9PH4LOMKZ13","either","7","163","","","","","","","0","1","0","","0.3987772474","0.8","0.4","0.6","0.2","0.4064507999","0.1900351118","0.2977714141","0.3987772474","","","","","","","","","","","","","","76","L","3","","","216","main_expt","",""
"","bandit","302","718868","0.0-258.0-0.0","96415329","wem/bandit_party_1","A1R9PH4LOMKZ13","either","7","155","","","","","","","0","1","0","","0.4101433534","0.8","0.4","0.6","0.2","0.4197961641","0.2185169477","0.3017601552","0.4101433534","","","","","","","","","","","","","","76","L","3","","","217","main_expt","",""
"","bandit","303","720493","0.0-259.0-0.0","96415329","wem/bandit_party_1","A1R9PH4LOMKZ13","either","7","114","","","","","","","0","1","0","","0.4448029092","0.8","0.4","0.6","0.2","0.4167397569","0.2240895604","0.2888566207","0.4448029092","","","","","","","","","","","","","","76","L","3","","","218","main_expt","",""
"","bandit","304","722003","0.0-260.0-0.0","96415329","wem/bandit_party_1","A1R9PH4LOMKZ13","either","7","1","","","","","","","0","1","0","","0.4454766299","0.8","0.4","0.6","0.2","0.4250944588","0.1990808675","0.2844008008","0.4454766299","","","","","","","","","","","","","","76","L","3","","","219","main_expt","",""
"","bandit","305","723669","0.0-261.0-0.0","96415329","wem/bandit_party_1","A1R9PH4LOMKZ13","either","7","158","","","","","","","0","0","1","","0.4610997771","0.8","0.4","0.6","0.2","0.4173336587","0.266602996","0.2225062479","0.4610997771","","","","","","","","","","","","","","76","L","3","","","220","main_expt","",""
"","bandit","306","725636","0.0-262.0-0.0","96415329","wem/bandit_party_1","A1R9PH4LOMKZ13","either","7","458","","","","","","","0","0","1","","0.4642289789","0.8","0.4","0.6","0.2","0.3944711005","0.2443661227","0.2409900116","0.4642289789","","","","","","","","","","","","","","76","L","3","","","221","main_expt","",""
"","bandit","307","727316","0.0-263.0-0.0","96415329","wem/bandit_party_1","A1R9PH4LOMKZ13","either","7","171","","","","","","","1","0","0","0.2205922116","","0.8","0.4","0.6","0.2","","","","","0.3619306912","0.2205922116","0.1989678636","0.4641270597","","","","","","","","","","74","J","1","","","222","main_expt","",""
"","bandit","308","728893","0.0-264.0-0.0","96415329","wem/bandit_party_1","A1R9PH4LOMKZ13","either","7","68","","","","","","","0","0","1","0.1861223506","","0.8","0.4","0.6","0.2","","","","","0.4117842179","0.1861223506","0.1902867071","0.4697433819","","","","","","","","","","74","J","1","","","223","main_expt","",""
"","bandit","309","730517","0.0-265.0-0.0","96415329","wem/bandit_party_1","A1R9PH4LOMKZ13","either","7","114","","","","","","","0","0","1","","0.1668884863","0.8","0.4","0.6","0.2","0.3965092367","0.1668884863","0.2076415522","0.460898083","","","","","","","","","","","","","","74","J","1","","","224","main_expt","",""
"","bandit","310","732132","0.0-266.0-0.0","96415329","wem/bandit_party_1","A1R9PH4LOMKZ13","either","7","106","","","","","","","0","0","1","","0.1481472712","0.8","0.4","0.6","0.2","0.4084477862","0.1481472712","0.2393469174","0.4394890665","","","","","","","","","","","","","","74","J","1","","","225","main_expt","",""
"","bandit","311","733709","0.0-267.0-0.0","96415329","wem/bandit_party_1","A1R9PH4LOMKZ13","either","7","68","","","","","","","0","0","1","","0.1140846591","0.8","0.4","0.6","0.2","0.4104601526","0.1140846591","0.2425440376","0.4520955237","","","","","","","","","","","","","","74","J","1","","","226","main_expt","",""
"","bandit","312","735228","0.0-268.0-0.0","96415329","wem/bandit_party_1","A1R9PH4LOMKZ13","either","7","10","","","","","","","1","0","0","0.4324220164","","0.8","0.4","0.6","0.2","","","","","0.3899733519","0.1074218354","0.2365603363","0.4324220164","","","","","","","","","","76","L","3","","","227","main_expt","",""
"","bandit","313","737028","0.0-269.0-0.0","96415329","wem/bandit_party_1","A1R9PH4LOMKZ13","either","7","290","","","","","","","0","0","1","","0.4220482421","0.8","0.4","0.6","0.2","0.3796730737","0.08065165665","0.2127958296","0.4220482421","","","","","","","","","","","","","","76","L","3","","","228","main_expt","",""
"","bandit","314","738629","0.0-270.0-0.0","96415329","wem/bandit_party_1","A1R9PH4LOMKZ13","either","7","90","","","","","","","0","0","1","","0.3885749154","0.8","0.4","0.6","0.2","0.4046866514","0.07774059362","0.2207861463","0.3885749154","","","","","","","","","","","","","","76","L","3","","","229","main_expt","",""
