"consent","trial_type","trial_index","time_elapsed","internal_node_id","subjID","study","MID","cond","drift","rt","responses","button_pressed","key_press","like","value","connected","gems","bombs","no_reward","GemPrChosen","BombPrChosen","GainOverPainPr_0","GainOverPainPr_1","GainOverPainPr_2","GainOverPainPr_3","LosePr_0","LosePr_1","LosePr_2","LosePr_3","WinPr_0","WinPr_1","WinPr_2","WinPr_3","Q0","Q1","Q2","gender","age","ethnicity","label","expt_phase","target","respCharCode","respKey","respChoiceNum","respChoice","practice","trial_counter","trial_label","Q0_index","view_history"
"GDM/GDM_behavioral_consent_30min_online.html","consent","0","12767","0.0-0.0","98935407","wem/bandit_party_1","A3AZJGI9D7C0PD","either","7","","","","","","","","","","","","","","","","","","","","","","","","","","","","","","","","","","","","","","","","","",""
"","survey-text","1","15296","0.0-1.0","98935407","wem/bandit_party_1","A3AZJGI9D7C0PD","either","7","1511","{""Q0"":""A3AZJGI9D7C0PD""}","","","","","","","","","","","","","","","","","","","","","","","","","","","","","","","","","","","","","","","",""
"","button-response","2","17972","0.0-2.0","98935407","wem/bandit_party_1","A3AZJGI9D7C0PD","either","7","1666","","0","","","","","","","","","","","","","","","","","","","","","","","","","","","","","","","","","","","","","","",""
"","text-replacement","3","28695","0.0-3.0","98935407","wem/bandit_party_1","A3AZJGI9D7C0PD","either","7","9714","","","32","","","","","","","","","","","","","","","","","","","","","","","","","","","","","","","","","","","","","",""
"","text-replacement","4","31364","0.0-4.0","98935407","wem/bandit_party_1","A3AZJGI9D7C0PD","either","7","2666","","","32","","","","","","","","","","","","","","","","","","","","","","","","","","","","","","","","","","","","","",""
"","identification","5","40163","0.0-6.0-0.0","98935407","wem/bandit_party_1","A3AZJGI9D7C0PD","either","7","8781","","","","3","6","3","","","","","","","","","","","","","","","","","","","","","","","","pre","identification_pre","the Republican party","","","","","","","","",""
"","identification","6","44417","0.0-6.0-1.0","98935407","wem/bandit_party_1","A3AZJGI9D7C0PD","either","7","3241","","","","0","0","0","","","","","","","","","","","","","","","","","","","","","","","","pre","identification_pre","the Democratic Party","","","","","","","","",""
"","text-replacement","7","51494","0.0-7.0","98935407","wem/bandit_party_1","A3AZJGI9D7C0PD","either","7","6073","","","32","","","","","","","","","","","","","","","","","","","","","","","","","","","","","","","","","","","","","",""
"","text-replacement","8","54574","0.0-8.0","98935407","wem/bandit_party_1","A3AZJGI9D7C0PD","either","7","3077","","","32","","","","","","","","","","","","","","","","","","","","","","","","","","","","","","","","","","","","","",""
"","text-replacement","9","56885","0.0-9.0","98935407","wem/bandit_party_1","A3AZJGI9D7C0PD","either","7","2307","","","32","","","","","","","","","","","","","","","","","","","","","","","","","","","","","","","","","","","","","",""
"","text-replacement","10","58755","0.0-10.0","98935407","wem/bandit_party_1","A3AZJGI9D7C0PD","either","7","1867","","","32","","","","","","","","","","","","","","","","","","","","","","","","","","","","","","","","","","","","","",""
"","text-replacement","11","63439","0.0-11.0","98935407","wem/bandit_party_1","A3AZJGI9D7C0PD","either","7","4682","","","32","","","","","","","","","","","","","","","","","","","","","","","","","","","","","","","","","","","","","",""
"","bandit","12","67454","0.0-12.0-0.0","98935407","wem/bandit_party_1","A3AZJGI9D7C0PD","either","7","2507","","","","","","","0","0","1","0","0","","","","","0","","","","0","","","","","","","","","","","","","74","J","0","img/none_selected_demo.jpg","true","0","","",""
"","bandit","13","69761","0.0-13.0-0.0","98935407","wem/bandit_party_1","A3AZJGI9D7C0PD","either","7","798","","","","","","","0","0","1","0","0","","","","","0","","","","0","","","","","","","","","","","","","75","K","0","img/none_selected_demo.jpg","true","0","","",""
"","text-replacement","14","81231","0.0-14.0","98935407","wem/bandit_party_1","A3AZJGI9D7C0PD","either","7","11466","","","32","","","","","","","","","","","","","","","","","","","","","","","","","","","","","","","","","","","","","",""
"","text-replacement","15","86753","0.0-15.0","98935407","wem/bandit_party_1","A3AZJGI9D7C0PD","either","7","5517","","","32","","","","","","","","","","","","","","","","","","","","","","","","","","","","","","","","","","","","","",""
"","text-replacement","16","92194","0.0-16.0","98935407","wem/bandit_party_1","A3AZJGI9D7C0PD","either","7","5439","","","32","","","","","","","","","","","","","","","","","","","","","","","","","","","","","","","","","","","","","",""
"","text-replacement","17","93791","0.0-17.0","98935407","wem/bandit_party_1","A3AZJGI9D7C0PD","either","7","1593","","","32","","","","","","","","","","","","","","","","","","","","","","","","","","","","","","","","","","","","","",""
"","bandit","18","96640","0.0-18.0-0.0","98935407","wem/bandit_party_1","A3AZJGI9D7C0PD","either","7","1343","","","","","","","0","1","0","","0.8","0.5","0.5","","","0.8","0.2","","","","","","","","","","","","","","","","74","J","0","img/none_selected_demo.jpg","true","0","80_20_practice","",""
"","bandit","19","98864","0.0-18.0-1.0","98935407","wem/bandit_party_1","A3AZJGI9D7C0PD","either","7","716","","","","","","","0","1","0","","0.8","0.5","0.5","","","0.8","0.2","","","","","","","","","","","","","","","","74","J","0","img/none_selected_demo.jpg","true","0","80_20_practice","",""
"","bandit","20","100763","0.0-18.0-2.0","98935407","wem/bandit_party_1","A3AZJGI9D7C0PD","either","7","391","","","","","","","0","1","0","","0.8","0.5","0.5","","","0.8","0.2","","","","","","","","","","","","","","","","74","J","0","img/none_selected_demo.jpg","true","0","80_20_practice","",""
"","bandit","21","102681","0.0-18.0-3.0","98935407","wem/bandit_party_1","A3AZJGI9D7C0PD","either","7","411","","","","","","","1","0","0","0.8","","0.5","0.5","","","","","","","0.8","0.2","","","","","","","","","","","","74","J","0","img/none_selected_demo.jpg","true","0","80_20_practice","",""
"","bandit","22","104510","0.0-18.0-4.0","98935407","wem/bandit_party_1","A3AZJGI9D7C0PD","either","7","317","","","","","","","0","0","1","0.2","","0.5","0.5","","","","","","","0.8","0.2","","","","","","","","","","","","75","K","1","","true","0","80_20_practice","",""
"","bandit","23","106647","0.0-18.0-5.0","98935407","wem/bandit_party_1","A3AZJGI9D7C0PD","either","7","631","","","","","","","0","0","1","","0.2","0.5","0.5","","","0.8","0.2","","","","","","","","","","","","","","","","75","K","1","","true","0","80_20_practice","",""
"","bandit","24","108498","0.0-18.0-6.0","98935407","wem/bandit_party_1","A3AZJGI9D7C0PD","either","7","340","","","","","","","1","0","0","0.2","","0.5","0.5","","","","","","","0.8","0.2","","","","","","","","","","","","75","K","1","","true","0","80_20_practice","",""
"","bandit","25","110329","0.0-18.0-7.0","98935407","wem/bandit_party_1","A3AZJGI9D7C0PD","either","7","325","","","","","","","0","1","0","","0.8","0.5","0.5","","","0.8","0.2","","","","","","","","","","","","","","","","74","J","0","img/none_selected_demo.jpg","true","0","80_20_practice","",""
"","bandit","26","112148","0.0-18.0-8.0","98935407","wem/bandit_party_1","A3AZJGI9D7C0PD","either","7","311","","","","","","","0","1","0","","0.8","0.5","0.5","","","0.8","0.2","","","","","","","","","","","","","","","","74","J","0","img/none_selected_demo.jpg","true","0","80_20_practice","",""
"","bandit","27","114154","0.0-18.0-9.0","98935407","wem/bandit_party_1","A3AZJGI9D7C0PD","either","7","497","","","","","","","0","1","0","","0.8","0.5","0.5","","","0.8","0.2","","","","","","","","","","","","","","","","74","J","0","img/none_selected_demo.jpg","true","0","80_20_practice","",""
"","bandit","28","116101","0.0-18.0-10.0","98935407","wem/bandit_party_1","A3AZJGI9D7C0PD","either","7","439","","","","","","","0","1","0","","0.8","0.5","0.5","","","0.8","0.2","","","","","","","","","","","","","","","","74","J","0","img/none_selected_demo.jpg","true","0","80_20_practice","",""
"","bandit","29","117996","0.0-18.0-11.0","98935407","wem/bandit_party_1","A3AZJGI9D7C0PD","either","7","371","","","","","","","0","1","0","","0.8","0.5","0.5","","","0.8","0.2","","","","","","","","","","","","","","","","74","J","0","img/none_selected_demo.jpg","true","0","80_20_practice","",""
"","bandit","30","119838","0.0-18.0-12.0","98935407","wem/bandit_party_1","A3AZJGI9D7C0PD","either","7","335","","","","","","","1","0","0","0.8","","0.5","0.5","","","","","","","0.8","0.2","","","","","","","","","","","","74","J","0","img/none_selected_demo.jpg","true","0","80_20_practice","",""
"","bandit","31","121809","0.0-18.0-13.0","98935407","wem/bandit_party_1","A3AZJGI9D7C0PD","either","7","463","","","","","","","0","1","0","","0.8","0.5","0.5","","","0.8","0.2","","","","","","","","","","","","","","","","74","J","0","img/none_selected_demo.jpg","true","0","80_20_practice","",""
"","bandit","32","123782","0.0-18.0-14.0","98935407","wem/bandit_party_1","A3AZJGI9D7C0PD","either","7","466","","","","","","","0","1","0","","0.8","0.5","0.5","","","0.8","0.2","","","","","","","","","","","","","","","","74","J","0","img/none_selected_demo.jpg","true","0","80_20_practice","",""
"","bandit","33","125703","0.0-18.0-15.0","98935407","wem/bandit_party_1","A3AZJGI9D7C0PD","either","7","415","","","","","","","0","1","0","","0.8","0.5","0.5","","","0.8","0.2","","","","","","","","","","","","","","","","74","J","0","img/none_selected_demo.jpg","true","0","80_20_practice","",""
"","bandit","34","127608","0.0-18.0-16.0","98935407","wem/bandit_party_1","A3AZJGI9D7C0PD","either","7","356","","","","","","","0","0","1","0.2","","0.5","0.5","","","","","","","0.8","0.2","","","","","","","","","","","","75","K","1","","true","0","80_20_practice","",""
"","bandit","35","129508","0.0-18.0-17.0","98935407","wem/bandit_party_1","A3AZJGI9D7C0PD","either","7","392","","","","","","","0","0","1","","0.2","0.5","0.5","","","0.8","0.2","","","","","","","","","","","","","","","","75","K","1","","true","0","80_20_practice","",""
"","bandit","36","131595","0.0-18.0-18.0","98935407","wem/bandit_party_1","A3AZJGI9D7C0PD","either","7","494","","","","","","","0","0","1","0.2","","0.5","0.5","","","","","","","0.8","0.2","","","","","","","","","","","","75","K","1","","true","0","80_20_practice","",""
"","bandit","37","133497","0.0-18.0-19.0","98935407","wem/bandit_party_1","A3AZJGI9D7C0PD","either","7","394","","","","","","","0","0","1","","0.2","0.5","0.5","","","0.8","0.2","","","","","","","","","","","","","","","","75","K","1","","true","0","80_20_practice","",""
"","text-replacement","38","140957","0.0-19.0","98935407","wem/bandit_party_1","A3AZJGI9D7C0PD","either","7","7455","","","32","","","","","","","","","","","","","","","","","","","","","","","","","","","","","","","","","","","","","",""
"","bandit","39","143167","0.0-20.0-0.0","98935407","wem/bandit_party_1","A3AZJGI9D7C0PD","either","7","702","","","","","","","1","0","0","1","0","","","","","0","1","","","1","0","","","","","","","","","","","","74","J","0","img/none_selected_demo.jpg","true","0","","",""
"","text-replacement","40","143805","0.0-21.0","98935407","wem/bandit_party_1","A3AZJGI9D7C0PD","either","7","635","","","74","","","","","","","","","","","","","","","","","","","","","","","","","","","","","","","","","","","","","",""
"","text-replacement","41","147113","0.0-22.0","98935407","wem/bandit_party_1","A3AZJGI9D7C0PD","either","7","3305","","","32","","","","","","","","","","","","","","","","","","","","","","","","","","","","","","","","","","","","","",""
"","text-replacement","42","149030","0.0-23.0","98935407","wem/bandit_party_1","A3AZJGI9D7C0PD","either","7","1913","","","32","","","","","","","","","","","","","","","","","","","","","","","","","","","","","","","","","","","","","",""
"","text-replacement","43","151291","0.0-24.0","98935407","wem/bandit_party_1","A3AZJGI9D7C0PD","either","7","2257","","","32","","","","","","","","","","","","","","","","","","","","","","","","","","","","","","","","","","","","","",""
"","text-replacement","44","153283","0.0-25.0","98935407","wem/bandit_party_1","A3AZJGI9D7C0PD","either","7","1989","","","32","","","","","","","","","","","","","","","","","","","","","","","","","","","","","","","","","","","","","",""
"","text-replacement","45","156306","0.0-26.0","98935407","wem/bandit_party_1","A3AZJGI9D7C0PD","either","7","3019","","","32","","","","","","","","","","","","","","","","","","","","","","","","","","","","","","","","","","","","","",""
"","text-replacement","46","157894","0.0-27.0","98935407","wem/bandit_party_1","A3AZJGI9D7C0PD","either","7","1584","","","32","","","","","","","","","","","","","","","","","","","","","","","","","","","","","","","","","","","","","",""
"","text-replacement","47","159296","0.0-28.0","98935407","wem/bandit_party_1","A3AZJGI9D7C0PD","either","7","1399","","","32","","","","","","","","","","","","","","","","","","","","","","","","","","","","","","","","","","","","","",""
"","text-replacement","48","160986","0.0-29.0","98935407","wem/bandit_party_1","A3AZJGI9D7C0PD","either","7","1687","","","32","","","","","","","","","","","","","","","","","","","","","","","","","","","","","","","","","","","","","",""
"","text-replacement","49","162607","0.0-30.0","98935407","wem/bandit_party_1","A3AZJGI9D7C0PD","either","7","1618","","","32","","","","","","","","","","","","","","","","","","","","","","","","","","","","","","","","","","","","","",""
"","text-replacement","50","166051","0.0-31.0","98935407","wem/bandit_party_1","A3AZJGI9D7C0PD","either","7","3440","","","32","","","","","","","","","","","","","","","","","","","","","","","","","","","","","","","","","","","","","",""
"","bandit","51","168215","0.0-32.0-0.0","98935407","wem/bandit_party_1","A3AZJGI9D7C0PD","either","7","656","","","","","","","0","1","0","","0.8","0.5","0.5","0.5","0.5","0.8","0.2","0.6","0.2","","","","","","","","","","","","","","72","H","0","img/none_selected.jpg","true","0","full_practice","",""
"","bandit","52","170214","0.0-32.0-1.0","98935407","wem/bandit_party_1","A3AZJGI9D7C0PD","either","7","489","","","","","","","0","1","0","","0.2","0.5","0.5","0.5","0.5","0.8","0.2","0.6","0.2","","","","","","","","","","","","","","74","J","1","","true","0","full_practice","",""
"","bandit","53","172332","0.0-32.0-2.0","98935407","wem/bandit_party_1","A3AZJGI9D7C0PD","either","7","609","","","","","","","0","1","0","","0.6","0.5","0.5","0.5","0.5","0.8","0.2","0.6","0.2","","","","","","","","","","","","","","75","K","2","","true","0","full_practice","",""
"","bandit","54","174147","0.0-32.0-3.0","98935407","wem/bandit_party_1","A3AZJGI9D7C0PD","either","7","307","","","","","","","0","0","1","","0.2","0.5","0.5","0.5","0.5","0.8","0.2","0.6","0.2","","","","","","","","","","","","","","76","L","3","","true","0","full_practice","",""
"","bandit","55","176232","0.0-32.0-4.0","98935407","wem/bandit_party_1","A3AZJGI9D7C0PD","either","7","577","","","","","","","0","1","0","","0.6","0.5","0.5","0.5","0.5","0.8","0.2","0.6","0.2","","","","","","","","","","","","","","75","K","2","","true","0","full_practice","",""
"","bandit","56","178106","0.0-32.0-5.0","98935407","wem/bandit_party_1","A3AZJGI9D7C0PD","either","7","367","","","","","","","0","0","1","","0.6","0.5","0.5","0.5","0.5","0.8","0.2","0.6","0.2","","","","","","","","","","","","","","75","K","2","","true","0","full_practice","",""
"","bandit","57","179994","0.0-32.0-6.0","98935407","wem/bandit_party_1","A3AZJGI9D7C0PD","either","7","325","","","","","","","0","0","1","0.2","","0.5","0.5","0.5","0.5","","","","","0.8","0.2","0.6","0.2","","","","","","","","","","74","J","1","","true","0","full_practice","",""
"","bandit","58","182060","0.0-32.0-7.0","98935407","wem/bandit_party_1","A3AZJGI9D7C0PD","either","7","555","","","","","","","0","0","1","","0.2","0.5","0.5","0.5","0.5","0.8","0.2","0.6","0.2","","","","","","","","","","","","","","74","J","1","","true","0","full_practice","",""
"","bandit","59","183872","0.0-32.0-8.0","98935407","wem/bandit_party_1","A3AZJGI9D7C0PD","either","7","303","","","","","","","0","1","0","","0.8","0.5","0.5","0.5","0.5","0.8","0.2","0.6","0.2","","","","","","","","","","","","","","72","H","0","img/none_selected.jpg","true","0","full_practice","",""
"","bandit","60","185768","0.0-32.0-9.0","98935407","wem/bandit_party_1","A3AZJGI9D7C0PD","either","7","389","","","","","","","0","1","0","","0.8","0.5","0.5","0.5","0.5","0.8","0.2","0.6","0.2","","","","","","","","","","","","","","72","H","0","img/none_selected.jpg","true","0","full_practice","",""
"","bandit","61","187774","0.0-32.0-10.0","98935407","wem/bandit_party_1","A3AZJGI9D7C0PD","either","7","498","","","","","","","1","0","0","0.8","","0.5","0.5","0.5","0.5","","","","","0.8","0.2","0.6","0.2","","","","","","","","","","72","H","0","img/none_selected.jpg","true","0","full_practice","",""
"","bandit","62","189689","0.0-32.0-11.0","98935407","wem/bandit_party_1","A3AZJGI9D7C0PD","either","7","407","","","","","","","0","1","0","","0.8","0.5","0.5","0.5","0.5","0.8","0.2","0.6","0.2","","","","","","","","","","","","","","72","H","0","img/none_selected.jpg","true","0","full_practice","",""
"","bandit","63","191491","0.0-32.0-12.0","98935407","wem/bandit_party_1","A3AZJGI9D7C0PD","either","7","296","","","","","","","1","0","0","0.6","","0.5","0.5","0.5","0.5","","","","","0.8","0.2","0.6","0.2","","","","","","","","","","75","K","2","","true","0","full_practice","",""
"","bandit","64","193264","0.0-32.0-13.0","98935407","wem/bandit_party_1","A3AZJGI9D7C0PD","either","7","264","","","","","","","0","0","1","","0.2","0.5","0.5","0.5","0.5","0.8","0.2","0.6","0.2","","","","","","","","","","","","","","76","L","3","","true","0","full_practice","",""
"","bandit","65","195234","0.0-32.0-14.0","98935407","wem/bandit_party_1","A3AZJGI9D7C0PD","either","7","460","","","","","","","1","0","0","0.6","","0.5","0.5","0.5","0.5","","","","","0.8","0.2","0.6","0.2","","","","","","","","","","75","K","2","","true","0","full_practice","",""
"","bandit","66","197067","0.0-32.0-15.0","98935407","wem/bandit_party_1","A3AZJGI9D7C0PD","either","7","324","","","","","","","0","1","0","","0.8","0.5","0.5","0.5","0.5","0.8","0.2","0.6","0.2","","","","","","","","","","","","","","72","H","0","img/none_selected.jpg","true","0","full_practice","",""
"","bandit","67","199126","0.0-32.0-16.0","98935407","wem/bandit_party_1","A3AZJGI9D7C0PD","either","7","550","","","","","","","1","0","0","0.8","","0.5","0.5","0.5","0.5","","","","","0.8","0.2","0.6","0.2","","","","","","","","","","72","H","0","img/none_selected.jpg","true","0","full_practice","",""
"","bandit","68","201011","0.0-32.0-17.0","98935407","wem/bandit_party_1","A3AZJGI9D7C0PD","either","7","378","","","","","","","1","0","0","0.8","","0.5","0.5","0.5","0.5","","","","","0.8","0.2","0.6","0.2","","","","","","","","","","72","H","0","img/none_selected.jpg","true","0","full_practice","",""
"","bandit","69","202968","0.0-32.0-18.0","98935407","wem/bandit_party_1","A3AZJGI9D7C0PD","either","7","446","","","","","","","0","1","0","","0.8","0.5","0.5","0.5","0.5","0.8","0.2","0.6","0.2","","","","","","","","","","","","","","72","H","0","img/none_selected.jpg","true","0","full_practice","",""
"","bandit","70","204852","0.0-32.0-19.0","98935407","wem/bandit_party_1","A3AZJGI9D7C0PD","either","7","376","","","","","","","0","0","1","","0.8","0.5","0.5","0.5","0.5","0.8","0.2","0.6","0.2","","","","","","","","","","","","","","72","H","0","img/none_selected.jpg","true","0","full_practice","",""
"","text","71","208753","0.0-33.0","98935407","wem/bandit_party_1","A3AZJGI9D7C0PD","either","7","3886","","","32","","","","","","","","","","","","","","","","","","","","","","","","","","","","","","","","","","","","","",""
"","text-replacement","72","214693","0.0-34.0","98935407","wem/bandit_party_1","A3AZJGI9D7C0PD","either","7","4936","","","32","","","","","","","","","","","","","","","","","","","","","","","","","","","","","","","","","","","","","",""
"","text-replacement","73","222367","0.0-35.0","98935407","wem/bandit_party_1","A3AZJGI9D7C0PD","either","7","7671","","","32","","","","","","","","","","","","","","","","","","","","","","","","","","","","","","","","","","","","","",""
"","text-replacement","74","225207","0.0-36.0","98935407","wem/bandit_party_1","A3AZJGI9D7C0PD","either","7","2834","","","32","","","","","","","","","","","","","","","","","","","","","","","","","","","","","","","","","","","","","",""
"","text-replacement","75","227863","0.0-37.0","98935407","wem/bandit_party_1","A3AZJGI9D7C0PD","either","7","2653","","","32","","","","","","","","","","","","","","","","","","","","","","","","","","","","","","","","","","","","","",""
"","text-replacement","76","234938","0.0-38.0","98935407","wem/bandit_party_1","A3AZJGI9D7C0PD","either","7","7070","","","32","","","","","","","","","","","","","","","","","","","","","","","","","","","","","","","","","","","","","",""
"","survey-multi-choice-replacement","77","245474","0.0-39.0-0.0","98935407","wem/bandit_party_1","A3AZJGI9D7C0PD","either","7","10525","","","","","","","","","","","","","","","","","","","","","","","","Equal amounts of money will be added to the pool for <span style='color:red;'>REPUBLICANS</span> and subtracted from the pool for <span style='color:blue;'>DEMOCRATS</span>","","","","","","","attn_check","","","","","","","","","2",""
"","instructions","78","248134","0.0-39.0-1.0-0.0","98935407","wem/bandit_party_1","A3AZJGI9D7C0PD","either","7","1656","","","","","","","","","","","","","","","","","","","","","","","","","","","","","","","","","","","","","","","","","[{""page_index"":0,""viewing_time"":1655}]"
"","survey-multi-choice-replacement","79","253518","0.0-39.1-0.1","98935407","wem/bandit_party_1","A3AZJGI9D7C0PD","either","7","4371","","","","","","","","","","","","","","","","","","","","","","","","Equal amounts of money will be added to the pool for <span style='color:red;'>REPUBLICANS</span> and subtracted from the pool for <span style='color:blue;'>DEMOCRATS</span>","","","","","","","attn_check","","","","","","","","","2",""
"","instructions","80","255525","0.0-39.1-1.1-0.1","98935407","wem/bandit_party_1","A3AZJGI9D7C0PD","either","7","1001","","","","","","","","","","","","","","","","","","","","","","","","","","","","","","","","","","","","","","","","","[{""page_index"":0,""viewing_time"":1001}]"
"","survey-multi-choice-replacement","81","258940","0.0-39.2-0.2","98935407","wem/bandit_party_1","A3AZJGI9D7C0PD","either","7","2406","","","","","","","","","","","","","","","","","","","","","","","","Money will be added to the pool for <span style='color:red;'>REPUBLICANS</span>","","","","","","","attn_check","","","","","","","","","0",""
"","survey-multi-choice-replacement","82","263053","0.0-40.0-0.0","98935407","wem/bandit_party_1","A3AZJGI9D7C0PD","either","7","3055","","","","","","","","","","","","","","","","","","","","","","","","Money will be added to the pool for <span style='color:red;'>REPUBLICANS</span>","","","","","","","attn_check","","","","","","","","","0",""
"","instructions","83","265035","0.0-40.0-1.0-0.0","98935407","wem/bandit_party_1","A3AZJGI9D7C0PD","either","7","979","","","","","","","","","","","","","","","","","","","","","","","","","","","","","","","","","","","","","","","","","[{""page_index"":0,""viewing_time"":978}]"
"","survey-multi-choice-replacement","84","268100","0.0-40.1-0.1","98935407","wem/bandit_party_1","A3AZJGI9D7C0PD","either","7","2057","","","","","","","","","","","","","","","","","","","","","","","","Money will be subtracted from the pool for <span style='color:blue;'>DEMOCRATS</span>","","","","","","","attn_check","","","","","","","","","1",""
"","instructions","85","270179","0.0-40.1-1.1-0.1","98935407","wem/bandit_party_1","A3AZJGI9D7C0PD","either","7","1074","","","","","","","","","","","","","","","","","","","","","","","","","","","","","","","","","","","","","","","","","[{""page_index"":0,""viewing_time"":1073}]"
"","survey-multi-choice-replacement","86","273011","0.0-40.2-0.2","98935407","wem/bandit_party_1","A3AZJGI9D7C0PD","either","7","1821","","","","","","","","","","","","","","","","","","","","","","","","No money will be added to either pool","","","","","","","attn_check","","","","","","","","","3",""
"","instructions","87","274954","0.0-40.2-1.2-0.2","98935407","wem/bandit_party_1","A3AZJGI9D7C0PD","either","7","937","","","","","","","","","","","","","","","","","","","","","","","","","","","","","","","","","","","","","","","","","[{""page_index"":0,""viewing_time"":936}]"
"","survey-multi-choice-replacement","88","278154","0.0-40.3-0.3","98935407","wem/bandit_party_1","A3AZJGI9D7C0PD","either","7","2120","","","","","","","","","","","","","","","","","","","","","","","","Money will be added to the pool for <span style='color:red;'>REPUBLICANS</span>","","","","","","","attn_check","","","","","","","","","0",""
"","instructions","89","280016","0.0-40.3-1.3-0.3","98935407","wem/bandit_party_1","A3AZJGI9D7C0PD","either","7","859","","","","","","","","","","","","","","","","","","","","","","","","","","","","","","","","","","","","","","","","","[{""page_index"":0,""viewing_time"":858}]"
"","survey-multi-choice-replacement","90","282681","0.0-40.4-0.4","98935407","wem/bandit_party_1","A3AZJGI9D7C0PD","either","7","1656","","","","","","","","","","","","","","","","","","","","","","","","Equal amounts of money will be added to the pool for <span style='color:red;'>REPUBLICANS</span> and subtracted from the pool for <span style='color:blue;'>DEMOCRATS</span>","","","","","","","attn_check","","","","","","","","","2",""
"","survey-multi-choice-replacement","91","286897","0.0-41.0-0.0","98935407","wem/bandit_party_1","A3AZJGI9D7C0PD","either","7","3205","","","","","","","","","","","","","","","","","","","","","","","","No money will be added to either pool","","","","","","","attn_check","","","","","","","","","3",""
"","bandit","92","292327","0.0-42.0-0.0","98935407","wem/bandit_party_1","A3AZJGI9D7C0PD","either","7","2918","","","","","","","0","0","1","","0.01738065524","0.6","0.2","0.4","0.8","0.01738065524","0.1952616071","0.06530018083","0.1480066451","","","","","","","","","","","","","","72","H","0","img/none_selected.jpg","","1","main_expt","",""
"","bandit","93","294377","0.0-43.0-0.0","98935407","wem/bandit_party_1","A3AZJGI9D7C0PD","either","7","544","","","","","","","0","0","1","","0.1652234336","0.6","0.2","0.4","0.8","0.0196943787","0.1652234336","0.1011701763","0.1053714073","","","","","","","","","","","","","","74","J","1","","","2","main_expt","",""
"","bandit","94","296173","0.0-44.0-0.0","98935407","wem/bandit_party_1","A3AZJGI9D7C0PD","either","7","287","","","","","","","0","0","1","0.09486719381","","0.6","0.2","0.4","0.8","","","","","0.01678573497","0.1347382479","0.09486719381","0.1460078221","","","","","","","","","","75","K","2","","","3","main_expt","",""
"","bandit","95","297851","0.0-45.0-0.0","98935407","wem/bandit_party_1","A3AZJGI9D7C0PD","either","7","169","","","","","","","0","0","1","0.1866138214","","0.6","0.2","0.4","0.8","","","","","0.02981965743","0.1684625442","0.06705802814","0.1866138214","","","","","","","","","","76","L","3","","","4","main_expt","",""
"","bandit","96","299696","0.0-46.0-0.0","98935407","wem/bandit_party_1","A3AZJGI9D7C0PD","either","7","337","","","","","","","0","0","1","","0.02600208211","0.6","0.2","0.4","0.8","0.02600208211","0.1792029032","0.0822298525","0.2445348717","","","","","","","","","","","","","","72","H","0","img/none_selected.jpg","","5","main_expt","",""
"","bandit","97","301527","0.0-47.0-0.0","98935407","wem/bandit_party_1","A3AZJGI9D7C0PD","either","7","322","","","","","","","0","1","0","","0.2153873139","0.6","0.2","0.4","0.8","0.02332436933","0.2153873139","0.09162209411","0.2546962146","","","","","","","","","","","","","","74","J","1","","","6","main_expt","",""
"","bandit","98","303419","0.0-48.0-0.0","98935407","wem/bandit_party_1","A3AZJGI9D7C0PD","either","7","380","","","","","","","0","0","1","","0.1757762721","0.6","0.2","0.4","0.8","0.02864040813","0.1757762721","0.1028820098","0.2344841702","","","","","","","","","","","","","","74","J","1","","","7","main_expt","",""
"","bandit","99","305192","0.0-49.0-0.0","98935407","wem/bandit_party_1","A3AZJGI9D7C0PD","either","7","267","","","","","","","0","0","1","","0.1532270122","0.6","0.2","0.4","0.8","0.02951264166","0.2241229746","0.1532270122","0.2473344203","","","","","","","","","","","","","","75","K","2","","","8","main_expt","",""
"","bandit","100","307050","0.0-50.0-0.0","98935407","wem/bandit_party_1","A3AZJGI9D7C0PD","either","7","347","","","","","","","0","0","1","0.2131450397","","0.6","0.2","0.4","0.8","","","","","0.02997011939","0.2199426203","0.2131450397","0.2642160399","","","","","","","","","","75","K","2","","","9","main_expt","",""
"","bandit","101","308837","0.0-51.0-0.0","98935407","wem/bandit_party_1","A3AZJGI9D7C0PD","either","7","280","","","","","","","0","0","1","0.02489651457","","0.6","0.2","0.4","0.8","","","","","0.02489651457","0.1520686932","0.2985754635","0.2104627424","","","","","","","","","","72","H","0","img/none_selected.jpg","","10","main_expt","",""
"","bandit","102","310621","0.0-52.0-0.0","98935407","wem/bandit_party_1","A3AZJGI9D7C0PD","either","7","278","","","","","","","0","0","1","0.01651058827","","0.6","0.2","0.4","0.8","","","","","0.01651058827","0.2013349999","0.2924640086","0.219372878","","","","","","","","","","72","H","0","img/none_selected.jpg","","11","main_expt","",""
"","bandit","103","312446","0.0-53.0-0.0","98935407","wem/bandit_party_1","A3AZJGI9D7C0PD","either","7","317","","","","","","","0","0","1","","0.02341729431","0.6","0.2","0.4","0.8","0.02341729431","0.2156800105","0.3264291113","0.2105839871","","","","","","","","","","","","","","72","H","0","img/none_selected.jpg","","12","main_expt","",""
"","bandit","104","314417","0.0-54.0-0.0","98935407","wem/bandit_party_1","A3AZJGI9D7C0PD","either","7","463","","","","","","","0","0","1","","0.3254913314","0.6","0.2","0.4","0.8","0.0257410372","0.1833947696","0.3254913314","0.2511698571","","","","","","","","","","","","","","75","K","2","","","13","main_expt","",""
"","bandit","105","316092","0.0-55.0-0.0","98935407","wem/bandit_party_1","A3AZJGI9D7C0PD","either","7","164","","","","","","","1","0","0","0.2158977649","","0.6","0.2","0.4","0.8","","","","","0.02570014082","0.243643366","0.3428504842","0.2158977649","","","","","","","","","","76","L","3","","","14","main_expt","",""
"","bandit","106","317942","0.0-56.0-0.0","98935407","wem/bandit_party_1","A3AZJGI9D7C0PD","either","7","331","","","","","","","0","1","0","","0.2762480727","0.6","0.2","0.4","0.8","0.04268316416","0.2265365198","0.3244047679","0.2762480727","","","","","","","","","","","","","","76","L","3","","","15","main_expt","",""
"","bandit","107","319828","0.0-57.0-0.0","98935407","wem/bandit_party_1","A3AZJGI9D7C0PD","either","7","379","","","","","","","0","0","1","0.3202890724","","0.6","0.2","0.4","0.8","","","","","0.04667408308","0.2484951132","0.3025313629","0.3202890724","","","","","","","","","","76","L","3","","","16","main_expt","",""
"","bandit","108","321689","0.0-58.0-0.0","98935407","wem/bandit_party_1","A3AZJGI9D7C0PD","either","7","351","","","","","","","0","0","1","","0.3291216938","0.6","0.2","0.4","0.8","0.0506688767","0.2570267238","0.3291216938","0.3680552247","","","","","","","","","","","","","","75","K","2","","","17","main_expt","",""
"","bandit","109","323479","0.0-59.0-0.0","98935407","wem/bandit_party_1","A3AZJGI9D7C0PD","either","7","281","","","","","","","0","0","1","","0.287418789","0.6","0.2","0.4","0.8","0.02988526167","0.287418789","0.2987881532","0.3968593921","","","","","","","","","","","","","","74","J","1","","","18","main_expt","",""
"","bandit","110","325296","0.0-60.0-0.0","98935407","wem/bandit_party_1","A3AZJGI9D7C0PD","either","7","308","","","","","","","0","0","1","","0.03476350355","0.6","0.2","0.4","0.8","0.03476350355","0.2338710899","0.281207523","0.4192996399","","","","","","","","","","","","","","72","H","0","img/none_selected.jpg","","19","main_expt","",""
"","bandit","111","327153","0.0-61.0-0.0","98935407","wem/bandit_party_1","A3AZJGI9D7C0PD","either","7","346","","","","","","","0","0","1","0.0233687216","","0.6","0.2","0.4","0.8","","","","","0.0233687216","0.2335293464","0.291129981","0.4362768361","","","","","","","","","","72","H","0","img/none_selected.jpg","","20","main_expt","",""
"","bandit","112","329014","0.0-62.0-0.0","98935407","wem/bandit_party_1","A3AZJGI9D7C0PD","either","7","351","","","","","","","1","0","0","0.4599691003","","0.6","0.2","0.4","0.8","","","","","0.01272547494","0.2434826965","0.2729578326","0.4599691003","","","","","","","","","","76","L","3","","","21","main_expt","",""
"","bandit","113","330793","0.0-63.0-0.0","98935407","wem/bandit_party_1","A3AZJGI9D7C0PD","either","7","272","","","","","","","0","0","1","0.44353765","","0.6","0.2","0.4","0.8","","","","","0.01739491555","0.2702300591","0.2805141014","0.44353765","","","","","","","","","","76","L","3","","","22","main_expt","",""
"","bandit","114","332636","0.0-64.0-0.0","98935407","wem/bandit_party_1","A3AZJGI9D7C0PD","either","7","296","","","","","","","0","0","1","","0.3016389313","0.6","0.2","0.4","0.8","0.006692102231","0.2424740502","0.3016389313","0.4105594395","","","","","","","","","","","","","","75","K","2","","","23","main_expt","",""
"","bandit","115","334421","0.0-65.0-0.0","98935407","wem/bandit_party_1","A3AZJGI9D7C0PD","either","7","277","","","","","","","0","0","1","","0.1754503809","0.6","0.2","0.4","0.8","0.01209419849","0.1754503809","0.2475621169","0.4243351486","","","","","","","","","","","","","","74","J","1","","","24","main_expt","",""
"","bandit","116","336100","0.0-66.0-0.0","98935407","wem/bandit_party_1","A3AZJGI9D7C0PD","either","7","168","","","","","","","0","0","1","","0.009734580702","0.6","0.2","0.4","0.8","0.009734580702","0.2023019753","0.2607476102","0.4172780312","","","","","","","","","","","","","","72","H","0","img/none_selected.jpg","","25","main_expt","",""
"","bandit","117","337920","0.0-67.0-0.0","98935407","wem/bandit_party_1","A3AZJGI9D7C0PD","either","7","311","","","","","","","0","0","1","","0.008596148908","0.6","0.2","0.4","0.8","0.008596148908","0.1887270612","0.292589008","0.3981062588","","","","","","","","","","","","","","72","H","0","img/none_selected.jpg","","26","main_expt","",""
"","bandit","118","339732","0.0-68.0-0.0","98935407","wem/bandit_party_1","A3AZJGI9D7C0PD","either","7","306","","","","","","","0","0","1","","0.2978950393","0.6","0.2","0.4","0.8","0.01380650739","0.2526986378","0.2978950393","0.3889188119","","","","","","","","","","","","","","75","K","2","","","27","main_expt","",""
"","bandit","119","341628","0.0-69.0-0.0","98935407","wem/bandit_party_1","A3AZJGI9D7C0PD","either","7","294","","","","","","","0","0","1","","0.2536033627","0.6","0.2","0.4","0.8","0.01160852189","0.2536033627","0.337392419","0.3699095679","","","","","","","","","","","","","","74","J","1","","","28","main_expt","",""
"","bandit","120","343139","0.0-70.0-0.0","98935407","wem/bandit_party_1","A3AZJGI9D7C0PD","either","7","1","","","","","","","1","0","0","0.4087832773","","0.6","0.2","0.4","0.8","","","","","0.02858314752","0.258258936","0.3830759015","0.4087832773","","","","","","","","","","76","L","3","","","29","main_expt","",""
"","bandit","121","344908","0.0-71.0-0.0","98935407","wem/bandit_party_1","A3AZJGI9D7C0PD","either","7","259","","","","","","","0","0","1","","0.4162513677","0.6","0.2","0.4","0.8","0.0265596094","0.3152574144","0.3778881599","0.4162513677","","","","","","","","","","","","","","76","L","3","","","30","main_expt","",""
"","bandit","122","346692","0.0-72.0-0.0","98935407","wem/bandit_party_1","A3AZJGI9D7C0PD","either","7","242","","","","","","","0","0","1","0.43337534","","0.6","0.2","0.4","0.8","","","","","0.02828816112","0.3508579725","0.3585458117","0.43337534","","","","","","","","","","76","L","3","","","31","main_expt","",""
"","bandit","123","348412","0.0-73.0-0.0","98935407","wem/bandit_party_1","A3AZJGI9D7C0PD","either","7","209","","","","","","","1","0","0","0.4399105216","","0.6","0.2","0.4","0.8","","","","","0.03857304495","0.3902021543","0.3511664436","0.4399105216","","","","","","","","","","76","L","3","","","32","main_expt","",""
"","bandit","124","350186","0.0-74.0-0.0","98935407","wem/bandit_party_1","A3AZJGI9D7C0PD","either","7","262","","","","","","","0","0","1","0.3859623535","","0.6","0.2","0.4","0.8","","","","","0.02642959278","0.4112626521","0.3924960189","0.3859623535","","","","","","","","","","76","L","3","","","33","main_expt","",""
"","bandit","125","351998","0.0-75.0-0.0","98935407","wem/bandit_party_1","A3AZJGI9D7C0PD","either","7","262","","","","","","","0","0","1","","0.3912589523","0.6","0.2","0.4","0.8","0.06800028167","0.3912589523","0.3713907517","0.4231921331","","","","","","","","","","","","","","74","J","1","","","34","main_expt","",""
"","bandit","126","353837","0.0-76.0-0.0","98935407","wem/bandit_party_1","A3AZJGI9D7C0PD","either","7","330","","","","","","","0","0","1","0.3929004689","","0.6","0.2","0.4","0.8","","","","","0.05710280771","0.3663646496","0.3929004689","0.3950458867","","","","","","","","","","75","K","2","","","35","main_expt","",""
"","bandit","127","355675","0.0-77.0-0.0","98935407","wem/bandit_party_1","A3AZJGI9D7C0PD","either","7","299","","","","","","","0","1","0","","0.3820467604","0.6","0.2","0.4","0.8","0.07756943076","0.3045225128","0.3820467604","0.4005306787","","","","","","","","","","","","","","75","K","2","","","36","main_expt","",""
"","bandit","128","357510","0.0-78.0-0.0","98935407","wem/bandit_party_1","A3AZJGI9D7C0PD","either","7","324","","","","","","","0","0","1","","0.3948022939","0.6","0.2","0.4","0.8","0.06074629621","0.2806474599","0.3948022939","0.3972735937","","","","","","","","","","","","","","75","K","2","","","37","main_expt","",""
"","bandit","129","359308","0.0-79.0-0.0","98935407","wem/bandit_party_1","A3AZJGI9D7C0PD","either","7","289","","","","","","","0","0","1","","0.3769579019","0.6","0.2","0.4","0.8","0.07063042774","0.3558759705","0.3769579019","0.38339591","","","","","","","","","","","","","","75","K","2","","","38","main_expt","",""
"","bandit","130","361059","0.0-80.0-0.0","98935407","wem/bandit_party_1","A3AZJGI9D7C0PD","either","7","242","","","","","","","1","0","0","0.3906354184","","0.6","0.2","0.4","0.8","","","","","0.06209293178","0.3194138052","0.4030344636","0.3906354184","","","","","","","","","","76","L","3","","","39","main_expt","",""
"","bandit","131","362867","0.0-81.0-0.0","98935407","wem/bandit_party_1","A3AZJGI9D7C0PD","either","7","296","","","","","","","0","0","1","0.3623676206","","0.6","0.2","0.4","0.8","","","","","0.06952578958","0.3549086085","0.3622335218","0.3623676206","","","","","","","","","","76","L","3","","","40","main_expt","",""
"","bandit","132","364667","0.0-82.0-0.0","98935407","wem/bandit_party_1","A3AZJGI9D7C0PD","either","7","289","","","","","","","0","1","0","","0.1291245709","0.6","0.2","0.4","0.8","0.1291245709","0.3452113815","0.3911596719","0.3873704927","","","","","","","","","","","","","","72","H","0","img/none_selected.jpg","","41","main_expt","",""
"","bandit","133","366479","0.0-83.0-0.0","98935407","wem/bandit_party_1","A3AZJGI9D7C0PD","either","7","300","","","","","","","0","0","1","","0.1174523948","0.6","0.2","0.4","0.8","0.1174523948","0.3522960267","0.3921858285","0.359823116","","","","","","","","","","","","","","72","H","0","img/none_selected.jpg","","42","main_expt","",""
"","bandit","134","368265","0.0-84.0-0.0","98935407","wem/bandit_party_1","A3AZJGI9D7C0PD","either","7","277","","","","","","","0","0","1","0.1201484523","","0.6","0.2","0.4","0.8","","","","","0.1201484523","0.3093122096","0.3831213528","0.3710191411","","","","","","","","","","72","H","0","img/none_selected.jpg","","43","main_expt","",""
"","bandit","135","369898","0.0-85.0-0.0","98935407","wem/bandit_party_1","A3AZJGI9D7C0PD","either","7","124","","","","","","","0","0","1","0.3874065465","","0.6","0.2","0.4","0.8","","","","","0.09958360536","0.3026159556","0.3518708159","0.3874065465","","","","","","","","","","76","L","3","","","44","main_expt","",""
"","bandit","136","371626","0.0-86.0-0.0","98935407","wem/bandit_party_1","A3AZJGI9D7C0PD","either","7","217","","","","","","","0","0","1","0.3851533971","","0.6","0.2","0.4","0.8","","","","","0.05173655998","0.3336294247","0.3122870636","0.3851533971","","","","","","","","","","76","L","3","","","45","main_expt","",""
"","bandit","137","373365","0.0-87.0-0.0","98935407","wem/bandit_party_1","A3AZJGI9D7C0PD","either","7","230","","","","","","","0","0","1","0.4055883719","","0.6","0.2","0.4","0.8","","","","","0.05945041096","0.3400222736","0.2635721956","0.4055883719","","","","","","","","","","76","L","3","","","46","main_expt","",""
"","bandit","138","374986","0.0-88.0-0.0","98935407","wem/bandit_party_1","A3AZJGI9D7C0PD","either","7","59","","","","","","","1","0","0","0.2856785865","","0.6","0.2","0.4","0.8","","","","","0.04375763727","0.328707825","0.2856785865","0.3671593179","","","","","","","","","","75","K","2","","","47","main_expt","",""
"","bandit","139","376769","0.0-89.0-0.0","98935407","wem/bandit_party_1","A3AZJGI9D7C0PD","either","7","273","","","","","","","0","0","1","","0.2649087478","0.6","0.2","0.4","0.8","0.0666370861","0.3307690822","0.2649087478","0.3198203038","","","","","","","","","","","","","","75","K","2","","","48","main_expt","",""
"","bandit","140","378647","0.0-90.0-0.0","98935407","wem/bandit_party_1","A3AZJGI9D7C0PD","either","7","300","","","","","","","0","0","1","0.3438067684","","0.6","0.2","0.4","0.8","","","","","0.08266213623","0.3438067684","0.2462979357","0.3111357295","","","","","","","","","","74","J","1","","","49","main_expt","",""
"","bandit","141","380484","0.0-91.0-0.0","98935407","wem/bandit_party_1","A3AZJGI9D7C0PD","either","7","325","","","","","","","0","0","1","0.08795051988","","0.6","0.2","0.4","0.8","","","","","0.08795051988","0.4037002216","0.2490076798","0.3196682981","","","","","","","","","","72","H","0","img/none_selected.jpg","","50","main_expt","",""
"","bandit","142","382286","0.0-92.0-0.0","98935407","wem/bandit_party_1","A3AZJGI9D7C0PD","either","7","290","","","","","","","0","0","1","","0.07533366945","0.6","0.2","0.4","0.8","0.07533366945","0.3557518394","0.305209751","0.3088596379","","","","","","","","","","","","","","72","H","0","img/none_selected.jpg","","51","main_expt","",""
"","bandit","143","384122","0.0-93.0-0.0","98935407","wem/bandit_party_1","A3AZJGI9D7C0PD","either","7","325","","","","","","","0","0","1","","0.06506638851","0.6","0.2","0.4","0.8","0.06506638851","0.3254324358","0.3087204988","0.3060924957","","","","","","","","","","","","","","72","H","0","img/none_selected.jpg","","52","main_expt","",""
"","bandit","144","385961","0.0-94.0-0.0","98935407","wem/bandit_party_1","A3AZJGI9D7C0PD","either","7","331","","","","","","","0","0","1","","0.2984188648","0.6","0.2","0.4","0.8","0.06562792832","0.2952150256","0.2984188648","0.3229319808","","","","","","","","","","","","","","75","K","2","","","53","main_expt","",""
"","bandit","145","387764","0.0-95.0-0.0","98935407","wem/bandit_party_1","A3AZJGI9D7C0PD","either","7","291","","","","","","","0","0","1","","0.300320608","0.6","0.2","0.4","0.8","0.04630081711","0.300320608","0.3353917468","0.3280138586","","","","","","","","","","","","","","74","J","1","","","54","main_expt","",""
"","bandit","146","389389","0.0-96.0-0.0","98935407","wem/bandit_party_1","A3AZJGI9D7C0PD","either","7","113","","","","","","","0","0","1","0.2777260571","","0.6","0.2","0.4","0.8","","","","","0.03868373719","0.2985084879","0.3259144651","0.2777260571","","","","","","","","","","76","L","3","","","55","main_expt","",""
"","bandit","147","391196","0.0-97.0-0.0","98935407","wem/bandit_party_1","A3AZJGI9D7C0PD","either","7","295","","","","","","","0","0","1","0.1791004868","","0.6","0.2","0.4","0.8","","","","","0.06235362297","0.2607009345","0.3259049121","0.1791004868","","","","","","","","","","76","L","3","","","56","main_expt","",""
"","bandit","148","392982","0.0-98.0-0.0","98935407","wem/bandit_party_1","A3AZJGI9D7C0PD","either","7","275","","","","","","","0","0","1","0.2182265394","","0.6","0.2","0.4","0.8","","","","","0.04639461243","0.2565854794","0.3687904078","0.2182265394","","","","","","","","","","76","L","3","","","57","main_expt","",""
"","bandit","149","394775","0.0-99.0-0.0","98935407","wem/bandit_party_1","A3AZJGI9D7C0PD","either","7","284","","","","","","","0","0","1","0.2970860181","","0.6","0.2","0.4","0.8","","","","","0.08954448139","0.319121847","0.3422038875","0.2970860181","","","","","","","","","","76","L","3","","","58","main_expt","",""
"","bandit","150","396579","0.0-100.0-0.0","98935407","wem/bandit_party_1","A3AZJGI9D7C0PD","either","7","291","","","","","","","0","0","1","0.3249685468","","0.6","0.2","0.4","0.8","","","","","0.07390342289","0.3269923399","0.3771421139","0.3249685468","","","","","","","","","","76","L","3","","","59","main_expt","",""
"","bandit","151","398185","0.0-101.0-0.0","98935407","wem/bandit_party_1","A3AZJGI9D7C0PD","either","7","97","","","","","","","0","0","1","","0.3620124399","0.6","0.2","0.4","0.8","0.05801548519","0.3150968823","0.3620124399","0.2931470039","","","","","","","","","","","","","","75","K","2","","","60","main_expt","",""
"","bandit","152","399885","0.0-102.0-0.0","98935407","wem/bandit_party_1","A3AZJGI9D7C0PD","either","7","192","","","","","","","0","0","1","","0.324539239","0.6","0.2","0.4","0.8","0.07333263924","0.324539239","0.3958116198","0.2646536279","","","","","","","","","","","","","","74","J","1","","","61","main_expt","",""
"","bandit","153","401723","0.0-103.0-0.0","98935407","wem/bandit_party_1","A3AZJGI9D7C0PD","either","7","326","","","","","","","0","0","1","0.07563430262","","0.6","0.2","0.4","0.8","","","","","0.07563430262","0.3066306166","0.3615218546","0.242461968","","","","","","","","","","72","H","0","img/none_selected.jpg","","62","main_expt","",""
"","bandit","154","403543","0.0-104.0-0.0","98935407","wem/bandit_party_1","A3AZJGI9D7C0PD","either","7","306","","","","","","","0","0","1","0.06826526778","","0.6","0.2","0.4","0.8","","","","","0.06826526778","0.3068900116","0.3574266064","0.2206683029","","","","","","","","","","72","H","0","img/none_selected.jpg","","63","main_expt","",""
"","bandit","155","405340","0.0-105.0-0.0","98935407","wem/bandit_party_1","A3AZJGI9D7C0PD","either","7","285","","","","","","","0","0","1","0.1175271989","","0.6","0.2","0.4","0.8","","","","","0.1175271989","0.2936494982","0.3541915859","0.2288959862","","","","","","","","","","72","H","0","img/none_selected.jpg","","64","main_expt","",""
"","bandit","156","407133","0.0-106.0-0.0","98935407","wem/bandit_party_1","A3AZJGI9D7C0PD","either","7","283","","","","","","","0","0","1","0.2346523549","","0.6","0.2","0.4","0.8","","","","","0.1273865191","0.290236101","0.3339820985","0.2346523549","","","","","","","","","","76","L","3","","","65","main_expt","",""
"","bandit","157","408984","0.0-107.0-0.0","98935407","wem/bandit_party_1","A3AZJGI9D7C0PD","either","7","341","","","","","","","0","1","0","","0.3195467083","0.6","0.2","0.4","0.8","0.09075088943","0.2512036594","0.3195467083","0.1881688105","","","","","","","","","","","","","","75","K","2","","","66","main_expt","",""
"","bandit","158","410782","0.0-108.0-0.0","98935407","wem/bandit_party_1","A3AZJGI9D7C0PD","either","7","286","","","","","","","0","0","1","0.3477383846","","0.6","0.2","0.4","0.8","","","","","0.08077075725","0.263747572","0.3477383846","0.231043846","","","","","","","","","","75","K","2","","","67","main_expt","",""
"","bandit","159","412714","0.0-109.0-0.0","98935407","wem/bandit_party_1","A3AZJGI9D7C0PD","either","7","382","","","","","","","0","1","0","","0.2892519303","0.6","0.2","0.4","0.8","0.08810311296","0.2892519303","0.3365352069","0.2576664243","","","","","","","","","","","","","","74","J","1","","","68","main_expt","",""
"","bandit","160","414539","0.0-110.0-0.0","98935407","wem/bandit_party_1","A3AZJGI9D7C0PD","either","7","312","","","","","","","0","0","1","0.2383664846","","0.6","0.2","0.4","0.8","","","","","0.1260156682","0.2383664846","0.3148812039","0.2183283259","","","","","","","","","","74","J","1","","","69","main_expt","",""
"","bandit","161","416413","0.0-111.0-0.0","98935407","wem/bandit_party_1","A3AZJGI9D7C0PD","either","7","362","","","","","","","0","0","1","","0.08773951932","0.6","0.2","0.4","0.8","0.08773951932","0.2497111545","0.3154014692","0.2260484764","","","","","","","","","","","","","","72","H","0","img/none_selected.jpg","","70","main_expt","",""
"","bandit","162","418241","0.0-112.0-0.0","98935407","wem/bandit_party_1","A3AZJGI9D7C0PD","either","7","318","","","","","","","0","0","1","0.1154304285","","0.6","0.2","0.4","0.8","","","","","0.1154304285","0.2095843002","0.219815459","0.3196469567","","","","","","","","","","72","H","0","img/none_selected.jpg","","71","main_expt","",""
"","bandit","163","420069","0.0-113.0-0.0","98935407","wem/bandit_party_1","A3AZJGI9D7C0PD","either","7","314","","","","","","","0","0","1","0.10097247","","0.6","0.2","0.4","0.8","","","","","0.10097247","0.1972488467","0.2623730272","0.3644141189","","","","","","","","","","72","H","0","img/none_selected.jpg","","72","main_expt","",""
"","bandit","164","421902","0.0-114.0-0.0","98935407","wem/bandit_party_1","A3AZJGI9D7C0PD","either","7","322","","","","","","","0","0","1","0.4081842109","","0.6","0.2","0.4","0.8","","","","","0.0746930591","0.15494396","0.2639805735","0.4081842109","","","","","","","","","","76","L","3","","","73","main_expt","",""
"","bandit","165","423684","0.0-115.0-0.0","98935407","wem/bandit_party_1","A3AZJGI9D7C0PD","either","7","268","","","","","","","1","0","0","0.4506698749","","0.6","0.2","0.4","0.8","","","","","0.1124392477","0.1324790415","0.2770925356","0.4506698749","","","","","","","","","","76","L","3","","","74","main_expt","",""
"","bandit","166","425520","0.0-116.0-0.0","98935407","wem/bandit_party_1","A3AZJGI9D7C0PD","either","7","321","","","","","","","0","0","1","","0.454520075","0.6","0.2","0.4","0.8","0.113494578","0.179195356","0.2796652475","0.454520075","","","","","","","","","","","","","","76","L","3","","","75","main_expt","",""
"","bandit","167","427325","0.0-117.0-0.0","98935407","wem/bandit_party_1","A3AZJGI9D7C0PD","either","7","296","","","","","","","0","0","1","","0.3153427244","0.6","0.2","0.4","0.8","0.1469344428","0.215808919","0.3153427244","0.466199952","","","","","","","","","","","","","","75","K","2","","","76","main_expt","",""
"","bandit","168","429121","0.0-118.0-0.0","98935407","wem/bandit_party_1","A3AZJGI9D7C0PD","either","7","284","","","","","","","1","0","0","0.3676911864","","0.6","0.2","0.4","0.8","","","","","0.2152215887","0.2312347408","0.3676911864","0.4402141775","","","","","","","","","","75","K","2","","","77","main_expt","",""
"","bandit","169","430957","0.0-119.0-0.0","98935407","wem/bandit_party_1","A3AZJGI9D7C0PD","either","7","289","","","","","","","0","0","1","0.4525957793","","0.6","0.2","0.4","0.8","","","","","0.2055177618","0.2197025874","0.3434277392","0.4525957793","","","","","","","","","","76","L","3","","","78","main_expt","",""
"","bandit","170","432776","0.0-120.0-0.0","98935407","wem/bandit_party_1","A3AZJGI9D7C0PD","either","7","306","","","","","","","0","1","0","","0.2227420924","0.6","0.2","0.4","0.8","0.222262525","0.2227420924","0.3758616161","0.4630799716","","","","","","","","","","","","","","74","J","1","","","79","main_expt","",""
"","bandit","171","434597","0.0-121.0-0.0","98935407","wem/bandit_party_1","A3AZJGI9D7C0PD","either","7","305","","","","","","","0","0","1","","0.2283057493","0.6","0.2","0.4","0.8","0.2700860438","0.2283057493","0.3862393514","0.423693353","","","","","","","","","","","","","","74","J","1","","","80","main_expt","",""
"","bandit","172","436315","0.0-122.0-0.0","98935407","wem/bandit_party_1","A3AZJGI9D7C0PD","either","7","209","","","","","","","0","0","1","","0.2642688004","0.6","0.2","0.4","0.8","0.2642688004","0.2721525977","0.3593770893","0.4319112677","","","","","","","","","","","","","","72","H","0","img/none_selected.jpg","","81","main_expt","",""
"","bandit","173","438137","0.0-123.0-0.0","98935407","wem/bandit_party_1","A3AZJGI9D7C0PD","either","7","309","","","","","","","0","0","1","0.2824164754","","0.6","0.2","0.4","0.8","","","","","0.2824164754","0.2850237184","0.4035110645","0.441827487","","","","","","","","","","72","H","0","img/none_selected.jpg","","82","main_expt","",""
"","bandit","174","439922","0.0-124.0-0.0","98935407","wem/bandit_party_1","A3AZJGI9D7C0PD","either","7","276","","","","","","","0","0","1","","0.4288861504","0.6","0.2","0.4","0.8","0.2819095575","0.3236436683","0.3719627038","0.4288861504","","","","","","","","","","","","","","76","L","3","","","83","main_expt","",""
"","bandit","175","441676","0.0-125.0-0.0","98935407","wem/bandit_party_1","A3AZJGI9D7C0PD","either","7","237","","","","","","","0","0","1","","0.3349288927","0.6","0.2","0.4","0.8","0.2589745902","0.3339638593","0.3349288927","0.4350385517","","","","","","","","","","","","","","75","K","2","","","84","main_expt","",""
"","bandit","176","443452","0.0-126.0-0.0","98935407","wem/bandit_party_1","A3AZJGI9D7C0PD","either","7","268","","","","","","","0","1","0","","0.3795022601","0.6","0.2","0.4","0.8","0.3626504113","0.3795022601","0.3247899262","0.4255505645","","","","","","","","","","","","","","74","J","1","","","85","main_expt","",""
"","bandit","177","445269","0.0-127.0-0.0","98935407","wem/bandit_party_1","A3AZJGI9D7C0PD","either","7","303","","","","","","","0","0","1","0.3835523064","","0.6","0.2","0.4","0.8","","","","","0.3598915268","0.3835523064","0.3443557019","0.4330938692","","","","","","","","","","74","J","1","","","86","main_expt","",""
"","bandit","178","447129","0.0-128.0-0.0","98935407","wem/bandit_party_1","A3AZJGI9D7C0PD","either","7","351","","","","","","","0","0","1","0.3433052933","","0.6","0.2","0.4","0.8","","","","","0.3433052933","0.3772514457","0.3648776167","0.4548398529","","","","","","","","","","72","H","0","img/none_selected.jpg","","87","main_expt","",""
"","bandit","179","448897","0.0-129.0-0.0","98935407","wem/bandit_party_1","A3AZJGI9D7C0PD","either","7","257","","","","","","","0","1","0","","0.4022938878","0.6","0.2","0.4","0.8","0.4022938878","0.3766830519","0.3609631839","0.4493124031","","","","","","","","","","","","","","72","H","0","img/none_selected.jpg","","88","main_expt","",""
"","bandit","180","450764","0.0-130.0-0.0","98935407","wem/bandit_party_1","A3AZJGI9D7C0PD","either","7","354","","","","","","","0","0","1","","0.4161110063","0.6","0.2","0.4","0.8","0.4141493151","0.3537755119","0.3636167192","0.4161110063","","","","","","","","","","","","","","76","L","3","","","89","main_expt","",""
"","bandit","181","452580","0.0-131.0-0.0","98935407","wem/bandit_party_1","A3AZJGI9D7C0PD","either","7","306","","","","","","","0","0","1","","0.4136124289","0.6","0.2","0.4","0.8","0.4136124289","0.3014761449","0.3563441379","0.405260856","","","","","","","","","","","","","","72","H","0","img/none_selected.jpg","","90","main_expt","",""
"","bandit","182","454396","0.0-132.0-0.0","98935407","wem/bandit_party_1","A3AZJGI9D7C0PD","either","7","303","","","","","","","0","1","0","","0.4184852842","0.6","0.2","0.4","0.8","0.4184852842","0.2694038268","0.3389138503","0.3827048226","","","","","","","","","","","","","","72","H","0","img/none_selected.jpg","","91","main_expt","",""
"","bandit","183","456154","0.0-133.0-0.0","98935407","wem/bandit_party_1","A3AZJGI9D7C0PD","either","7","247","","","","","","","0","0","1","","0.3552182969","0.6","0.2","0.4","0.8","0.4456808576","0.2651536323","0.3263360165","0.3552182969","","","","","","","","","","","","","","76","L","3","","","92","main_expt","",""
"","bandit","184","458078","0.0-134.0-0.0","98935407","wem/bandit_party_1","A3AZJGI9D7C0PD","either","7","415","","","","","","","1","0","0","0.3286897504","","0.6","0.2","0.4","0.8","","","","","0.4355219805","0.1997208586","0.2844131911","0.3286897504","","","","","","","","","","76","L","3","","","93","main_expt","",""
"","bandit","185","459901","0.0-135.0-0.0","98935407","wem/bandit_party_1","A3AZJGI9D7C0PD","either","7","307","","","","","","","1","0","0","0.3422490236","","0.6","0.2","0.4","0.8","","","","","0.4609821192","0.2442555344","0.2978465223","0.3422490236","","","","","","","","","","76","L","3","","","94","main_expt","",""
"","bandit","186","461691","0.0-136.0-0.0","98935407","wem/bandit_party_1","A3AZJGI9D7C0PD","either","7","281","","","","","","","0","0","1","0.3160161054","","0.6","0.2","0.4","0.8","","","","","0.4419374505","0.2638839348","0.2638723705","0.3160161054","","","","","","","","","","76","L","3","","","95","main_expt","",""
"","bandit","187","463506","0.0-137.0-0.0","98935407","wem/bandit_party_1","A3AZJGI9D7C0PD","either","7","303","","","","","","","0","0","1","0.2945538732","","0.6","0.2","0.4","0.8","","","","","0.39438674","0.2265245807","0.2276010735","0.2945538732","","","","","","","","","","76","L","3","","","96","main_expt","",""
"","bandit","188","465328","0.0-138.0-0.0","98935407","wem/bandit_party_1","A3AZJGI9D7C0PD","either","7","308","","","","","","","1","0","0","0.393563827","","0.6","0.2","0.4","0.8","","","","","0.3617668419","0.1969189177","0.2045446072","0.393563827","","","","","","","","","","76","L","3","","","97","main_expt","",""
"","bandit","189","467160","0.0-139.0-0.0","98935407","wem/bandit_party_1","A3AZJGI9D7C0PD","either","7","320","","","","","","","0","0","1","0.4046254927","","0.6","0.2","0.4","0.8","","","","","0.3737913853","0.1761144245","0.2436418828","0.4046254927","","","","","","","","","","76","L","3","","","98","main_expt","",""
"","bandit","190","469073","0.0-140.0-0.0","98935407","wem/bandit_party_1","A3AZJGI9D7C0PD","either","7","402","","","","","","","0","0","1","0.4221129479","","0.6","0.2","0.4","0.8","","","","","0.4221129479","0.1211630765","0.2473144087","0.3659012549","","","","","","","","","","72","H","0","img/none_selected.jpg","","99","main_expt","",""
"","bandit","191","470847","0.0-141.0-0.0","98935407","wem/bandit_party_1","A3AZJGI9D7C0PD","either","7","261","","","","","","","1","0","0","0.3857893684","","0.6","0.2","0.4","0.8","","","","","0.3857893684","0.1257326749","0.2707360286","0.400368336","","","","","","","","","","72","H","0","img/none_selected.jpg","","100","main_expt","",""
"","bandit","192","472714","0.0-142.0-0.0","98935407","wem/bandit_party_1","A3AZJGI9D7C0PD","either","7","250","","","","","","","0","0","1","0.09975532208","","0.6","0.2","0.4","0.8","","","","","0.3635527264","0.09975532208","0.3250409822","0.4367931528","","","","","","","","","","74","J","1","","","101","main_expt","",""
"","bandit","193","474481","0.0-143.0-0.0","98935407","wem/bandit_party_1","A3AZJGI9D7C0PD","either","7","256","","","","","","","0","1","0","","0.1127414424","0.6","0.2","0.4","0.8","0.3738375489","0.1127414424","0.3088580598","0.4371155326","","","","","","","","","","","","","","74","J","1","","","102","main_expt","",""
"","bandit","194","476232","0.0-144.0-0.0","98935407","wem/bandit_party_1","A3AZJGI9D7C0PD","either","7","235","","","","","","","0","0","1","","0.1232600734","0.6","0.2","0.4","0.8","0.3860163181","0.1232600734","0.2901001995","0.388648264","","","","","","","","","","","","","","74","J","1","","","103","main_expt","",""
"","bandit","195","478209","0.0-145.0-0.0","98935407","wem/bandit_party_1","A3AZJGI9D7C0PD","either","7","468","","","","","","","0","0","1","","0.08156843846","0.6","0.2","0.4","0.8","0.390692362","0.08156843846","0.309645936","0.3718469433","","","","","","","","","","","","","","74","J","1","","","104","main_expt","",""
"","bandit","196","479734","0.0-146.0-0.0","98935407","wem/bandit_party_1","A3AZJGI9D7C0PD","either","7","17","","","","","","","1","0","0","0.3386062745","","0.6","0.2","0.4","0.8","","","","","0.4139082553","0.08245659199","0.3386062745","0.3920304628","","","","","","","","","","75","K","2","","","105","main_expt","",""
"","bandit","197","481533","0.0-147.0-0.0","98935407","wem/bandit_party_1","A3AZJGI9D7C0PD","either","7","282","","","","","","","0","0","1","0.3827539061","","0.6","0.2","0.4","0.8","","","","","0.3295275825","0.1276639339","0.3827539061","0.3733497125","","","","","","","","","","75","K","2","","","106","main_expt","",""
"","bandit","198","483342","0.0-148.0-0.0","98935407","wem/bandit_party_1","A3AZJGI9D7C0PD","either","7","298","","","","","","","0","0","1","","0.3401355396","0.6","0.2","0.4","0.8","0.3499712774","0.1812689745","0.3401355396","0.3878439861","","","","","","","","","","","","","","75","K","2","","","107","main_expt","",""
"","bandit","199","485116","0.0-149.0-0.0","98935407","wem/bandit_party_1","A3AZJGI9D7C0PD","either","7","264","","","","","","","0","0","1","","0.3258039352","0.6","0.2","0.4","0.8","0.2666891207","0.2187982558","0.3258039352","0.3529013302","","","","","","","","","","","","","","75","K","2","","","108","main_expt","",""
"","bandit","200","486978","0.0-150.0-0.0","98935407","wem/bandit_party_1","A3AZJGI9D7C0PD","either","7","295","","","","","","","0","1","0","","0.3457683734","0.6","0.2","0.4","0.8","0.2575067634","0.2201216928","0.374919859","0.3457683734","","","","","","","","","","","","","","76","L","3","","","109","main_expt","",""
"","bandit","201","488645","0.0-151.0-0.0","98935407","wem/bandit_party_1","A3AZJGI9D7C0PD","either","7","155","","","","","","","0","0","1","0.3316873257","","0.6","0.2","0.4","0.8","","","","","0.2664913793","0.1789817232","0.3656186065","0.3316873257","","","","","","","","","","76","L","3","","","110","main_expt","",""
"","bandit","202","490416","0.0-152.0-0.0","98935407","wem/bandit_party_1","A3AZJGI9D7C0PD","either","7","261","","","","","","","1","0","0","0.3434945318","","0.6","0.2","0.4","0.8","","","","","0.2233446911","0.2404947452","0.3649701027","0.3434945318","","","","","","","","","","76","L","3","","","111","main_expt","",""
"","bandit","203","492161","0.0-153.0-0.0","98935407","wem/bandit_party_1","A3AZJGI9D7C0PD","either","7","234","","","","","","","0","0","1","0.2729480053","","0.6","0.2","0.4","0.8","","","","","0.2170082082","0.2959558532","0.3371716456","0.2729480053","","","","","","","","","","76","L","3","","","112","main_expt","",""
"","bandit","204","493934","0.0-154.0-0.0","98935407","wem/bandit_party_1","A3AZJGI9D7C0PD","either","7","261","","","","","","","0","0","1","0.2579672073","","0.6","0.2","0.4","0.8","","","","","0.1912277411","0.2966985553","0.2587224119","0.2579672073","","","","","","","","","","76","L","3","","","113","main_expt","",""
"","bandit","205","495773","0.0-155.0-0.0","98935407","wem/bandit_party_1","A3AZJGI9D7C0PD","either","7","323","","","","","","","0","0","1","0.1691995451","","0.6","0.2","0.4","0.8","","","","","0.1691995451","0.3289730608","0.2384324947","0.24654084","","","","","","","","","","72","H","0","img/none_selected.jpg","","114","main_expt","",""
"","bandit","206","497546","0.0-156.0-0.0","98935407","wem/bandit_party_1","A3AZJGI9D7C0PD","either","7","260","","","","","","","1","0","0","0.1263730162","","0.6","0.2","0.4","0.8","","","","","0.1263730162","0.2783705844","0.2705755989","0.246649757","","","","","","","","","","72","H","0","img/none_selected.jpg","","115","main_expt","",""
"","bandit","207","499376","0.0-157.0-0.0","98935407","wem/bandit_party_1","A3AZJGI9D7C0PD","either","7","318","","","","","","","0","1","0","","0.1130092975","0.6","0.2","0.4","0.8","0.1130092975","0.2990421824","0.2666822","0.2190482835","","","","","","","","","","","","","","72","H","0","img/none_selected.jpg","","116","main_expt","",""
"","bandit","208","501211","0.0-158.0-0.0","98935407","wem/bandit_party_1","A3AZJGI9D7C0PD","either","7","325","","","","","","","1","0","0","0.1317362661","","0.6","0.2","0.4","0.8","","","","","0.1317362661","0.3214730448","0.2664749026","0.1860086181","","","","","","","","","","72","H","0","img/none_selected.jpg","","117","main_expt","",""
"","bandit","209","502996","0.0-159.0-0.0","98935407","wem/bandit_party_1","A3AZJGI9D7C0PD","either","7","274","","","","","","","0","0","1","0.08460291254","","0.6","0.2","0.4","0.8","","","","","0.08460291254","0.3996160597","0.285497096","0.1765749983","","","","","","","","","","72","H","0","img/none_selected.jpg","","118","main_expt","",""
"","bandit","210","504778","0.0-160.0-0.0","98935407","wem/bandit_party_1","A3AZJGI9D7C0PD","either","7","271","","","","","","","0","0","1","0.09168363065","","0.6","0.2","0.4","0.8","","","","","0.09168363065","0.4143362638","0.3004427434","0.1840588368","","","","","","","","","","72","H","0","img/none_selected.jpg","","119","main_expt","",""
"","bandit","211","506625","0.0-161.0-0.0","98935407","wem/bandit_party_1","A3AZJGI9D7C0PD","either","7","337","","","","","","","0","0","1","0.06729372802","","0.6","0.2","0.4","0.8","","","","","0.06729372802","0.372340151","0.2419855731","0.1988357929","","","","","","","","","","72","H","0","img/none_selected.jpg","","120","main_expt","",""
"","bandit","212","508472","0.0-162.0-0.0","98935407","wem/bandit_party_1","A3AZJGI9D7C0PD","either","7","332","","","","","","","0","0","1","","0.3910424524","0.6","0.2","0.4","0.8","0.08346408207","0.3910424524","0.3054132847","0.2315674","","","","","","","","","","","","","","74","J","1","","","121","main_expt","",""
"","bandit","213","510138","0.0-163.0-0.0","98935407","wem/bandit_party_1","A3AZJGI9D7C0PD","either","7","155","","","","","","","0","0","1","0.2473202095","","0.6","0.2","0.4","0.8","","","","","0.05632743158","0.3813410711","0.2473202095","0.2041322171","","","","","","","","","","75","K","2","","","122","main_expt","",""
"","bandit","214","511886","0.0-164.0-0.0","98935407","wem/bandit_party_1","A3AZJGI9D7C0PD","either","7","238","","","","","","","0","0","1","0.1945268209","","0.6","0.2","0.4","0.8","","","","","0.05516745574","0.4247291795","0.2909195989","0.1945268209","","","","","","","","","","76","L","3","","","123","main_expt","",""
"","bandit","215","514534","0.0-165.0-0.0","98935407","wem/bandit_party_1","A3AZJGI9D7C0PD","either","7","1136","","","","","","","0","0","1","0.2206749142","","0.6","0.2","0.4","0.8","","","","","0.05528311039","0.4311179713","0.3493750294","0.2206749142","","","","","","","","","","76","L","3","","","124","main_expt","",""
"","bandit","216","516219","0.0-166.0-0.0","98935407","wem/bandit_party_1","A3AZJGI9D7C0PD","either","7","175","","","","","","","0","0","1","0.3883668019","","0.6","0.2","0.4","0.8","","","","","0.07149807259","0.4085782939","0.3883668019","0.212012295","","","","","","","","","","75","K","2","","","125","main_expt","",""
"","bandit","217","517851","0.0-167.0-0.0","98935407","wem/bandit_party_1","A3AZJGI9D7C0PD","either","7","118","","","","","","","0","1","0","","0.4110861309","0.6","0.2","0.4","0.8","0.1137803622","0.4110861309","0.3888129637","0.1656684785","","","","","","","","","","","","","","74","J","1","","","126","main_expt","",""
"","bandit","218","519707","0.0-168.0-0.0","98935407","wem/bandit_party_1","A3AZJGI9D7C0PD","either","7","347","","","","","","","0","0","1","","0.4214671818","0.6","0.2","0.4","0.8","0.1003054442","0.4214671818","0.3659195129","0.1685301808","","","","","","","","","","","","","","74","J","1","","","127","main_expt","",""
"","bandit","219","521555","0.0-169.0-0.0","98935407","wem/bandit_party_1","A3AZJGI9D7C0PD","either","7","338","","","","","","","0","0","1","","0.36889317","0.6","0.2","0.4","0.8","0.1378169536","0.36889317","0.3689954399","0.1703551811","","","","","","","","","","","","","","74","J","1","","","128","main_expt","",""
"","bandit","220","523260","0.0-170.0-0.0","98935407","wem/bandit_party_1","A3AZJGI9D7C0PD","either","7","195","","","","","","","1","0","0","0.3600340942","","0.6","0.2","0.4","0.8","","","","","0.1333081235","0.3840267129","0.3600340942","0.1624753709","","","","","","","","","","75","K","2","","","129","main_expt","",""
"","bandit","221","525101","0.0-171.0-0.0","98935407","wem/bandit_party_1","A3AZJGI9D7C0PD","either","7","328","","","","","","","0","1","0","","0.3580797835","0.6","0.2","0.4","0.8","0.1682212827","0.3809677701","0.3580797835","0.2335662737","","","","","","","","","","","","","","75","K","2","","","130","main_expt","",""
"","bandit","222","526870","0.0-172.0-0.0","98935407","wem/bandit_party_1","A3AZJGI9D7C0PD","either","7","259","","","","","","","1","0","0","0.3785893338","","0.6","0.2","0.4","0.8","","","","","0.2193829955","0.3681933818","0.3785893338","0.240441026","","","","","","","","","","75","K","2","","","131","main_expt","",""
"","bandit","223","528675","0.0-173.0-0.0","98935407","wem/bandit_party_1","A3AZJGI9D7C0PD","either","7","291","","","","","","","0","1","0","","0.3764735404","0.6","0.2","0.4","0.8","0.2693349046","0.3664045944","0.3764735404","0.2266699971","","","","","","","","","","","","","","75","K","2","","","132","main_expt","",""
"","bandit","224","530508","0.0-174.0-0.0","98935407","wem/bandit_party_1","A3AZJGI9D7C0PD","either","7","322","","","","","","","0","0","1","","0.3433534211","0.6","0.2","0.4","0.8","0.2576546077","0.4046437197","0.3433534211","0.1994193025","","","","","","","","","","","","","","75","K","2","","","133","main_expt","",""
"","bandit","225","532303","0.0-175.0-0.0","98935407","wem/bandit_party_1","A3AZJGI9D7C0PD","either","7","283","","","","","","","0","0","1","0.1891464922","","0.6","0.2","0.4","0.8","","","","","0.2412372273","0.364490756","0.3606247271","0.1891464922","","","","","","","","","","76","L","3","","","134","main_expt","",""
"","bandit","226","534137","0.0-176.0-0.0","98935407","wem/bandit_party_1","A3AZJGI9D7C0PD","either","7","320","","","","","","","0","0","1","0.1614798668","","0.6","0.2","0.4","0.8","","","","","0.2198641054","0.311914316","0.3268624306","0.1614798668","","","","","","","","","","76","L","3","","","135","main_expt","",""
"","bandit","227","535898","0.0-177.0-0.0","98935407","wem/bandit_party_1","A3AZJGI9D7C0PD","either","7","249","","","","","","","0","0","1","0.2854606769","","0.6","0.2","0.4","0.8","","","","","0.2504132697","0.2653901568","0.2854606769","0.1880386222","","","","","","","","","","75","K","2","","","136","main_expt","",""
"","bandit","228","537694","0.0-178.0-0.0","98935407","wem/bandit_party_1","A3AZJGI9D7C0PD","either","7","245","","","","","","","0","0","1","","0.2413295316","0.6","0.2","0.4","0.8","0.1912230989","0.2413295316","0.3311747399","0.1961818793","","","","","","","","","","","","","","74","J","1","","","137","main_expt","",""
"","bandit","229","539282","0.0-179.0-0.0","98935407","wem/bandit_party_1","A3AZJGI9D7C0PD","either","7","76","","","","","","","0","0","1","0.1576256809","","0.6","0.2","0.4","0.8","","","","","0.1576256809","0.2060295423","0.2570785188","0.2857678963","","","","","","","","","","72","H","0","img/none_selected.jpg","","138","main_expt","",""
"","bandit","230","541090","0.0-180.0-0.0","98935407","wem/bandit_party_1","A3AZJGI9D7C0PD","either","7","297","","","","","","","0","0","1","0.1019788138","","0.6","0.2","0.4","0.8","","","","","0.1019788138","0.1809645164","0.2858060749","0.3449131854","","","","","","","","","","72","H","0","img/none_selected.jpg","","139","main_expt","",""
"","bandit","231","543048","0.0-181.0-0.0","98935407","wem/bandit_party_1","A3AZJGI9D7C0PD","either","7","392","","","","","","","0","0","1","0.2537716732","","0.6","0.2","0.4","0.8","","","","","0.07754087054","0.1843216893","0.2975559752","0.2537716732","","","","","","","","","","76","L","3","","","140","main_expt","",""
"","bandit","232","544579","0.0-182.0-0.0","98935407","wem/bandit_party_1","A3AZJGI9D7C0PD","either","7","17","","","","","","","0","1","0","","0.2802168405","0.6","0.2","0.4","0.8","0.09489610577","0.1651876155","0.2802168405","0.2858111263","","","","","","","","","","","","","","75","K","2","","","141","main_expt","",""
"","bandit","233","546417","0.0-183.0-0.0","98935407","wem/bandit_party_1","A3AZJGI9D7C0PD","either","7","323","","","","","","","0","0","1","0.2231986748","","0.6","0.2","0.4","0.8","","","","","0.09601428546","0.1536427928","0.2231986748","0.303049367","","","","","","","","","","75","K","2","","","142","main_expt","",""
"","bandit","234","548282","0.0-184.0-0.0","98935407","wem/bandit_party_1","A3AZJGI9D7C0PD","either","7","353","","","","","","","0","0","1","","0.1546140226","0.6","0.2","0.4","0.8","0.08301142993","0.1546140226","0.2032880393","0.2969419413","","","","","","","","","","","","","","74","J","1","","","143","main_expt","",""
"","bandit","235","550048","0.0-185.0-0.0","98935407","wem/bandit_party_1","A3AZJGI9D7C0PD","either","7","253","","","","","","","0","0","1","0.09599686985","","0.6","0.2","0.4","0.8","","","","","0.09599686985","0.1746031107","0.1967741464","0.3128690494","","","","","","","","","","72","H","0","img/none_selected.jpg","","144","main_expt","",""
"","bandit","236","551685","0.0-186.0-0.0","98935407","wem/bandit_party_1","A3AZJGI9D7C0PD","either","7","123","","","","","","","0","0","1","","0.2991796355","0.6","0.2","0.4","0.8","0.07499383622","0.2021387556","0.2283154954","0.2991796355","","","","","","","","","","","","","","76","L","3","","","145","main_expt","",""
"","bandit","237","553381","0.0-187.0-0.0","98935407","wem/bandit_party_1","A3AZJGI9D7C0PD","either","7","184","","","","","","","1","0","0","0.09566861","","0.6","0.2","0.4","0.8","","","","","0.09566861","0.2504344391","0.2118700154","0.3163763193","","","","","","","","","","72","H","0","img/none_selected.jpg","","146","main_expt","",""
"","bandit","238","555190","0.0-188.0-0.0","98935407","wem/bandit_party_1","A3AZJGI9D7C0PD","either","7","294","","","","","","","0","0","1","0.08578591382","","0.6","0.2","0.4","0.8","","","","","0.08578591382","0.2437718569","0.210437557","0.3198025905","","","","","","","","","","72","H","0","img/none_selected.jpg","","147","main_expt","",""
"","bandit","239","556826","0.0-189.0-0.0","98935407","wem/bandit_party_1","A3AZJGI9D7C0PD","either","7","124","","","","","","","0","0","1","","0.2446677265","0.6","0.2","0.4","0.8","0.1147887709","0.2446677265","0.2370661354","0.2588245921","","","","","","","","","","","","","","74","J","1","","","148","main_expt","",""
"","bandit","240","558624","0.0-190.0-0.0","98935407","wem/bandit_party_1","A3AZJGI9D7C0PD","either","7","286","","","","","","","0","0","1","0.2430363771","","0.6","0.2","0.4","0.8","","","","","0.1378203382","0.2911002833","0.2430363771","0.248712437","","","","","","","","","","75","K","2","","","149","main_expt","",""
"","bandit","241","560422","0.0-191.0-0.0","98935407","wem/bandit_party_1","A3AZJGI9D7C0PD","either","7","285","","","","","","","0","0","1","","0.179144869","0.6","0.2","0.4","0.8","0.1414499273","0.3529655025","0.2242182381","0.179144869","","","","","","","","","","","","","","76","L","3","","","150","main_expt","",""
"","bandit","242","562273","0.0-192.0-0.0","98935407","wem/bandit_party_1","A3AZJGI9D7C0PD","either","7","335","","","","","","","0","0","1","0.1545669956","","0.6","0.2","0.4","0.8","","","","","0.07852348772","0.3885741111","0.1997145133","0.1545669956","","","","","","","","","","76","L","3","","","151","main_expt","",""
"","bandit","243","564018","0.0-193.0-0.0","98935407","wem/bandit_party_1","A3AZJGI9D7C0PD","either","7","232","","","","","","","0","0","1","0.1651714415","","0.6","0.2","0.4","0.8","","","","","0.08485793113","0.3690499696","0.2195927633","0.1651714415","","","","","","","","","","76","L","3","","","152","main_expt","",""
"","bandit","244","565788","0.0-194.0-0.0","98935407","wem/bandit_party_1","A3AZJGI9D7C0PD","either","7","257","","","","","","","0","0","1","","0.2121816628","0.6","0.2","0.4","0.8","0.1083789561","0.3710492515","0.2121816628","0.2396245514","","","","","","","","","","","","","","75","K","2","","","153","main_expt","",""
"","bandit","245","567554","0.0-195.0-0.0","98935407","wem/bandit_party_1","A3AZJGI9D7C0PD","either","7","254","","","","","","","0","0","1","","0.1830588608","0.6","0.2","0.4","0.8","0.109098481","0.3483335413","0.1830588608","0.2085838567","","","","","","","","","","","","","","75","K","2","","","154","main_expt","",""
"","bandit","246","569375","0.0-196.0-0.0","98935407","wem/bandit_party_1","A3AZJGI9D7C0PD","either","7","310","","","","","","","0","0","1","","0.2031423662","0.6","0.2","0.4","0.8","0.1758262092","0.3343760247","0.2031423662","0.1864274254","","","","","","","","","","","","","","75","K","2","","","155","main_expt","",""
"","bandit","247","571166","0.0-197.0-0.0","98935407","wem/bandit_party_1","A3AZJGI9D7C0PD","either","7","281","","","","","","","0","0","1","","0.2022731065","0.6","0.2","0.4","0.8","0.2046597001","0.3742013553","0.2022731065","0.1750870897","","","","","","","","","","","","","","75","K","2","","","156","main_expt","",""
"","bandit","248","572926","0.0-198.0-0.0","98935407","wem/bandit_party_1","A3AZJGI9D7C0PD","either","7","247","","","","","","","0","0","1","","0.1321985386","0.6","0.2","0.4","0.8","0.1774751899","0.3620366094","0.1826661219","0.1321985386","","","","","","","","","","","","","","76","L","3","","","157","main_expt","",""
"","bandit","249","574680","0.0-199.0-0.0","98935407","wem/bandit_party_1","A3AZJGI9D7C0PD","either","7","242","","","","","","","0","0","1","","0.1341899746","0.6","0.2","0.4","0.8","0.1612033886","0.3671714071","0.1658993888","0.1341899746","","","","","","","","","","","","","","76","L","3","","","158","main_expt","",""
"","bandit","250","576481","0.0-200.0-0.0","98935407","wem/bandit_party_1","A3AZJGI9D7C0PD","either","7","285","","","","","","","0","0","1","0.1567784951","","0.6","0.2","0.4","0.8","","","","","0.1586838935","0.4015988616","0.1620079643","0.1567784951","","","","","","","","","","76","L","3","","","159","main_expt","",""
"","bandit","251","578290","0.0-201.0-0.0","98935407","wem/bandit_party_1","A3AZJGI9D7C0PD","either","7","297","","","","","","","0","0","1","0.1615549635","","0.6","0.2","0.4","0.8","","","","","0.2159944071","0.4004877553","0.2453635642","0.1615549635","","","","","","","","","","76","L","3","","","160","main_expt","",""
"","bandit","252","580143","0.0-202.0-0.0","98935407","wem/bandit_party_1","A3AZJGI9D7C0PD","either","7","340","","","","","","","0","0","1","0.1854631015","","0.6","0.2","0.4","0.8","","","","","0.2105769377","0.4095849454","0.2456373749","0.1854631015","","","","","","","","","","76","L","3","","","161","main_expt","",""
"","bandit","253","581962","0.0-203.0-0.0","98935407","wem/bandit_party_1","A3AZJGI9D7C0PD","either","7","306","","","","","","","0","0","1","0.21229469","","0.6","0.2","0.4","0.8","","","","","0.2006925765","0.3978002783","0.2460125232","0.21229469","","","","","","","","","","76","L","3","","","162","main_expt","",""
"","bandit","254","583896","0.0-204.0-0.0","98935407","wem/bandit_party_1","A3AZJGI9D7C0PD","either","7","419","","","","","","","0","1","0","","0.4180552148","0.6","0.2","0.4","0.8","0.2365124807","0.4180552148","0.2013568893","0.162194177","","","","","","","","","","","","","","74","J","1","","","163","main_expt","",""
"","bandit","255","585766","0.0-205.0-0.0","98935407","wem/bandit_party_1","A3AZJGI9D7C0PD","either","7","354","","","","","","","0","0","1","","0.4407560021","0.6","0.2","0.4","0.8","0.2157370886","0.4407560021","0.1933595846","0.1535707797","","","","","","","","","","","","","","74","J","1","","","164","main_expt","",""
"","bandit","256","587707","0.0-206.0-0.0","98935407","wem/bandit_party_1","A3AZJGI9D7C0PD","either","7","431","","","","","","","1","0","0","0.2166787898","","0.6","0.2","0.4","0.8","","","","","0.2166787898","0.4582960521","0.167552211","0.2315934193","","","","","","","","","","72","H","0","img/none_selected.jpg","","165","main_expt","",""
"","bandit","257","589624","0.0-207.0-0.0","98935407","wem/bandit_party_1","A3AZJGI9D7C0PD","either","7","357","","","","","","","0","0","1","0.1846262972","","0.6","0.2","0.4","0.8","","","","","0.1846262972","0.4337500892","0.1311237951","0.2579087381","","","","","","","","","","72","H","0","img/none_selected.jpg","","166","main_expt","",""
"","bandit","258","591416","0.0-208.0-0.0","98935407","wem/bandit_party_1","A3AZJGI9D7C0PD","either","7","278","","","","","","","0","0","1","","0.4537582576","0.6","0.2","0.4","0.8","0.1888750078","0.4537582576","0.1714029316","0.2496457694","","","","","","","","","","","","","","74","J","1","","","167","main_expt","",""
"","bandit","259","593203","0.0-209.0-0.0","98935407","wem/bandit_party_1","A3AZJGI9D7C0PD","either","7","275","","","","","","","0","0","1","0.1494402723","","0.6","0.2","0.4","0.8","","","","","0.2315683769","0.4473485534","0.1494402723","0.234558796","","","","","","","","","","75","K","2","","","168","main_expt","",""
"","bandit","260","594986","0.0-210.0-0.0","98935407","wem/bandit_party_1","A3AZJGI9D7C0PD","either","7","255","","","","","","","0","0","1","","0.2458600006","0.6","0.2","0.4","0.8","0.2018123945","0.4471591033","0.1819888556","0.2458600006","","","","","","","","","","","","","","76","L","3","","","169","main_expt","",""
"","bandit","261","596678","0.0-211.0-0.0","98935407","wem/bandit_party_1","A3AZJGI9D7C0PD","either","7","181","","","","","","","0","0","1","0.2214583157","","0.6","0.2","0.4","0.8","","","","","0.139238222","0.4581839475","0.2329206984","0.2214583157","","","","","","","","","","76","L","3","","","170","main_expt","",""
"","bandit","262","598622","0.0-212.0-0.0","98935407","wem/bandit_party_1","A3AZJGI9D7C0PD","either","7","410","","","","","","","1","0","0","0.2000607923","","0.6","0.2","0.4","0.8","","","","","0.1466511374","0.4674995421","0.2000607923","0.296208115","","","","","","","","","","75","K","2","","","171","main_expt","",""
"","bandit","263","600446","0.0-213.0-0.0","98935407","wem/bandit_party_1","A3AZJGI9D7C0PD","either","7","307","","","","","","","0","0","1","0.2342957318","","0.6","0.2","0.4","0.8","","","","","0.1348290388","0.4455620345","0.2342957318","0.3062379281","","","","","","","","","","75","K","2","","","172","main_expt","",""
"","bandit","264","602188","0.0-214.0-0.0","98935407","wem/bandit_party_1","A3AZJGI9D7C0PD","either","7","230","","","","","","","0","0","1","0.4471610379","","0.6","0.2","0.4","0.8","","","","","0.1521691919","0.4471610379","0.2189308077","0.2498067723","","","","","","","","","","74","J","1","","","173","main_expt","",""
"","bandit","265","603995","0.0-215.0-0.0","98935407","wem/bandit_party_1","A3AZJGI9D7C0PD","either","7","293","","","","","","","0","0","1","0.2191935525","","0.6","0.2","0.4","0.8","","","","","0.2191935525","0.4496576915","0.2373932689","0.1803522277","","","","","","","","","","72","H","0","img/none_selected.jpg","","174","main_expt","",""
"","bandit","266","605771","0.0-216.0-0.0","98935407","wem/bandit_party_1","A3AZJGI9D7C0PD","either","7","261","","","","","","","0","0","1","0.219961305","","0.6","0.2","0.4","0.8","","","","","0.219961305","0.4715297358","0.2160264752","0.2014319342","","","","","","","","","","72","H","0","img/none_selected.jpg","","175","main_expt","",""
"","bandit","267","607364","0.0-217.0-0.0","98935407","wem/bandit_party_1","A3AZJGI9D7C0PD","either","7","81","","","","","","","0","0","1","0.2122003168","","0.6","0.2","0.4","0.8","","","","","0.1882485239","0.477956151","0.1990604306","0.2122003168","","","","","","","","","","76","L","3","","","176","main_expt","",""
"","bandit","268","609034","0.0-218.0-0.0","98935407","wem/bandit_party_1","A3AZJGI9D7C0PD","either","7","154","","","","","","","0","0","1","","0.1729978196","0.6","0.2","0.4","0.8","0.1644902553","0.4563721206","0.1729978196","0.2629069455","","","","","","","","","","","","","","75","K","2","","","177","main_expt","",""
"","bandit","269","610575","0.0-219.0-0.0","98935407","wem/bandit_party_1","A3AZJGI9D7C0PD","either","7","25","","","","","","","0","0","1","0.2336104206","","0.6","0.2","0.4","0.8","","","","","0.1713669852","0.4409869931","0.1633080779","0.2336104206","","","","","","","","","","76","L","3","","","178","main_expt","",""
"","bandit","270","612142","0.0-220.0-0.0","98935407","wem/bandit_party_1","A3AZJGI9D7C0PD","either","7","54","","","","","","","0","0","1","0.1243251356","","0.6","0.2","0.4","0.8","","","","","0.2263400462","0.4243126063","0.1243251356","0.1887504226","","","","","","","","","","75","K","2","","","179","main_expt","",""
"","bandit","271","614005","0.0-221.0-0.0","98935407","wem/bandit_party_1","A3AZJGI9D7C0PD","either","7","349","","","","","","","0","0","1","0.2036870175","","0.6","0.2","0.4","0.8","","","","","0.2036870175","0.4312830743","0.1150149055","0.138376641","","","","","","","","","","72","H","0","img/none_selected.jpg","","180","main_expt","",""
"","bandit","272","615736","0.0-222.0-0.0","98935407","wem/bandit_party_1","A3AZJGI9D7C0PD","either","7","216","","","","","","","0","0","1","0.1883992559","","0.6","0.2","0.4","0.8","","","","","0.1934599198","0.4433127893","0.1407924877","0.1883992559","","","","","","","","","","76","L","3","","","181","main_expt","",""
"","bandit","273","617320","0.0-223.0-0.0","98935407","wem/bandit_party_1","A3AZJGI9D7C0PD","either","7","75","","","","","","","0","0","1","","0.09672650852","0.6","0.2","0.4","0.8","0.2424515525","0.440136403","0.09672650852","0.128889003","","","","","","","","","","","","","","75","K","2","","","182","main_expt","",""
"","bandit","274","618959","0.0-224.0-0.0","98935407","wem/bandit_party_1","A3AZJGI9D7C0PD","either","7","125","","","","","","","0","0","1","0.1748769843","","0.6","0.2","0.4","0.8","","","","","0.1961777535","0.4347693449","0.09888002855","0.1748769843","","","","","","","","","","76","L","3","","","183","main_expt","",""
"","bandit","275","620769","0.0-225.0-0.0","98935407","wem/bandit_party_1","A3AZJGI9D7C0PD","either","7","298","","","","","","","0","0","1","0.1489283113","","0.6","0.2","0.4","0.8","","","","","0.1489283113","0.4277130926","0.07200145298","0.1945994373","","","","","","","","","","72","H","0","img/none_selected.jpg","","184","main_expt","",""
"","bandit","276","622539","0.0-226.0-0.0","98935407","wem/bandit_party_1","A3AZJGI9D7C0PD","either","7","259","","","","","","","0","0","1","","0.3956248437","0.6","0.2","0.4","0.8","0.1499965078","0.3956248437","0.09476413333","0.1644748654","","","","","","","","","","","","","","74","J","1","","","185","main_expt","",""
"","bandit","277","624233","0.0-227.0-0.0","98935407","wem/bandit_party_1","A3AZJGI9D7C0PD","either","7","181","","","","","","","0","1","0","","0.06556422103","0.6","0.2","0.4","0.8","0.2169832988","0.3748928266","0.06556422103","0.1504635592","","","","","","","","","","","","","","75","K","2","","","186","main_expt","",""
"","bandit","278","626037","0.0-228.0-0.0","98935407","wem/bandit_party_1","A3AZJGI9D7C0PD","either","7","293","","","","","","","0","0","1","","0.08901149072","0.6","0.2","0.4","0.8","0.2655186329","0.3848139325","0.08901149072","0.1760039214","","","","","","","","","","","","","","75","K","2","","","187","main_expt","",""
"","bandit","279","627788","0.0-229.0-0.0","98935407","wem/bandit_party_1","A3AZJGI9D7C0PD","either","7","237","","","","","","","0","0","1","0.1203267588","","0.6","0.2","0.4","0.8","","","","","0.2738785118","0.3990176401","0.09471428588","0.1203267588","","","","","","","","","","76","L","3","","","188","main_expt","",""
"","bandit","280","629623","0.0-230.0-0.0","98935407","wem/bandit_party_1","A3AZJGI9D7C0PD","either","7","323","","","","","","","0","0","1","0.3041874674","","0.6","0.2","0.4","0.8","","","","","0.3041874674","0.3581396838","0.05118235823","0.1171540391","","","","","","","","","","72","H","0","img/none_selected.jpg","","189","main_expt","",""
"","bandit","281","632518","0.0-231.0-0.0","98935407","wem/bandit_party_1","A3AZJGI9D7C0PD","either","7","1381","","","","","","","0","0","1","","0.3229453735","0.6","0.2","0.4","0.8","0.3229453735","0.2882972244","0.05788318751","0.1535230761","","","","","","","","","","","","","","72","H","0","img/none_selected.jpg","","190","main_expt","",""
"","bandit","282","634291","0.0-232.0-0.0","98935407","wem/bandit_party_1","A3AZJGI9D7C0PD","either","7","258","","","","","","","0","0","1","","0.3145326233","0.6","0.2","0.4","0.8","0.3818249757","0.3145326233","0.08736915481","0.1372750947","","","","","","","","","","","","","","74","J","1","","","191","main_expt","",""
"","bandit","283","636060","0.0-233.0-0.0","98935407","wem/bandit_party_1","A3AZJGI9D7C0PD","either","7","254","","","","","","","0","0","1","","0.08251019118","0.6","0.2","0.4","0.8","0.4157726243","0.3270603702","0.08251019118","0.1047771501","","","","","","","","","","","","","","75","K","2","","","192","main_expt","",""
"","bandit","284","637815","0.0-234.0-0.0","98935407","wem/bandit_party_1","A3AZJGI9D7C0PD","either","7","236","","","","","","","0","0","1","0.1100845432","","0.6","0.2","0.4","0.8","","","","","0.4611608212","0.3604030797","0.06897628064","0.1100845432","","","","","","","","","","76","L","3","","","193","main_expt","",""
"","bandit","285","639569","0.0-235.0-0.0","98935407","wem/bandit_party_1","A3AZJGI9D7C0PD","either","7","238","","","","","","","0","0","1","","0.1468163818","0.6","0.2","0.4","0.8","0.4508818777","0.357423186","0.06801266305","0.1468163818","","","","","","","","","","","","","","76","L","3","","","194","main_expt","",""
"","bandit","286","641155","0.0-236.0-0.0","98935407","wem/bandit_party_1","A3AZJGI9D7C0PD","either","7","73","","","","","","","0","0","1","0.1495594621","","0.6","0.2","0.4","0.8","","","","","0.4278921451","0.3697779856","0.09923709358","0.1495594621","","","","","","","","","","76","L","3","","","195","main_expt","",""
"","bandit","287","642953","0.0-237.0-0.0","98935407","wem/bandit_party_1","A3AZJGI9D7C0PD","either","7","286","","","","","","","0","0","1","0.2263220537","","0.6","0.2","0.4","0.8","","","","","0.4256293003","0.3617177512","0.1103063831","0.2263220537","","","","","","","","","","76","L","3","","","196","main_expt","",""
"","bandit","288","644822","0.0-238.0-0.0","98935407","wem/bandit_party_1","A3AZJGI9D7C0PD","either","7","357","","","","","","","0","0","1","","0.07377144043","0.6","0.2","0.4","0.8","0.4476975038","0.3775990084","0.07377144043","0.2204718804","","","","","","","","","","","","","","75","K","2","","","197","main_expt","",""
"","bandit","289","646662","0.0-239.0-0.0","98935407","wem/bandit_party_1","A3AZJGI9D7C0PD","either","7","330","","","","","","","0","0","1","","0.4144042571","0.6","0.2","0.4","0.8","0.4434357272","0.4144042571","0.08863448313","0.2401118457","","","","","","","","","","","","","","74","J","1","","","198","main_expt","",""
"","bandit","290","648436","0.0-240.0-0.0","98935407","wem/bandit_party_1","A3AZJGI9D7C0PD","either","7","261","","","","","","","0","0","1","","0.4245114622","0.6","0.2","0.4","0.8","0.4245114622","0.4081775392","0.1082179128","0.2673724497","","","","","","","","","","","","","","72","H","0","img/none_selected.jpg","","199","main_expt","",""
"","bandit","291","650291","0.0-241.0-0.0","98935407","wem/bandit_party_1","A3AZJGI9D7C0PD","either","7","343","","","","","","","0","0","1","","0.4087100315","0.6","0.2","0.4","0.8","0.4087100315","0.4166156547","0.09350688576","0.3125307902","","","","","","","","","","","","","","72","H","0","img/none_selected.jpg","","200","main_expt","",""
"","bandit","292","651856","0.0-242.0-0.0","98935407","wem/bandit_party_1","A3AZJGI9D7C0PD","either","7","48","","","","","","","0","1","0","","0.4306537176","0.6","0.2","0.4","0.8","0.4361521275","0.4306537176","0.1036625099","0.2914574258","","","","","","","","","","","","","","74","J","1","","","201","main_expt","",""
"","bandit","293","653646","0.0-243.0-0.0","98935407","wem/bandit_party_1","A3AZJGI9D7C0PD","either","7","278","","","","","","","0","0","1","","0.449382563","0.6","0.2","0.4","0.8","0.3332596158","0.449382563","0.1216733889","0.2550600684","","","","","","","","","","","","","","74","J","1","","","202","main_expt","",""
"","bandit","294","655453","0.0-244.0-0.0","98935407","wem/bandit_party_1","A3AZJGI9D7C0PD","either","7","291","","","","","","","0","0","1","","0.120655788","0.6","0.2","0.4","0.8","0.3581848779","0.4506576586","0.120655788","0.2769745997","","","","","","","","","","","","","","75","K","2","","","203","main_expt","",""
"","bandit","295","657123","0.0-245.0-0.0","98935407","wem/bandit_party_1","A3AZJGI9D7C0PD","either","7","159","","","","","","","1","0","0","0.2752990059","","0.6","0.2","0.4","0.8","","","","","0.3597133043","0.454839243","0.1082970726","0.2752990059","","","","","","","","","","76","L","3","","","204","main_expt","",""
"","bandit","296","659003","0.0-246.0-0.0","98935407","wem/bandit_party_1","A3AZJGI9D7C0PD","either","7","370","","","","","","","0","0","1","0.2901512169","","0.6","0.2","0.4","0.8","","","","","0.3630183988","0.4512889682","0.09143681274","0.2901512169","","","","","","","","","","76","L","3","","","205","main_expt","",""
"","bandit","297","660722","0.0-247.0-0.0","98935407","wem/bandit_party_1","A3AZJGI9D7C0PD","either","7","206","","","","","","","0","0","1","0.08377413986","","0.6","0.2","0.4","0.8","","","","","0.3737494834","0.4591490044","0.08377413986","0.2823763913","","","","","","","","","","75","K","2","","","206","main_expt","",""
"","bandit","298","662378","0.0-248.0-0.0","98935407","wem/bandit_party_1","A3AZJGI9D7C0PD","either","7","143","","","","","","","0","0","1","0.4650593633","","0.6","0.2","0.4","0.8","","","","","0.3668784438","0.4650593633","0.1585073664","0.2708062506","","","","","","","","","","74","J","1","","","207","main_expt","",""
"","bandit","299","664028","0.0-249.0-0.0","98935407","wem/bandit_party_1","A3AZJGI9D7C0PD","either","7","142","","","","","","","0","0","1","","0.4045351895","0.6","0.2","0.4","0.8","0.4045351895","0.4641513068","0.162299901","0.2641553663","","","","","","","","","","","","","","72","H","0","img/none_selected.jpg","","208","main_expt","",""
"","bandit","300","665800","0.0-250.0-0.0","98935407","wem/bandit_party_1","A3AZJGI9D7C0PD","either","7","261","","","","","","","0","0","1","","0.4402386934","0.6","0.2","0.4","0.8","0.4402386934","0.4567807332","0.1542266077","0.2704675845","","","","","","","","","","","","","","72","H","0","img/none_selected.jpg","","209","main_expt","",""
"","bandit","301","667622","0.0-251.0-0.0","98935407","wem/bandit_party_1","A3AZJGI9D7C0PD","either","7","304","","","","","","","1","0","0","0.4483623408","","0.6","0.2","0.4","0.8","","","","","0.4483623408","0.428253188","0.1890415559","0.3420868926","","","","","","","","","","72","H","0","img/none_selected.jpg","","210","main_expt","",""
"","bandit","302","669499","0.0-252.0-0.0","98935407","wem/bandit_party_1","A3AZJGI9D7C0PD","either","7","360","","","","","","","1","0","0","0.4471415093","","0.6","0.2","0.4","0.8","","","","","0.4471415093","0.410271385","0.1818133019","0.3069688952","","","","","","","","","","72","H","0","img/none_selected.jpg","","211","main_expt","",""
"","bandit","303","671399","0.0-253.0-0.0","98935407","wem/bandit_party_1","A3AZJGI9D7C0PD","either","7","387","","","","","","","0","0","1","","0.4374655127","0.6","0.2","0.4","0.8","0.4374655127","0.4065587724","0.1782747956","0.3005379093","","","","","","","","","","","","","","72","H","0","img/none_selected.jpg","","212","main_expt","",""
"","bandit","304","673251","0.0-254.0-0.0","98935407","wem/bandit_party_1","A3AZJGI9D7C0PD","either","7","342","","","","","","","1","0","0","0.4381457257","","0.6","0.2","0.4","0.8","","","","","0.4381457257","0.4007116542","0.1935195711","0.213882915","","","","","","","","","","72","H","0","img/none_selected.jpg","","213","main_expt","",""
"","bandit","305","675198","0.0-255.0-0.0","98935407","wem/bandit_party_1","A3AZJGI9D7C0PD","either","7","430","","","","","","","0","0","1","0.2138557204","","0.6","0.2","0.4","0.8","","","","","0.4643769008","0.4246209323","0.2421176173","0.2138557204","","","","","","","","","","76","L","3","","","214","main_expt","",""
"","bandit","306","676988","0.0-256.0-0.0","98935407","wem/bandit_party_1","A3AZJGI9D7C0PD","either","7","276","","","","","","","0","0","1","","0.2142566612","0.6","0.2","0.4","0.8","0.4328812357","0.3993057066","0.2629876012","0.2142566612","","","","","","","","","","","","","","76","L","3","","","215","main_expt","",""
"","bandit","307","678791","0.0-257.0-0.0","98935407","wem/bandit_party_1","A3AZJGI9D7C0PD","either","7","294","","","","","","","0","0","1","0.1900351118","","0.6","0.2","0.4","0.8","","","","","0.4064507999","0.3987772474","0.2977714141","0.1900351118","","","","","","","","","","76","L","3","","","216","main_expt","",""
"","bandit","308","680597","0.0-258.0-0.0","98935407","wem/bandit_party_1","A3AZJGI9D7C0PD","either","7","284","","","","","","","0","0","1","0.2185169477","","0.6","0.2","0.4","0.8","","","","","0.4197961641","0.4101433534","0.3017601552","0.2185169477","","","","","","","","","","76","L","3","","","217","main_expt","",""
"","bandit","309","682358","0.0-259.0-0.0","98935407","wem/bandit_party_1","A3AZJGI9D7C0PD","either","7","251","","","","","","","0","0","1","","0.4167397569","0.6","0.2","0.4","0.8","0.4167397569","0.4448029092","0.2888566207","0.2240895604","","","","","","","","","","","","","","72","H","0","img/none_selected.jpg","","218","main_expt","",""
"","bandit","310","684243","0.0-260.0-0.0","98935407","wem/bandit_party_1","A3AZJGI9D7C0PD","either","7","372","","","","","","","0","0","1","0.4250944588","","0.6","0.2","0.4","0.8","","","","","0.4250944588","0.4454766299","0.2844008008","0.1990808675","","","","","","","","","","72","H","0","img/none_selected.jpg","","219","main_expt","",""
"","bandit","311","686120","0.0-261.0-0.0","98935407","wem/bandit_party_1","A3AZJGI9D7C0PD","either","7","364","","","","","","","0","0","1","0.4173336587","","0.6","0.2","0.4","0.8","","","","","0.4173336587","0.4610997771","0.2225062479","0.266602996","","","","","","","","","","72","H","0","img/none_selected.jpg","","220","main_expt","",""
"","bandit","312","687903","0.0-262.0-0.0","98935407","wem/bandit_party_1","A3AZJGI9D7C0PD","either","7","270","","","","","","","1","0","0","0.3944711005","","0.6","0.2","0.4","0.8","","","","","0.3944711005","0.4642289789","0.2409900116","0.2443661227","","","","","","","","","","72","H","0","img/none_selected.jpg","","221","main_expt","",""
