"consent","trial_type","trial_index","time_elapsed","internal_node_id","subjID","study","MID","cond","drift","rt","responses","button_pressed","key_press","like","value","connected","gems","bombs","no_reward","GemPrChosen","BombPrChosen","GainOverPainPr_0","GainOverPainPr_1","GainOverPainPr_2","GainOverPainPr_3","LosePr_0","LosePr_1","LosePr_2","LosePr_3","WinPr_0","WinPr_1","WinPr_2","WinPr_3","Q0","Q1","Q2","gender","age","ethnicity","label","expt_phase","target","respCharCode","respKey","respChoiceNum","respChoice","practice","trial_counter","trial_label","Q0_index"
"GDM/GDM_behavioral_consent_30min_online.html","consent","0","63269","0.0-0.0","99064856","wem/bandit_party_1","AHPQVIEIBZOAS","either","6","","","","","","","","","","","","","","","","","","","","","","","","","","","","","","","","","","","","","","","","",""
"","survey-text","1","74931","0.0-1.0","99064856","wem/bandit_party_1","AHPQVIEIBZOAS","either","6","10653","{""Q0"":""AHPQVIEIBZOAS""}","","","","","","","","","","","","","","","","","","","","","","","","","","","","","","","","","","","","","","",""
"","button-response","2","77343","0.0-2.0","99064856","wem/bandit_party_1","AHPQVIEIBZOAS","either","6","1404","","1","","","","","","","","","","","","","","","","","","","","","","","","","","","","","","","","","","","","","",""
"","text-replacement","3","88682","0.0-3.0","99064856","wem/bandit_party_1","AHPQVIEIBZOAS","either","6","10332","","","32","","","","","","","","","","","","","","","","","","","","","","","","","","","","","","","","","","","","",""
"","text-replacement","4","115327","0.0-4.0","99064856","wem/bandit_party_1","AHPQVIEIBZOAS","either","6","26640","","","32","","","","","","","","","","","","","","","","","","","","","","","","","","","","","","","","","","","","",""
"","identification","5","124375","0.0-6.0-0.0","99064856","wem/bandit_party_1","AHPQVIEIBZOAS","either","6","9031","","","","4","4","4","","","","","","","","","","","","","","","","","","","","","","","","pre","identification_pre","the Democratic Party","","","","","","","",""
"","identification","6","129549","0.0-6.0-1.0","99064856","wem/bandit_party_1","AHPQVIEIBZOAS","either","6","4159","","","","0","0","0","","","","","","","","","","","","","","","","","","","","","","","","pre","identification_pre","the Republican party","","","","","","","",""
"","text-replacement","7","135949","0.0-7.0","99064856","wem/bandit_party_1","AHPQVIEIBZOAS","either","6","5394","","","32","","","","","","","","","","","","","","","","","","","","","","","","","","","","","","","","","","","","",""
"","text-replacement","8","170180","0.0-8.0","99064856","wem/bandit_party_1","AHPQVIEIBZOAS","either","6","34224","","","32","","","","","","","","","","","","","","","","","","","","","","","","","","","","","","","","","","","","",""
"","text-replacement","9","182718","0.0-9.0","99064856","wem/bandit_party_1","AHPQVIEIBZOAS","either","6","12532","","","32","","","","","","","","","","","","","","","","","","","","","","","","","","","","","","","","","","","","",""
"","text-replacement","10","187865","0.0-10.0","99064856","wem/bandit_party_1","AHPQVIEIBZOAS","either","6","5143","","","32","","","","","","","","","","","","","","","","","","","","","","","","","","","","","","","","","","","","",""
"","text-replacement","11","192705","0.0-11.0","99064856","wem/bandit_party_1","AHPQVIEIBZOAS","either","6","4836","","","32","","","","","","","","","","","","","","","","","","","","","","","","","","","","","","","","","","","","",""
"","bandit","12","197563","0.0-12.0-0.0","99064856","wem/bandit_party_1","AHPQVIEIBZOAS","either","6","3344","","","","","","","0","0","1","0","0","","","","","0","","","","0","","","","","","","","","","","","","74","J","0","img/none_selected_demo.jpg","true","0","",""
"","bandit","13","201722","0.0-13.0-0.0","99064856","wem/bandit_party_1","AHPQVIEIBZOAS","either","6","2646","","","","","","","0","0","1","0","0","","","","","0","","","","0","","","","","","","","","","","","","75","K","0","img/none_selected_demo.jpg","true","0","",""
"","text-replacement","14","214240","0.0-14.0","99064856","wem/bandit_party_1","AHPQVIEIBZOAS","either","6","12508","","","32","","","","","","","","","","","","","","","","","","","","","","","","","","","","","","","","","","","","",""
"","text-replacement","15","219024","0.0-15.0","99064856","wem/bandit_party_1","AHPQVIEIBZOAS","either","6","4781","","","32","","","","","","","","","","","","","","","","","","","","","","","","","","","","","","","","","","","","",""
"","text-replacement","16","227202","0.0-16.0","99064856","wem/bandit_party_1","AHPQVIEIBZOAS","either","6","8173","","","32","","","","","","","","","","","","","","","","","","","","","","","","","","","","","","","","","","","","",""
"","text-replacement","17","230807","0.0-17.0","99064856","wem/bandit_party_1","AHPQVIEIBZOAS","either","6","3600","","","32","","","","","","","","","","","","","","","","","","","","","","","","","","","","","","","","","","","","",""
"","bandit","18","234812","0.0-18.0-0.0","99064856","wem/bandit_party_1","AHPQVIEIBZOAS","either","6","2489","","","","","","","0","1","0","","0.8","0.5","0.5","","","0.8","0.2","","","","","","","","","","","","","","","","74","J","0","img/none_selected_demo.jpg","true","0","80_20_practice",""
"","bandit","19","237041","0.0-18.0-1.0","99064856","wem/bandit_party_1","AHPQVIEIBZOAS","either","6","707","","","","","","","1","0","0","0.2","","0.5","0.5","","","","","","","0.8","0.2","","","","","","","","","","","","75","K","1","","true","0","80_20_practice",""
"","bandit","20","238950","0.0-18.0-2.0","99064856","wem/bandit_party_1","AHPQVIEIBZOAS","either","6","391","","","","","","","1","0","0","0.2","","0.5","0.5","","","","","","","0.8","0.2","","","","","","","","","","","","75","K","1","","true","0","80_20_practice",""
"","bandit","21","241434","0.0-18.0-3.0","99064856","wem/bandit_party_1","AHPQVIEIBZOAS","either","6","971","","","","","","","1","0","0","0.8","","0.5","0.5","","","","","","","0.8","0.2","","","","","","","","","","","","74","J","0","img/none_selected_demo.jpg","true","0","80_20_practice",""
"","bandit","22","243504","0.0-18.0-4.0","99064856","wem/bandit_party_1","AHPQVIEIBZOAS","either","6","556","","","","","","","0","1","0","","0.8","0.5","0.5","","","0.8","0.2","","","","","","","","","","","","","","","","74","J","0","img/none_selected_demo.jpg","true","0","80_20_practice",""
"","bandit","23","245570","0.0-18.0-5.0","99064856","wem/bandit_party_1","AHPQVIEIBZOAS","either","6","542","","","","","","","0","1","0","","0.8","0.5","0.5","","","0.8","0.2","","","","","","","","","","","","","","","","74","J","0","img/none_selected_demo.jpg","true","0","80_20_practice",""
"","bandit","24","247112","0.0-18.0-6.0","99064856","wem/bandit_party_1","AHPQVIEIBZOAS","either","6","24","","","","","","","1","0","0","0.8","","0.5","0.5","","","","","","","0.8","0.2","","","","","","","","","","","","74","J","0","img/none_selected_demo.jpg","true","0","80_20_practice",""
"","bandit","25","249394","0.0-18.0-7.0","99064856","wem/bandit_party_1","AHPQVIEIBZOAS","either","6","762","","","","","","","0","0","1","0.2","","0.5","0.5","","","","","","","0.8","0.2","","","","","","","","","","","","75","K","1","","true","0","80_20_practice",""
"","bandit","26","251962","0.0-18.0-8.0","99064856","wem/bandit_party_1","AHPQVIEIBZOAS","either","6","1054","","","","","","","0","0","1","0.2","","0.5","0.5","","","","","","","0.8","0.2","","","","","","","","","","","","75","K","1","","true","0","80_20_practice",""
"","bandit","27","253921","0.0-18.0-9.0","99064856","wem/bandit_party_1","AHPQVIEIBZOAS","either","6","435","","","","","","","0","0","1","0.2","","0.5","0.5","","","","","","","0.8","0.2","","","","","","","","","","","","75","K","1","","true","0","80_20_practice",""
"","bandit","28","255505","0.0-18.0-10.0","99064856","wem/bandit_party_1","AHPQVIEIBZOAS","either","6","67","","","","","","","0","1","0","","0.8","0.5","0.5","","","0.8","0.2","","","","","","","","","","","","","","","","74","J","0","img/none_selected_demo.jpg","true","0","80_20_practice",""
"","bandit","29","257938","0.0-18.0-11.0","99064856","wem/bandit_party_1","AHPQVIEIBZOAS","either","6","909","","","","","","","0","0","1","","0.8","0.5","0.5","","","0.8","0.2","","","","","","","","","","","","","","","","74","J","0","img/none_selected_demo.jpg","true","0","80_20_practice",""
"","bandit","30","259555","0.0-18.0-12.0","99064856","wem/bandit_party_1","AHPQVIEIBZOAS","either","6","101","","","","","","","0","0","1","0.8","","0.5","0.5","","","","","","","0.8","0.2","","","","","","","","","","","","74","J","0","img/none_selected_demo.jpg","true","0","80_20_practice",""
"","bandit","31","262149","0.0-18.0-13.0","99064856","wem/bandit_party_1","AHPQVIEIBZOAS","either","6","1072","","","","","","","0","0","1","","0.8","0.5","0.5","","","0.8","0.2","","","","","","","","","","","","","","","","74","J","0","img/none_selected_demo.jpg","true","0","80_20_practice",""
"","bandit","32","264010","0.0-18.0-14.0","99064856","wem/bandit_party_1","AHPQVIEIBZOAS","either","6","332","","","","","","","0","1","0","","0.8","0.5","0.5","","","0.8","0.2","","","","","","","","","","","","","","","","74","J","0","img/none_selected_demo.jpg","true","0","80_20_practice",""
"","bandit","33","267621","0.0-18.0-15.0","99064856","wem/bandit_party_1","AHPQVIEIBZOAS","either","6","2095","","","","","","","1","0","0","0.8","","0.5","0.5","","","","","","","0.8","0.2","","","","","","","","","","","","74","J","0","img/none_selected_demo.jpg","true","0","80_20_practice",""
"","bandit","34","270674","0.0-18.0-16.0","99064856","wem/bandit_party_1","AHPQVIEIBZOAS","either","6","1543","","","","","","","0","0","1","0.8","","0.5","0.5","","","","","","","0.8","0.2","","","","","","","","","","","","74","J","0","img/none_selected_demo.jpg","true","0","80_20_practice",""
"","bandit","35","273097","0.0-18.0-17.0","99064856","wem/bandit_party_1","AHPQVIEIBZOAS","either","6","903","","","","","","","0","0","1","0.8","","0.5","0.5","","","","","","","0.8","0.2","","","","","","","","","","","","74","J","0","img/none_selected_demo.jpg","true","0","80_20_practice",""
"","bandit","36","275670","0.0-18.0-18.0","99064856","wem/bandit_party_1","AHPQVIEIBZOAS","either","6","1056","","","","","","","1","0","0","0.8","","0.5","0.5","","","","","","","0.8","0.2","","","","","","","","","","","","74","J","0","img/none_selected_demo.jpg","true","0","80_20_practice",""
"","bandit","37","277863","0.0-18.0-19.0","99064856","wem/bandit_party_1","AHPQVIEIBZOAS","either","6","674","","","","","","","1","0","0","0.8","","0.5","0.5","","","","","","","0.8","0.2","","","","","","","","","","","","74","J","0","img/none_selected_demo.jpg","true","0","80_20_practice",""
"","text-replacement","38","282224","0.0-19.0","99064856","wem/bandit_party_1","AHPQVIEIBZOAS","either","6","4352","","","32","","","","","","","","","","","","","","","","","","","","","","","","","","","","","","","","","","","","",""
"","bandit","39","285264","0.0-20.0-0.0","99064856","wem/bandit_party_1","AHPQVIEIBZOAS","either","6","1524","","","","","","","1","0","0","1","0","","","","","0","1","","","1","0","","","","","","","","","","","","74","J","0","img/none_selected_demo.jpg","true","0","",""
"","text-replacement","40","290325","0.0-21.0","99064856","wem/bandit_party_1","AHPQVIEIBZOAS","either","6","5057","","","32","","","","","","","","","","","","","","","","","","","","","","","","","","","","","","","","","","","","",""
"","text-replacement","41","293231","0.0-22.0","99064856","wem/bandit_party_1","AHPQVIEIBZOAS","either","6","2902","","","32","","","","","","","","","","","","","","","","","","","","","","","","","","","","","","","","","","","","",""
"","text-replacement","42","297445","0.0-23.0","99064856","wem/bandit_party_1","AHPQVIEIBZOAS","either","6","4207","","","32","","","","","","","","","","","","","","","","","","","","","","","","","","","","","","","","","","","","",""
"","text-replacement","43","300468","0.0-24.0","99064856","wem/bandit_party_1","AHPQVIEIBZOAS","either","6","3018","","","32","","","","","","","","","","","","","","","","","","","","","","","","","","","","","","","","","","","","",""
"","text-replacement","44","306967","0.0-25.0","99064856","wem/bandit_party_1","AHPQVIEIBZOAS","either","6","6492","","","32","","","","","","","","","","","","","","","","","","","","","","","","","","","","","","","","","","","","",""
"","text-replacement","45","309075","0.0-26.0","99064856","wem/bandit_party_1","AHPQVIEIBZOAS","either","6","2102","","","32","","","","","","","","","","","","","","","","","","","","","","","","","","","","","","","","","","","","",""
"","text-replacement","46","312242","0.0-27.0","99064856","wem/bandit_party_1","AHPQVIEIBZOAS","either","6","3161","","","32","","","","","","","","","","","","","","","","","","","","","","","","","","","","","","","","","","","","",""
"","text-replacement","47","315681","0.0-28.0","99064856","wem/bandit_party_1","AHPQVIEIBZOAS","either","6","3434","","","32","","","","","","","","","","","","","","","","","","","","","","","","","","","","","","","","","","","","",""
"","text-replacement","48","321344","0.0-29.0","99064856","wem/bandit_party_1","AHPQVIEIBZOAS","either","6","5658","","","32","","","","","","","","","","","","","","","","","","","","","","","","","","","","","","","","","","","","",""
"","text-replacement","49","323274","0.0-30.0","99064856","wem/bandit_party_1","AHPQVIEIBZOAS","either","6","1907","","","32","","","","","","","","","","","","","","","","","","","","","","","","","","","","","","","","","","","","",""
"","text-replacement","50","333857","0.0-31.0","99064856","wem/bandit_party_1","AHPQVIEIBZOAS","either","6","10576","","","32","","","","","","","","","","","","","","","","","","","","","","","","","","","","","","","","","","","","",""
"","bandit","51","336588","0.0-32.0-0.0","99064856","wem/bandit_party_1","AHPQVIEIBZOAS","either","6","1212","","","","","","","0","0","1","0.8","","0.5","0.5","0.5","0.5","","","","","0.8","0.2","0.6","0.2","","","","","","","","","","72","H","0","img/none_selected.jpg","true","0","full_practice",""
"","bandit","52","338749","0.0-32.0-1.0","99064856","wem/bandit_party_1","AHPQVIEIBZOAS","either","6","653","","","","","","","0","0","1","","0.2","0.5","0.5","0.5","0.5","0.8","0.2","0.6","0.2","","","","","","","","","","","","","","74","J","1","","true","0","full_practice",""
"","bandit","53","340635","0.0-32.0-2.0","99064856","wem/bandit_party_1","AHPQVIEIBZOAS","either","6","372","","","","","","","1","0","0","0.6","","0.5","0.5","0.5","0.5","","","","","0.8","0.2","0.6","0.2","","","","","","","","","","75","K","2","","true","0","full_practice",""
"","bandit","54","342793","0.0-32.0-3.0","99064856","wem/bandit_party_1","AHPQVIEIBZOAS","either","6","639","","","","","","","0","1","0","","0.2","0.5","0.5","0.5","0.5","0.8","0.2","0.6","0.2","","","","","","","","","","","","","","76","L","3","","true","0","full_practice",""
"","bandit","55","344907","0.0-32.0-4.0","99064856","wem/bandit_party_1","AHPQVIEIBZOAS","either","6","576","","","","","","","0","0","1","","0.2","0.5","0.5","0.5","0.5","0.8","0.2","0.6","0.2","","","","","","","","","","","","","","76","L","3","","true","0","full_practice",""
"","bandit","56","346819","0.0-32.0-5.0","99064856","wem/bandit_party_1","AHPQVIEIBZOAS","either","6","398","","","","","","","0","0","1","0.2","","0.5","0.5","0.5","0.5","","","","","0.8","0.2","0.6","0.2","","","","","","","","","","76","L","3","","true","0","full_practice",""
"","bandit","57","348753","0.0-32.0-6.0","99064856","wem/bandit_party_1","AHPQVIEIBZOAS","either","6","415","","","","","","","1","0","0","0.2","","0.5","0.5","0.5","0.5","","","","","0.8","0.2","0.6","0.2","","","","","","","","","","76","L","3","","true","0","full_practice",""
"","bandit","58","350571","0.0-32.0-7.0","99064856","wem/bandit_party_1","AHPQVIEIBZOAS","either","6","297","","","","","","","1","0","0","0.6","","0.5","0.5","0.5","0.5","","","","","0.8","0.2","0.6","0.2","","","","","","","","","","75","K","2","","true","0","full_practice",""
"","bandit","59","352207","0.0-32.0-8.0","99064856","wem/bandit_party_1","AHPQVIEIBZOAS","either","6","118","","","","","","","1","0","0","0.6","","0.5","0.5","0.5","0.5","","","","","0.8","0.2","0.6","0.2","","","","","","","","","","75","K","2","","true","0","full_practice",""
"","bandit","60","354798","0.0-32.0-9.0","99064856","wem/bandit_party_1","AHPQVIEIBZOAS","either","6","1071","","","","","","","0","0","1","0.6","","0.5","0.5","0.5","0.5","","","","","0.8","0.2","0.6","0.2","","","","","","","","","","75","K","2","","true","0","full_practice",""
"","bandit","61","356486","0.0-32.0-10.0","99064856","wem/bandit_party_1","AHPQVIEIBZOAS","either","6","178","","","","","","","0","0","1","0.2","","0.5","0.5","0.5","0.5","","","","","0.8","0.2","0.6","0.2","","","","","","","","","","74","J","1","","true","0","full_practice",""
"","bandit","62","358973","0.0-32.0-11.0","99064856","wem/bandit_party_1","AHPQVIEIBZOAS","either","6","972","","","","","","","0","0","1","0.2","","0.5","0.5","0.5","0.5","","","","","0.8","0.2","0.6","0.2","","","","","","","","","","74","J","1","","true","0","full_practice",""
"","bandit","63","360948","0.0-32.0-12.0","99064856","wem/bandit_party_1","AHPQVIEIBZOAS","either","6","453","","","","","","","0","0","1","","0.2","0.5","0.5","0.5","0.5","0.8","0.2","0.6","0.2","","","","","","","","","","","","","","74","J","1","","true","0","full_practice",""
"","bandit","64","363222","0.0-32.0-13.0","99064856","wem/bandit_party_1","AHPQVIEIBZOAS","either","6","753","","","","","","","1","0","0","0.8","","0.5","0.5","0.5","0.5","","","","","0.8","0.2","0.6","0.2","","","","","","","","","","72","H","0","img/none_selected.jpg","true","0","full_practice",""
"","bandit","65","365153","0.0-32.0-14.0","99064856","wem/bandit_party_1","AHPQVIEIBZOAS","either","6","410","","","","","","","1","0","0","0.8","","0.5","0.5","0.5","0.5","","","","","0.8","0.2","0.6","0.2","","","","","","","","","","72","H","0","img/none_selected.jpg","true","0","full_practice",""
"","bandit","66","366719","0.0-32.0-15.0","99064856","wem/bandit_party_1","AHPQVIEIBZOAS","either","6","47","","","","","","","0","1","0","","0.8","0.5","0.5","0.5","0.5","0.8","0.2","0.6","0.2","","","","","","","","","","","","","","72","H","0","img/none_selected.jpg","true","0","full_practice",""
"","bandit","67","368711","0.0-32.0-16.0","99064856","wem/bandit_party_1","AHPQVIEIBZOAS","either","6","468","","","","","","","0","1","0","","0.8","0.5","0.5","0.5","0.5","0.8","0.2","0.6","0.2","","","","","","","","","","","","","","72","H","0","img/none_selected.jpg","true","0","full_practice",""
"","bandit","68","370474","0.0-32.0-17.0","99064856","wem/bandit_party_1","AHPQVIEIBZOAS","either","6","239","","","","","","","0","0","1","","0.2","0.5","0.5","0.5","0.5","0.8","0.2","0.6","0.2","","","","","","","","","","","","","","74","J","1","","true","0","full_practice",""
"","bandit","69","372415","0.0-32.0-18.0","99064856","wem/bandit_party_1","AHPQVIEIBZOAS","either","6","418","","","","","","","0","0","1","","0.2","0.5","0.5","0.5","0.5","0.8","0.2","0.6","0.2","","","","","","","","","","","","","","74","J","1","","true","0","full_practice",""
"","bandit","70","374595","0.0-32.0-19.0","99064856","wem/bandit_party_1","AHPQVIEIBZOAS","either","6","661","","","","","","","0","0","1","","0.6","0.5","0.5","0.5","0.5","0.8","0.2","0.6","0.2","","","","","","","","","","","","","","75","K","2","","true","0","full_practice",""
"","text","71","377596","0.0-33.0","99064856","wem/bandit_party_1","AHPQVIEIBZOAS","either","6","2970","","","32","","","","","","","","","","","","","","","","","","","","","","","","","","","","","","","","","","","","",""
"","text-replacement","72","395484","0.0-34.0","99064856","wem/bandit_party_1","AHPQVIEIBZOAS","either","6","16878","","","32","","","","","","","","","","","","","","","","","","","","","","","","","","","","","","","","","","","","",""
"","text-replacement","73","403470","0.0-35.0","99064856","wem/bandit_party_1","AHPQVIEIBZOAS","either","6","7979","","","32","","","","","","","","","","","","","","","","","","","","","","","","","","","","","","","","","","","","",""
"","text-replacement","74","407465","0.0-36.0","99064856","wem/bandit_party_1","AHPQVIEIBZOAS","either","6","3986","","","32","","","","","","","","","","","","","","","","","","","","","","","","","","","","","","","","","","","","",""
"","text-replacement","75","414046","0.0-37.0","99064856","wem/bandit_party_1","AHPQVIEIBZOAS","either","6","6576","","","32","","","","","","","","","","","","","","","","","","","","","","","","","","","","","","","","","","","","",""
"","text-replacement","76","417189","0.0-38.0","99064856","wem/bandit_party_1","AHPQVIEIBZOAS","either","6","3136","","","32","","","","","","","","","","","","","","","","","","","","","","","","","","","","","","","","","","","","",""
"","survey-multi-choice-replacement","77","422975","0.0-39.0-0.0","99064856","wem/bandit_party_1","AHPQVIEIBZOAS","either","6","5764","","","","","","","","","","","","","","","","","","","","","","","","Money will be added to the pool for <span style='color:blue;'>DEMOCRATS</span>","","","","","","","attn_check","","","","","","","","","0"
"","survey-multi-choice-replacement","78","428646","0.0-40.0-0.0","99064856","wem/bandit_party_1","AHPQVIEIBZOAS","either","6","4652","","","","","","","","","","","","","","","","","","","","","","","","Equal amounts of money will be added to the pool for <span style='color:blue;'>DEMOCRATS</span> and subtracted from the pool for <span style='color:red;'>REPUBLICANS</span>","","","","","","","attn_check","","","","","","","","","2"
"","survey-multi-choice-replacement","79","432165","0.0-41.0-0.0","99064856","wem/bandit_party_1","AHPQVIEIBZOAS","either","6","2489","","","","","","","","","","","","","","","","","","","","","","","","No money will be added to either pool","","","","","","","attn_check","","","","","","","","","3"
"","bandit","80","436942","0.0-42.0-0.0","99064856","wem/bandit_party_1","AHPQVIEIBZOAS","either","6","2262","","","","","","","0","0","1","0.06094066238","","0.4","0.8","0.2","0.6","","","","","0.06094066238","0.1734470434","0.4656478179","0.1720655487","","","","","","","","","","72","H","0","img/none_selected.jpg","","1","main_expt",""
"","bandit","81","439118","0.0-43.0-0.0","99064856","wem/bandit_party_1","AHPQVIEIBZOAS","either","6","658","","","","","","","0","0","1","0.1582158198","","0.4","0.8","0.2","0.6","","","","","0.04941180107","0.1582158198","0.4661883906","0.1607886358","","","","","","","","","","74","J","1","","","2","main_expt",""
"","bandit","82","440963","0.0-44.0-0.0","99064856","wem/bandit_party_1","AHPQVIEIBZOAS","either","6","328","","","","","","","0","0","1","","0.4608397999","0.4","0.8","0.2","0.6","0.09066711981","0.1264016625","0.4608397999","0.1825924006","","","","","","","","","","","","","","75","K","2","","","3","main_expt",""
"","bandit","83","442820","0.0-45.0-0.0","99064856","wem/bandit_party_1","AHPQVIEIBZOAS","either","6","339","","","","","","","0","0","1","","0.1572982515","0.4","0.8","0.2","0.6","0.07815644495","0.1212924903","0.4568511376","0.1572982515","","","","","","","","","","","","","","76","L","3","","","4","main_expt",""
"","bandit","84","444440","0.0-46.0-0.0","99064856","wem/bandit_party_1","AHPQVIEIBZOAS","either","6","108","","","","","","","0","0","1","","0.06547040057","0.4","0.8","0.2","0.6","0.06547040057","0.1603104869","0.4576747282","0.1873501432","","","","","","","","","","","","","","72","H","0","img/none_selected.jpg","","5","main_expt",""
"","bandit","85","446516","0.0-47.0-0.0","99064856","wem/bandit_party_1","AHPQVIEIBZOAS","either","6","564","","","","","","","0","0","1","0.1916070739","","0.4","0.8","0.2","0.6","","","","","0.09500806419","0.1916070739","0.4673201091","0.1484719509","","","","","","","","","","74","J","1","","","6","main_expt",""
"","bandit","86","448412","0.0-48.0-0.0","99064856","wem/bandit_party_1","AHPQVIEIBZOAS","either","6","375","","","","","","","0","0","1","0.1368680622","","0.4","0.8","0.2","0.6","","","","","0.1156714339","0.1624213819","0.4671816856","0.1368680622","","","","","","","","","","76","L","3","","","7","main_expt",""
"","bandit","87","450431","0.0-49.0-0.0","99064856","wem/bandit_party_1","AHPQVIEIBZOAS","either","6","490","","","","","","","0","1","0","","0.1529627983","0.4","0.8","0.2","0.6","0.08939878806","0.1529627983","0.4577650209","0.1412197478","","","","","","","","","","","","","","74","J","1","","","8","main_expt",""
"","bandit","88","452420","0.0-50.0-0.0","99064856","wem/bandit_party_1","AHPQVIEIBZOAS","either","6","477","","","","","","","0","0","1","","0.1638779","0.4","0.8","0.2","0.6","0.1379609943","0.1638779","0.4538037209","0.1285241668","","","","","","","","","","","","","","74","J","1","","","9","main_expt",""
"","bandit","89","454709","0.0-51.0-0.0","99064856","wem/bandit_party_1","AHPQVIEIBZOAS","either","6","760","","","","","","","0","0","1","","0.4567906288","0.4","0.8","0.2","0.6","0.08892925829","0.1682184418","0.4567906288","0.1137500729","","","","","","","","","","","","","","75","K","2","","","10","main_expt",""
"","bandit","90","456797","0.0-52.0-0.0","99064856","wem/bandit_party_1","AHPQVIEIBZOAS","either","6","561","","","","","","","0","0","1","0.1511948373","","0.4","0.8","0.2","0.6","","","","","0.1053961985","0.1511948373","0.4707556997","0.1134058804","","","","","","","","","","74","J","1","","","11","main_expt",""
"","bandit","91","458742","0.0-53.0-0.0","99064856","wem/bandit_party_1","AHPQVIEIBZOAS","either","6","414","","","","","","","0","0","1","","0.4534589675","0.4","0.8","0.2","0.6","0.1267534428","0.2144966391","0.4534589675","0.1358134986","","","","","","","","","","","","","","75","K","2","","","12","main_expt",""
"","bandit","92","460579","0.0-54.0-0.0","99064856","wem/bandit_party_1","AHPQVIEIBZOAS","either","6","309","","","","","","","1","0","0","0.4474824422","","0.4","0.8","0.2","0.6","","","","","0.1179877152","0.1443049275","0.4474824422","0.1105925571","","","","","","","","","","75","K","2","","","13","main_expt",""
"","bandit","93","462399","0.0-55.0-0.0","99064856","wem/bandit_party_1","AHPQVIEIBZOAS","either","6","294","","","","","","","0","1","0","","0.4125602811","0.4","0.8","0.2","0.6","0.1300626215","0.149160688","0.4125602811","0.09057326494","","","","","","","","","","","","","","75","K","2","","","14","main_expt",""
"","bandit","94","464348","0.0-56.0-0.0","99064856","wem/bandit_party_1","AHPQVIEIBZOAS","either","6","428","","","","","","","0","1","0","","0.3715785473","0.4","0.8","0.2","0.6","0.1129073675","0.1525333278","0.3715785473","0.05963436345","","","","","","","","","","","","","","75","K","2","","","15","main_expt",""
"","bandit","95","466262","0.0-57.0-0.0","99064856","wem/bandit_party_1","AHPQVIEIBZOAS","either","6","393","","","","","","","0","0","1","0.3670357029","","0.4","0.8","0.2","0.6","","","","","0.1132840383","0.1437253933","0.3670357029","0.03970917029","","","","","","","","","","75","K","2","","","16","main_expt",""
"","bandit","96","468154","0.0-58.0-0.0","99064856","wem/bandit_party_1","AHPQVIEIBZOAS","either","6","364","","","","","","","0","1","0","","0.333794799","0.4","0.8","0.2","0.6","0.1530786807","0.1191274054","0.333794799","0.03301664506","","","","","","","","","","","","","","75","K","2","","","17","main_expt",""
"","bandit","97","470016","0.0-59.0-0.0","99064856","wem/bandit_party_1","AHPQVIEIBZOAS","either","6","351","","","","","","","0","0","1","","0.3720862831","0.4","0.8","0.2","0.6","0.1367655081","0.1231388663","0.3720862831","0.0325619","","","","","","","","","","","","","","75","K","2","","","18","main_expt",""
"","bandit","98","471819","0.0-60.0-0.0","99064856","wem/bandit_party_1","AHPQVIEIBZOAS","either","6","281","","","","","","","1","0","0","0.3940248177","","0.4","0.8","0.2","0.6","","","","","0.1519969922","0.1014962652","0.3940248177","0.05136562407","","","","","","","","","","75","K","2","","","19","main_expt",""
"","bandit","99","473660","0.0-61.0-0.0","99064856","wem/bandit_party_1","AHPQVIEIBZOAS","either","6","308","","","","","","","0","1","0","","0.3980303587","0.4","0.8","0.2","0.6","0.2344823222","0.1184271466","0.3980303587","0.05620034239","","","","","","","","","","","","","","75","K","2","","","20","main_expt",""
"","bandit","100","475370","0.0-62.0-0.0","99064856","wem/bandit_party_1","AHPQVIEIBZOAS","either","6","192","","","","","","","0","1","0","","0.405953395","0.4","0.8","0.2","0.6","0.2227593861","0.1434190777","0.405953395","0.04865895453","","","","","","","","","","","","","","75","K","2","","","21","main_expt",""
"","bandit","101","477094","0.0-63.0-0.0","99064856","wem/bandit_party_1","AHPQVIEIBZOAS","either","6","202","","","","","","","0","0","1","0.37898799","","0.4","0.8","0.2","0.6","","","","","0.1831098024","0.1323354157","0.37898799","0.05276066643","","","","","","","","","","75","K","2","","","22","main_expt",""
"","bandit","102","478904","0.0-64.0-0.0","99064856","wem/bandit_party_1","AHPQVIEIBZOAS","either","6","298","","","","","","","0","1","0","","0.3661255489","0.4","0.8","0.2","0.6","0.1660310818","0.1384191998","0.3661255489","0.05284133488","","","","","","","","","","","","","","75","K","2","","","23","main_expt",""
"","bandit","103","480670","0.0-65.0-0.0","99064856","wem/bandit_party_1","AHPQVIEIBZOAS","either","6","255","","","","","","","0","1","0","","0.3576379461","0.4","0.8","0.2","0.6","0.1400827643","0.1395593146","0.3576379461","0.0333904923","","","","","","","","","","","","","","75","K","2","","","24","main_expt",""
"","bandit","104","482355","0.0-66.0-0.0","99064856","wem/bandit_party_1","AHPQVIEIBZOAS","either","6","161","","","","","","","0","1","0","","0.3346121782","0.4","0.8","0.2","0.6","0.2022937807","0.1696236693","0.3346121782","0.04666446392","","","","","","","","","","","","","","75","K","2","","","25","main_expt",""
"","bandit","105","484195","0.0-67.0-0.0","99064856","wem/bandit_party_1","AHPQVIEIBZOAS","either","6","317","","","","","","","0","1","0","","0.3790434843","0.4","0.8","0.2","0.6","0.1725383963","0.1754084838","0.3790434843","0.04067930801","","","","","","","","","","","","","","75","K","2","","","26","main_expt",""
"","bandit","106","486042","0.0-68.0-0.0","99064856","wem/bandit_party_1","AHPQVIEIBZOAS","either","6","326","","","","","","","0","0","1","0.3744762435","","0.4","0.8","0.2","0.6","","","","","0.1735642386","0.118483546","0.3744762435","0.03070036018","","","","","","","","","","75","K","2","","","27","main_expt",""
"","bandit","107","488517","0.0-69.0-0.0","99064856","wem/bandit_party_1","AHPQVIEIBZOAS","either","6","950","","","","","","","0","0","1","0.3650769418","","0.4","0.8","0.2","0.6","","","","","0.149532802","0.1259847853","0.3650769418","0.02292460278","","","","","","","","","","75","K","2","","","28","main_expt",""
"","bandit","108","491225","0.0-70.0-0.0","99064856","wem/bandit_party_1","AHPQVIEIBZOAS","either","6","1188","","","","","","","0","0","1","","0.3299345172","0.4","0.8","0.2","0.6","0.1597785082","0.1072727049","0.3299345172","0.03476379039","","","","","","","","","","","","","","75","K","2","","","29","main_expt",""
"","bandit","109","493385","0.0-71.0-0.0","99064856","wem/bandit_party_1","AHPQVIEIBZOAS","either","6","637","","","","","","","0","0","1","","0.04211589453","0.4","0.8","0.2","0.6","0.1978771271","0.07952930744","0.3010095271","0.04211589453","","","","","","","","","","","","","","76","L","3","","","30","main_expt",""
"","bandit","110","495912","0.0-72.0-0.0","99064856","wem/bandit_party_1","AHPQVIEIBZOAS","either","6","1008","","","","","","","0","0","1","0.09691030242","","0.4","0.8","0.2","0.6","","","","","0.1928768267","0.09691030242","0.331530841","0.04495483672","","","","","","","","","","74","J","1","","","31","main_expt",""
"","bandit","111","497918","0.0-73.0-0.0","99064856","wem/bandit_party_1","AHPQVIEIBZOAS","either","6","492","","","","","","","0","0","1","0.1511047494","","0.4","0.8","0.2","0.6","","","","","0.1511047494","0.1338720944","0.3469043085","0.04126869591","","","","","","","","","","72","H","0","img/none_selected.jpg","","32","main_expt",""
"","bandit","112","499776","0.0-74.0-0.0","99064856","wem/bandit_party_1","AHPQVIEIBZOAS","either","6","345","","","","","","","0","0","1","0.2778139242","","0.4","0.8","0.2","0.6","","","","","0.09247049486","0.1428203538","0.2778139242","0.02396570111","","","","","","","","","","75","K","2","","","33","main_expt",""
"","bandit","113","501594","0.0-75.0-0.0","99064856","wem/bandit_party_1","AHPQVIEIBZOAS","either","6","292","","","","","","","0","0","1","","0.236883459","0.4","0.8","0.2","0.6","0.1127946788","0.1258169527","0.236883459","0.03561151332","","","","","","","","","","","","","","75","K","2","","","34","main_expt",""
"","bandit","114","503233","0.0-76.0-0.0","99064856","wem/bandit_party_1","AHPQVIEIBZOAS","either","6","117","","","","","","","0","0","1","0.1652362889","","0.4","0.8","0.2","0.6","","","","","0.1279928094","0.1652362889","0.2656196476","0.04565222073","","","","","","","","","","74","J","1","","","35","main_expt",""
"","bandit","115","505309","0.0-77.0-0.0","99064856","wem/bandit_party_1","AHPQVIEIBZOAS","either","6","565","","","","","","","0","0","1","0.09285608896","","0.4","0.8","0.2","0.6","","","","","0.09285608896","0.1472348388","0.2309028503","0.05036449293","","","","","","","","","","72","H","0","img/none_selected.jpg","","36","main_expt",""
"","bandit","116","507233","0.0-78.0-0.0","99064856","wem/bandit_party_1","AHPQVIEIBZOAS","either","6","398","","","","","","","0","0","1","0.1251507517","","0.4","0.8","0.2","0.6","","","","","0.1251507517","0.20581188","0.1961267878","0.04764774511","","","","","","","","","","72","H","0","img/none_selected.jpg","","37","main_expt",""
"","bandit","117","509111","0.0-79.0-0.0","99064856","wem/bandit_party_1","AHPQVIEIBZOAS","either","6","349","","","","","","","0","0","1","0.04692466818","","0.4","0.8","0.2","0.6","","","","","0.1248439258","0.2096070571","0.2197692452","0.04692466818","","","","","","","","","","76","L","3","","","38","main_expt",""
"","bandit","118","510714","0.0-80.0-0.0","99064856","wem/bandit_party_1","AHPQVIEIBZOAS","either","6","62","","","","","","","0","1","0","","0.1783178102","0.4","0.8","0.2","0.6","0.1192858938","0.1888903691","0.1783178102","0.06150360576","","","","","","","","","","","","","","75","K","2","","","39","main_expt",""
"","bandit","119","512527","0.0-81.0-0.0","99064856","wem/bandit_party_1","AHPQVIEIBZOAS","either","6","290","","","","","","","0","0","1","","0.1354267005","0.4","0.8","0.2","0.6","0.1457630933","0.1769314034","0.1354267005","0.1025324214","","","","","","","","","","","","","","75","K","2","","","40","main_expt",""
"","bandit","120","514357","0.0-82.0-0.0","99064856","wem/bandit_party_1","AHPQVIEIBZOAS","either","6","315","","","","","","","0","1","0","","0.1307301687","0.4","0.8","0.2","0.6","0.1788887836","0.1764673912","0.1307301687","0.1278282258","","","","","","","","","","","","","","75","K","2","","","41","main_expt",""
"","bandit","121","516228","0.0-83.0-0.0","99064856","wem/bandit_party_1","AHPQVIEIBZOAS","either","6","362","","","","","","","0","1","0","","0.1002459791","0.4","0.8","0.2","0.6","0.1550439797","0.1164002711","0.1002459791","0.1144783829","","","","","","","","","","","","","","75","K","2","","","42","main_expt",""
"","bandit","122","518091","0.0-84.0-0.0","99064856","wem/bandit_party_1","AHPQVIEIBZOAS","either","6","335","","","","","","","0","0","1","","0.06131682752","0.4","0.8","0.2","0.6","0.1624336935","0.1248357276","0.06131682752","0.148274456","","","","","","","","","","","","","","75","K","2","","","43","main_expt",""
"","bandit","123","519984","0.0-85.0-0.0","99064856","wem/bandit_party_1","AHPQVIEIBZOAS","either","6","361","","","","","","","0","0","1","","0.05757194937","0.4","0.8","0.2","0.6","0.2610419313","0.1801883524","0.05757194937","0.1733993608","","","","","","","","","","","","","","75","K","2","","","44","main_expt",""
"","bandit","124","521820","0.0-86.0-0.0","99064856","wem/bandit_party_1","AHPQVIEIBZOAS","either","6","311","","","","","","","0","0","1","","0.06317169253","0.4","0.8","0.2","0.6","0.2547096211","0.1536252234","0.06317169253","0.1731137141","","","","","","","","","","","","","","75","K","2","","","45","main_expt",""
"","bandit","125","523684","0.0-87.0-0.0","99064856","wem/bandit_party_1","AHPQVIEIBZOAS","either","6","339","","","","","","","0","0","1","","0.08604650327","0.4","0.8","0.2","0.6","0.2690630982","0.1453657368","0.08604650327","0.2577534017","","","","","","","","","","","","","","75","K","2","","","46","main_expt",""
"","bandit","126","525481","0.0-88.0-0.0","99064856","wem/bandit_party_1","AHPQVIEIBZOAS","either","6","266","","","","","","","0","0","1","","0.07503215105","0.4","0.8","0.2","0.6","0.2613787364","0.1163474927","0.07503215105","0.2436059896","","","","","","","","","","","","","","75","K","2","","","47","main_expt",""
"","bandit","127","527519","0.0-89.0-0.0","99064856","wem/bandit_party_1","AHPQVIEIBZOAS","either","6","519","","","","","","","0","1","0","","0.09661626413","0.4","0.8","0.2","0.6","0.2764851171","0.1187671899","0.09661626413","0.261356988","","","","","","","","","","","","","","75","K","2","","","48","main_expt",""
"","bandit","128","529623","0.0-90.0-0.0","99064856","wem/bandit_party_1","AHPQVIEIBZOAS","either","6","579","","","","","","","0","0","1","0.141419135","","0.4","0.8","0.2","0.6","","","","","0.2628846066","0.1321787199","0.141419135","0.2707362224","","","","","","","","","","75","K","2","","","49","main_expt",""
"","bandit","129","531511","0.0-91.0-0.0","99064856","wem/bandit_party_1","AHPQVIEIBZOAS","either","6","366","","","","","","","0","0","1","","0.1341637883","0.4","0.8","0.2","0.6","0.3634831931","0.1310663867","0.1341637883","0.2733601765","","","","","","","","","","","","","","75","K","2","","","50","main_expt",""
"","bandit","130","533665","0.0-92.0-0.0","99064856","wem/bandit_party_1","AHPQVIEIBZOAS","either","6","639","","","","","","","0","0","1","","0.1225974466","0.4","0.8","0.2","0.6","0.3771608335","0.1450472339","0.1225974466","0.2590969561","","","","","","","","","","","","","","75","K","2","","","51","main_expt",""
"","bandit","131","536126","0.0-93.0-0.0","99064856","wem/bandit_party_1","AHPQVIEIBZOAS","either","6","935","","","","","","","0","0","1","","0.1145468474","0.4","0.8","0.2","0.6","0.3093307572","0.1731775471","0.1145468474","0.2515646212","","","","","","","","","","","","","","75","K","2","","","52","main_expt",""
"","bandit","132","537907","0.0-94.0-0.0","99064856","wem/bandit_party_1","AHPQVIEIBZOAS","either","6","258","","","","","","","0","1","0","","0.1059564611","0.4","0.8","0.2","0.6","0.2990929044","0.2258016315","0.1059564611","0.2257746054","","","","","","","","","","","","","","75","K","2","","","53","main_expt",""
"","bandit","133","539861","0.0-95.0-0.0","99064856","wem/bandit_party_1","AHPQVIEIBZOAS","either","6","426","","","","","","","0","1","0","","0.1090017536","0.4","0.8","0.2","0.6","0.2221679908","0.2172527187","0.1090017536","0.2750925763","","","","","","","","","","","","","","75","K","2","","","54","main_expt",""
"","bandit","134","541495","0.0-96.0-0.0","99064856","wem/bandit_party_1","AHPQVIEIBZOAS","either","6","118","","","","","","","0","0","1","","0.1249444004","0.4","0.8","0.2","0.6","0.1886471815","0.1652356872","0.1249444004","0.3608357377","","","","","","","","","","","","","","75","K","2","","","55","main_expt",""
"","bandit","135","544281","0.0-97.0-0.0","99064856","wem/bandit_party_1","AHPQVIEIBZOAS","either","6","1260","","","","","","","0","0","1","","0.09043885587","0.4","0.8","0.2","0.6","0.1973213641","0.1576418272","0.09043885587","0.4022545085","","","","","","","","","","","","","","75","K","2","","","56","main_expt",""
"","bandit","136","546096","0.0-98.0-0.0","99064856","wem/bandit_party_1","AHPQVIEIBZOAS","either","6","283","","","","","","","0","0","1","","0.07448640425","0.4","0.8","0.2","0.6","0.2207101474","0.180776926","0.07448640425","0.3867568464","","","","","","","","","","","","","","75","K","2","","","57","main_expt",""
"","bandit","137","548135","0.0-99.0-0.0","99064856","wem/bandit_party_1","AHPQVIEIBZOAS","either","6","513","","","","","","","0","0","1","","0.09808879237","0.4","0.8","0.2","0.6","0.2480089655","0.1489081552","0.09808879237","0.3840355114","","","","","","","","","","","","","","75","K","2","","","58","main_expt",""
"","bandit","138","549767","0.0-100.0-0.0","99064856","wem/bandit_party_1","AHPQVIEIBZOAS","either","6","115","","","","","","","0","1","0","","0.0721355853","0.4","0.8","0.2","0.6","0.2667579505","0.125555473","0.0721355853","0.3617876187","","","","","","","","","","","","","","75","K","2","","","59","main_expt",""
"","bandit","139","551681","0.0-101.0-0.0","99064856","wem/bandit_party_1","AHPQVIEIBZOAS","either","6","396","","","","","","","0","0","1","","0.08871326978","0.4","0.8","0.2","0.6","0.2637313595","0.1228814318","0.08871326978","0.3018070945","","","","","","","","","","","","","","75","K","2","","","60","main_expt",""
"","bandit","140","553725","0.0-102.0-0.0","99064856","wem/bandit_party_1","AHPQVIEIBZOAS","either","6","519","","","","","","","0","1","0","","0.1472383223","0.4","0.8","0.2","0.6","0.2400462537","0.195834737","0.1472383223","0.2687465691","","","","","","","","","","","","","","75","K","2","","","61","main_expt",""
"","bandit","141","555673","0.0-103.0-0.0","99064856","wem/bandit_party_1","AHPQVIEIBZOAS","either","6","420","","","","","","","0","0","1","","0.1625866577","0.4","0.8","0.2","0.6","0.2396546157","0.1952904108","0.1625866577","0.287622952","","","","","","","","","","","","","","75","K","2","","","62","main_expt",""
"","bandit","142","557675","0.0-104.0-0.0","99064856","wem/bandit_party_1","AHPQVIEIBZOAS","either","6","482","","","","","","","0","1","0","","0.1196153378","0.4","0.8","0.2","0.6","0.2558687718","0.187392073","0.1196153378","0.2060093557","","","","","","","","","","","","","","75","K","2","","","63","main_expt",""
"","bandit","143","560520","0.0-105.0-0.0","99064856","wem/bandit_party_1","AHPQVIEIBZOAS","either","6","1322","","","","","","","0","0","1","","0.1025290435","0.4","0.8","0.2","0.6","0.1789331692","0.1774517964","0.1025290435","0.1865830226","","","","","","","","","","","","","","75","K","2","","","64","main_expt",""
"","bandit","144","562150","0.0-106.0-0.0","99064856","wem/bandit_party_1","AHPQVIEIBZOAS","either","6","99","","","","","","","0","0","1","","0.06637487434","0.4","0.8","0.2","0.6","0.2041721298","0.1956590225","0.06637487434","0.2242960511","","","","","","","","","","","","","","75","K","2","","","65","main_expt",""
"","bandit","145","564026","0.0-107.0-0.0","99064856","wem/bandit_party_1","AHPQVIEIBZOAS","either","6","349","","","","","","","0","0","1","","0.09888809835","0.4","0.8","0.2","0.6","0.1083731131","0.1559932489","0.09888809835","0.213739571","","","","","","","","","","","","","","75","K","2","","","66","main_expt",""
"","bandit","146","565850","0.0-108.0-0.0","99064856","wem/bandit_party_1","AHPQVIEIBZOAS","either","6","294","","","","","","","0","0","1","","0.08542348091","0.4","0.8","0.2","0.6","0.08148965902","0.1327283285","0.08542348091","0.2463093088","","","","","","","","","","","","","","75","K","2","","","67","main_expt",""
"","bandit","147","567521","0.0-109.0-0.0","99064856","wem/bandit_party_1","AHPQVIEIBZOAS","either","6","156","","","","","","","0","0","1","0.05648132023","","0.4","0.8","0.2","0.6","","","","","0.115871946","0.1646421129","0.05648132023","0.1863602012","","","","","","","","","","75","K","2","","","68","main_expt",""
"","bandit","148","569515","0.0-110.0-0.0","99064856","wem/bandit_party_1","AHPQVIEIBZOAS","either","6","481","","","","","","","0","0","1","0.1879918005","","0.4","0.8","0.2","0.6","","","","","0.1049465522","0.1879918005","0.07427448495","0.1481768435","","","","","","","","","","74","J","1","","","69","main_expt",""
"","bandit","149","571565","0.0-111.0-0.0","99064856","wem/bandit_party_1","AHPQVIEIBZOAS","either","6","525","","","","","","","0","1","0","","0.1224614501","0.4","0.8","0.2","0.6","0.1224614501","0.1708527721","0.1052870039","0.2062415021","","","","","","","","","","","","","","72","H","0","img/none_selected.jpg","","70","main_expt",""
"","bandit","150","573438","0.0-112.0-0.0","99064856","wem/bandit_party_1","AHPQVIEIBZOAS","either","6","349","","","","","","","0","0","1","0.1687358413","","0.4","0.8","0.2","0.6","","","","","0.1687358413","0.1930923514","0.1114501371","0.2175562698","","","","","","","","","","72","H","0","img/none_selected.jpg","","71","main_expt",""
"","bandit","151","575419","0.0-113.0-0.0","99064856","wem/bandit_party_1","AHPQVIEIBZOAS","either","6","455","","","","","","","0","1","0","","0.1902964731","0.4","0.8","0.2","0.6","0.1902964731","0.2289396243","0.1282799478","0.2182173038","","","","","","","","","","","","","","72","H","0","img/none_selected.jpg","","72","main_expt",""
"","bandit","152","577273","0.0-114.0-0.0","99064856","wem/bandit_party_1","AHPQVIEIBZOAS","either","6","308","","","","","","","1","0","0","0.1764690901","","0.4","0.8","0.2","0.6","","","","","0.1764690901","0.2223781067","0.1113050996","0.1629952044","","","","","","","","","","72","H","0","img/none_selected.jpg","","73","main_expt",""
"","bandit","153","579137","0.0-115.0-0.0","99064856","wem/bandit_party_1","AHPQVIEIBZOAS","either","6","338","","","","","","","0","0","1","","0.1720288853","0.4","0.8","0.2","0.6","0.1720288853","0.1664819569","0.1573287606","0.2291178652","","","","","","","","","","","","","","72","H","0","img/none_selected.jpg","","74","main_expt",""
"","bandit","154","580975","0.0-116.0-0.0","99064856","wem/bandit_party_1","AHPQVIEIBZOAS","either","6","308","","","","","","","0","0","1","0.098780463","","0.4","0.8","0.2","0.6","","","","","0.098780463","0.1157276324","0.168318459","0.2087405931","","","","","","","","","","72","H","0","img/none_selected.jpg","","75","main_expt",""
"","bandit","155","582867","0.0-117.0-0.0","99064856","wem/bandit_party_1","AHPQVIEIBZOAS","either","6","366","","","","","","","0","0","1","","0.08192786134","0.4","0.8","0.2","0.6","0.08192786134","0.06912044911","0.131742089","0.1981976751","","","","","","","","","","","","","","72","H","0","img/none_selected.jpg","","76","main_expt",""
"","bandit","156","584756","0.0-118.0-0.0","99064856","wem/bandit_party_1","AHPQVIEIBZOAS","either","6","374","","","","","","","0","0","1","0.03620126105","","0.4","0.8","0.2","0.6","","","","","0.03620126105","0.06151132513","0.1382621175","0.2302368041","","","","","","","","","","72","H","0","img/none_selected.jpg","","77","main_expt",""
"","bandit","157","586633","0.0-119.0-0.0","99064856","wem/bandit_party_1","AHPQVIEIBZOAS","either","6","364","","","","","","","1","0","0","0.2538269909","","0.4","0.8","0.2","0.6","","","","","0.03362754592","0.08824794056","0.1351161864","0.2538269909","","","","","","","","","","76","L","3","","","78","main_expt",""
"","bandit","158","588668","0.0-120.0-0.0","99064856","wem/bandit_party_1","AHPQVIEIBZOAS","either","6","511","","","","","","","1","0","0","0.221492582","","0.4","0.8","0.2","0.6","","","","","0.03917851348","0.08425003046","0.1125986002","0.221492582","","","","","","","","","","76","L","3","","","79","main_expt",""
"","bandit","159","590580","0.0-121.0-0.0","99064856","wem/bandit_party_1","AHPQVIEIBZOAS","either","6","386","","","","","","","0","0","1","0.2126184008","","0.4","0.8","0.2","0.6","","","","","0.06916691586","0.1059393704","0.1071358869","0.2126184008","","","","","","","","","","76","L","3","","","80","main_expt",""
"","bandit","160","592459","0.0-122.0-0.0","99064856","wem/bandit_party_1","AHPQVIEIBZOAS","either","6","347","","","","","","","0","0","1","0.1803612399","","0.4","0.8","0.2","0.6","","","","","0.1110223174","0.114990546","0.1410751298","0.1803612399","","","","","","","","","","76","L","3","","","81","main_expt",""
"","bandit","161","594287","0.0-123.0-0.0","99064856","wem/bandit_party_1","AHPQVIEIBZOAS","either","6","294","","","","","","","0","0","1","","0.1883980103","0.4","0.8","0.2","0.6","0.08899533144","0.1246300745","0.1518454263","0.1883980103","","","","","","","","","","","","","","76","L","3","","","82","main_expt",""
"","bandit","162","596334","0.0-124.0-0.0","99064856","wem/bandit_party_1","AHPQVIEIBZOAS","either","6","520","","","","","","","0","1","0","","0.1523433176","0.4","0.8","0.2","0.6","0.1383499545","0.1523433176","0.1285150734","0.2099895667","","","","","","","","","","","","","","74","J","1","","","83","main_expt",""
"","bandit","163","598118","0.0-125.0-0.0","99064856","wem/bandit_party_1","AHPQVIEIBZOAS","either","6","272","","","","","","","0","1","0","","0.1230513595","0.4","0.8","0.2","0.6","0.1815119679","0.1230513595","0.1083679187","0.1760666055","","","","","","","","","","","","","","74","J","1","","","84","main_expt",""
"","bandit","164","599972","0.0-126.0-0.0","99064856","wem/bandit_party_1","AHPQVIEIBZOAS","either","6","328","","","","","","","0","0","1","0.1460595132","","0.4","0.8","0.2","0.6","","","","","0.2121304898","0.1460595132","0.08985983991","0.2077415988","","","","","","","","","","74","J","1","","","85","main_expt",""
"","bandit","165","601799","0.0-127.0-0.0","99064856","wem/bandit_party_1","AHPQVIEIBZOAS","either","6","305","","","","","","","0","0","1","0.1578730034","","0.4","0.8","0.2","0.6","","","","","0.1931166697","0.1578730034","0.08377758623","0.1940704576","","","","","","","","","","74","J","1","","","86","main_expt",""
"","bandit","166","603554","0.0-128.0-0.0","99064856","wem/bandit_party_1","AHPQVIEIBZOAS","either","6","232","","","","","","","0","0","1","0.1329566931","","0.4","0.8","0.2","0.6","","","","","0.1908876969","0.1329566931","0.08340742779","0.1920524506","","","","","","","","","","74","J","1","","","87","main_expt",""
"","bandit","167","605252","0.0-129.0-0.0","99064856","wem/bandit_party_1","AHPQVIEIBZOAS","either","6","174","","","","","","","0","0","1","","0.1156353122","0.4","0.8","0.2","0.6","0.1727332377","0.1156353122","0.06937011617","0.2525081946","","","","","","","","","","","","","","74","J","1","","","88","main_expt",""
"","bandit","168","607077","0.0-130.0-0.0","99064856","wem/bandit_party_1","AHPQVIEIBZOAS","either","6","297","","","","","","","0","1","0","","0.2476280913","0.4","0.8","0.2","0.6","0.1747664758","0.1169245856","0.08556693901","0.2476280913","","","","","","","","","","","","","","76","L","3","","","89","main_expt",""
"","bandit","169","609031","0.0-131.0-0.0","99064856","wem/bandit_party_1","AHPQVIEIBZOAS","either","6","424","","","","","","","0","0","1","0.2476417222","","0.4","0.8","0.2","0.6","","","","","0.1302891894","0.1276927611","0.1013294801","0.2476417222","","","","","","","","","","76","L","3","","","90","main_expt",""
"","bandit","170","610799","0.0-132.0-0.0","99064856","wem/bandit_party_1","AHPQVIEIBZOAS","either","6","252","","","","","","","1","0","0","0.1875867431","","0.4","0.8","0.2","0.6","","","","","0.1143331172","0.1633868825","0.1567130635","0.1875867431","","","","","","","","","","76","L","3","","","91","main_expt",""
"","bandit","171","612665","0.0-133.0-0.0","99064856","wem/bandit_party_1","AHPQVIEIBZOAS","either","6","336","","","","","","","0","0","1","","0.1804963823","0.4","0.8","0.2","0.6","0.1674068059","0.2172033847","0.1214255195","0.1804963823","","","","","","","","","","","","","","76","L","3","","","92","main_expt",""
"","bandit","172","614574","0.0-134.0-0.0","99064856","wem/bandit_party_1","AHPQVIEIBZOAS","either","6","370","","","","","","","1","0","0","0.1468121695","","0.4","0.8","0.2","0.6","","","","","0.1405005834","0.2178255547","0.1317465968","0.1468121695","","","","","","","","","","76","L","3","","","93","main_expt",""
"","bandit","173","616556","0.0-135.0-0.0","99064856","wem/bandit_party_1","AHPQVIEIBZOAS","either","6","436","","","","","","","0","0","1","0.1270151289","","0.4","0.8","0.2","0.6","","","","","0.1338278818","0.2058786334","0.1810196293","0.1270151289","","","","","","","","","","76","L","3","","","94","main_expt",""
"","bandit","174","618419","0.0-136.0-0.0","99064856","wem/bandit_party_1","AHPQVIEIBZOAS","either","6","335","","","","","","","0","0","1","0.1049494322","","0.4","0.8","0.2","0.6","","","","","0.16416917","0.2009860572","0.1537803575","0.1049494322","","","","","","","","","","76","L","3","","","95","main_expt",""
"","bandit","175","620216","0.0-137.0-0.0","99064856","wem/bandit_party_1","AHPQVIEIBZOAS","either","6","275","","","","","","","0","0","1","","0.1242023773","0.4","0.8","0.2","0.6","0.1075549125","0.2792576191","0.2255368078","0.1242023773","","","","","","","","","","","","","","76","L","3","","","96","main_expt",""
"","bandit","176","621897","0.0-138.0-0.0","99064856","wem/bandit_party_1","AHPQVIEIBZOAS","either","6","167","","","","","","","0","0","1","","0.101802889","0.4","0.8","0.2","0.6","0.07285617598","0.291042229","0.1881791955","0.101802889","","","","","","","","","","","","","","76","L","3","","","97","main_expt",""
"","bandit","177","623696","0.0-139.0-0.0","99064856","wem/bandit_party_1","AHPQVIEIBZOAS","either","6","264","","","","","","","0","0","1","","0.2919937097","0.4","0.8","0.2","0.6","0.1128802937","0.2919937097","0.1722186849","0.08559904752","","","","","","","","","","","","","","74","J","1","","","98","main_expt",""
"","bandit","178","625549","0.0-140.0-0.0","99064856","wem/bandit_party_1","AHPQVIEIBZOAS","either","6","326","","","","","","","0","0","1","0.338066437","","0.4","0.8","0.2","0.6","","","","","0.07338875894","0.338066437","0.2581810796","0.04480153982","","","","","","","","","","74","J","1","","","99","main_expt",""
"","bandit","179","627165","0.0-141.0-0.0","99064856","wem/bandit_party_1","AHPQVIEIBZOAS","either","6","89","","","","","","","0","0","1","","0.06256672301","0.4","0.8","0.2","0.6","0.06256672301","0.3466775547","0.3094702251","0.03694367041","","","","","","","","","","","","","","72","H","0","img/none_selected.jpg","","100","main_expt",""
"","bandit","180","628837","0.0-142.0-0.0","99064856","wem/bandit_party_1","AHPQVIEIBZOAS","either","6","160","","","","","","","0","0","1","","0.3217449289","0.4","0.8","0.2","0.6","0.06765033746","0.3776837944","0.3217449289","0.02534596886","","","","","","","","","","","","","","75","K","2","","","101","main_expt",""
"","bandit","181","630732","0.0-143.0-0.0","99064856","wem/bandit_party_1","AHPQVIEIBZOAS","either","6","371","","","","","","","0","0","1","0.08460413752","","0.4","0.8","0.2","0.6","","","","","0.08460413752","0.3988278911","0.3656493725","0.03456503798","","","","","","","","","","72","H","0","img/none_selected.jpg","","102","main_expt",""
"","bandit","182","632266","0.0-144.0-0.0","99064856","wem/bandit_party_1","AHPQVIEIBZOAS","either","6","4","","","","","","","0","0","1","0.03116272615","","0.4","0.8","0.2","0.6","","","","","0.1149622558","0.3642388176","0.4097417878","0.03116272615","","","","","","","","","","76","L","3","","","103","main_expt",""
"","bandit","183","633928","0.0-145.0-0.0","99064856","wem/bandit_party_1","AHPQVIEIBZOAS","either","6","136","","","","","","","0","0","1","","0.04034009898","0.4","0.8","0.2","0.6","0.1223821921","0.3059376685","0.4005896235","0.04034009898","","","","","","","","","","","","","","76","L","3","","","104","main_expt",""
"","bandit","184","635466","0.0-146.0-0.0","99064856","wem/bandit_party_1","AHPQVIEIBZOAS","either","6","12","","","","","","","0","1","0","","0.06132200156","0.4","0.8","0.2","0.6","0.1302837569","0.2658022239","0.3967946647","0.06132200156","","","","","","","","","","","","","","76","L","3","","","105","main_expt",""
"","bandit","185","637271","0.0-147.0-0.0","99064856","wem/bandit_party_1","AHPQVIEIBZOAS","either","6","277","","","","","","","0","0","1","0.03171667797","","0.4","0.8","0.2","0.6","","","","","0.1405927316","0.2583534607","0.3920329447","0.03171667797","","","","","","","","","","76","L","3","","","106","main_expt",""
"","bandit","186","638978","0.0-148.0-0.0","99064856","wem/bandit_party_1","AHPQVIEIBZOAS","either","6","192","","","","","","","0","0","1","0.06603394544","","0.4","0.8","0.2","0.6","","","","","0.1835021143","0.2402432731","0.3973329777","0.06603394544","","","","","","","","","","76","L","3","","","107","main_expt",""
"","bandit","187","640831","0.0-149.0-0.0","99064856","wem/bandit_party_1","AHPQVIEIBZOAS","either","6","328","","","","","","","0","0","1","0.08137973005","","0.4","0.8","0.2","0.6","","","","","0.2124513917","0.2364509509","0.3839010997","0.08137973005","","","","","","","","","","76","L","3","","","108","main_expt",""
"","bandit","188","642498","0.0-150.0-0.0","99064856","wem/bandit_party_1","AHPQVIEIBZOAS","either","6","131","","","","","","","0","0","1","0.04765661509","","0.4","0.8","0.2","0.6","","","","","0.218007314","0.2164051194","0.3879107289","0.04765661509","","","","","","","","","","76","L","3","","","109","main_expt",""
"","bandit","189","644281","0.0-151.0-0.0","99064856","wem/bandit_party_1","AHPQVIEIBZOAS","either","6","258","","","","","","","0","0","1","0.06789381979","","0.4","0.8","0.2","0.6","","","","","0.229469423","0.1611838666","0.3989855113","0.06789381979","","","","","","","","","","76","L","3","","","110","main_expt",""
"","bandit","190","646599","0.0-152.0-0.0","99064856","wem/bandit_party_1","AHPQVIEIBZOAS","either","6","806","","","","","","","0","0","1","","0.08972795074","0.4","0.8","0.2","0.6","0.2923436213","0.2042622235","0.3959495959","0.08972795074","","","","","","","","","","","","","","76","L","3","","","111","main_expt",""
"","bandit","191","648283","0.0-153.0-0.0","99064856","wem/bandit_party_1","AHPQVIEIBZOAS","either","6","156","","","","","","","0","0","1","0.1176683061","","0.4","0.8","0.2","0.6","","","","","0.2778802509","0.2113733305","0.335596647","0.1176683061","","","","","","","","","","76","L","3","","","112","main_expt",""
"","bandit","192","650131","0.0-154.0-0.0","99064856","wem/bandit_party_1","AHPQVIEIBZOAS","either","6","294","","","","","","","0","0","1","0.2852166322","","0.4","0.8","0.2","0.6","","","","","0.2852166322","0.220236308","0.2876347753","0.1973953549","","","","","","","","","","72","H","0","img/none_selected.jpg","","113","main_expt",""
"","bandit","193","651979","0.0-155.0-0.0","99064856","wem/bandit_party_1","AHPQVIEIBZOAS","either","6","329","","","","","","","1","0","0","0.2453392608","","0.4","0.8","0.2","0.6","","","","","0.3222351196","0.2453392608","0.2811359795","0.200840576","","","","","","","","","","74","J","1","","","114","main_expt",""
"","bandit","194","653850","0.0-156.0-0.0","99064856","wem/bandit_party_1","AHPQVIEIBZOAS","either","6","339","","","","","","","0","0","1","0.2311931225","","0.4","0.8","0.2","0.6","","","","","0.2865303103","0.2311931225","0.2056035349","0.2544006126","","","","","","","","","","74","J","1","","","115","main_expt",""
"","bandit","195","655666","0.0-157.0-0.0","99064856","wem/bandit_party_1","AHPQVIEIBZOAS","either","6","303","","","","","","","0","0","1","0.2290532582","","0.4","0.8","0.2","0.6","","","","","0.1901772154","0.2290532582","0.2435386161","0.2264812366","","","","","","","","","","74","J","1","","","116","main_expt",""
"","bandit","196","657302","0.0-158.0-0.0","99064856","wem/bandit_party_1","AHPQVIEIBZOAS","either","6","122","","","","","","","0","0","1","0.2610634121","","0.4","0.8","0.2","0.6","","","","","0.1854727963","0.2610634121","0.2523066444","0.2535822563","","","","","","","","","","74","J","1","","","117","main_expt",""
"","bandit","197","659113","0.0-159.0-0.0","99064856","wem/bandit_party_1","AHPQVIEIBZOAS","either","6","280","","","","","","","1","0","0","0.2915584027","","0.4","0.8","0.2","0.6","","","","","0.223078523","0.2915584027","0.258758296","0.288462609","","","","","","","","","","74","J","1","","","118","main_expt",""
"","bandit","198","660971","0.0-160.0-0.0","99064856","wem/bandit_party_1","AHPQVIEIBZOAS","either","6","327","","","","","","","0","0","1","0.3240034744","","0.4","0.8","0.2","0.6","","","","","0.2157898803","0.3240034744","0.2513882557","0.3077733757","","","","","","","","","","74","J","1","","","119","main_expt",""
"","bandit","199","662821","0.0-161.0-0.0","99064856","wem/bandit_party_1","AHPQVIEIBZOAS","either","6","318","","","","","","","0","0","1","0.3584552205","","0.4","0.8","0.2","0.6","","","","","0.2055853597","0.3584552205","0.2178230887","0.3470363664","","","","","","","","","","74","J","1","","","120","main_expt",""
"","bandit","200","664651","0.0-162.0-0.0","99064856","wem/bandit_party_1","AHPQVIEIBZOAS","either","6","300","","","","","","","1","0","0","0.3392259721","","0.4","0.8","0.2","0.6","","","","","0.2308362602","0.3392259721","0.2249913612","0.36369082","","","","","","","","","","74","J","1","","","121","main_expt",""
"","bandit","201","666463","0.0-163.0-0.0","99064856","wem/bandit_party_1","AHPQVIEIBZOAS","either","6","278","","","","","","","0","0","1","0.3211990091","","0.4","0.8","0.2","0.6","","","","","0.1858821776","0.3211990091","0.2135386538","0.3740977319","","","","","","","","","","74","J","1","","","122","main_expt",""
"","bandit","202","668280","0.0-164.0-0.0","99064856","wem/bandit_party_1","AHPQVIEIBZOAS","either","6","302","","","","","","","0","0","1","0.3082515077","","0.4","0.8","0.2","0.6","","","","","0.1948645322","0.3082515077","0.2742148462","0.3617230251","","","","","","","","","","74","J","1","","","123","main_expt",""
"","bandit","203","670248","0.0-165.0-0.0","99064856","wem/bandit_party_1","AHPQVIEIBZOAS","either","6","432","","","","","","","0","0","1","0.3337980485","","0.4","0.8","0.2","0.6","","","","","0.1875433284","0.3337980485","0.3092488957","0.3189133642","","","","","","","","","","74","J","1","","","124","main_expt",""
"","bandit","204","672253","0.0-166.0-0.0","99064856","wem/bandit_party_1","AHPQVIEIBZOAS","either","6","474","","","","","","","0","0","1","0.2815584253","","0.4","0.8","0.2","0.6","","","","","0.1805360773","0.2815584253","0.2832498899","0.3134342975","","","","","","","","","","74","J","1","","","125","main_expt",""
"","bandit","205","674087","0.0-167.0-0.0","99064856","wem/bandit_party_1","AHPQVIEIBZOAS","either","6","318","","","","","","","0","0","1","0.2544389989","","0.4","0.8","0.2","0.6","","","","","0.2199741614","0.2544389989","0.321902755","0.2889117865","","","","","","","","","","74","J","1","","","126","main_expt",""
"","bandit","206","675936","0.0-168.0-0.0","99064856","wem/bandit_party_1","AHPQVIEIBZOAS","either","6","325","","","","","","","0","0","1","0.217883989","","0.4","0.8","0.2","0.6","","","","","0.212963778","0.217883989","0.3163630435","0.3101500906","","","","","","","","","","74","J","1","","","127","main_expt",""
"","bandit","207","677654","0.0-169.0-0.0","99064856","wem/bandit_party_1","AHPQVIEIBZOAS","either","6","180","","","","","","","0","0","1","0.1941215274","","0.4","0.8","0.2","0.6","","","","","0.1853882534","0.1941215274","0.3242789072","0.3257933697","","","","","","","","","","74","J","1","","","128","main_expt",""
"","bandit","208","679447","0.0-170.0-0.0","99064856","wem/bandit_party_1","AHPQVIEIBZOAS","either","6","268","","","","","","","0","0","1","","0.3430844202","0.4","0.8","0.2","0.6","0.1486900389","0.2093197904","0.3430844202","0.2767822115","","","","","","","","","","","","","","75","K","2","","","129","main_expt",""
"","bandit","209","681285","0.0-171.0-0.0","99064856","wem/bandit_party_1","AHPQVIEIBZOAS","either","6","323","","","","","","","0","1","0","","0.3487272729","0.4","0.8","0.2","0.6","0.1581202816","0.2325895014","0.3487272729","0.3389859305","","","","","","","","","","","","","","75","K","2","","","130","main_expt",""
"","bandit","210","683150","0.0-172.0-0.0","99064856","wem/bandit_party_1","AHPQVIEIBZOAS","either","6","331","","","","","","","0","0","1","0.3850752379","","0.4","0.8","0.2","0.6","","","","","0.1189605486","0.2680880231","0.3850752379","0.2807576759","","","","","","","","","","75","K","2","","","131","main_expt",""
"","bandit","211","684996","0.0-173.0-0.0","99064856","wem/bandit_party_1","AHPQVIEIBZOAS","either","6","315","","","","","","","0","1","0","","0.3547422913","0.4","0.8","0.2","0.6","0.08638656351","0.2053564998","0.3547422913","0.2044414959","","","","","","","","","","","","","","75","K","2","","","132","main_expt",""
"","bandit","212","686823","0.0-174.0-0.0","99064856","wem/bandit_party_1","AHPQVIEIBZOAS","either","6","295","","","","","","","0","0","1","0.3256782816","","0.4","0.8","0.2","0.6","","","","","0.104542274","0.2102644512","0.3256782816","0.2352631215","","","","","","","","","","75","K","2","","","133","main_expt",""
"","bandit","213","688966","0.0-175.0-0.0","99064856","wem/bandit_party_1","AHPQVIEIBZOAS","either","6","617","","","","","","","0","1","0","","0.2479378245","0.4","0.8","0.2","0.6","0.1401790922","0.2028105977","0.2479378245","0.2808822736","","","","","","","","","","","","","","75","K","2","","","134","main_expt",""
"","bandit","214","691019","0.0-176.0-0.0","99064856","wem/bandit_party_1","AHPQVIEIBZOAS","either","6","533","","","","","","","0","0","1","","0.24301602","0.4","0.8","0.2","0.6","0.1818128853","0.1556880781","0.24301602","0.3053704558","","","","","","","","","","","","","","75","K","2","","","135","main_expt",""
"","bandit","215","693041","0.0-177.0-0.0","99064856","wem/bandit_party_1","AHPQVIEIBZOAS","either","6","502","","","","","","","1","0","0","0.2630427063","","0.4","0.8","0.2","0.6","","","","","0.1583738081","0.1428421262","0.2630427063","0.3140058771","","","","","","","","","","75","K","2","","","136","main_expt",""
"","bandit","216","695752","0.0-178.0-0.0","99064856","wem/bandit_party_1","AHPQVIEIBZOAS","either","6","1173","","","","","","","0","0","1","","0.3053425806","0.4","0.8","0.2","0.6","0.1497920091","0.1039390038","0.3053425806","0.323699752","","","","","","","","","","","","","","75","K","2","","","137","main_expt",""
"","bandit","217","698621","0.0-179.0-0.0","99064856","wem/bandit_party_1","AHPQVIEIBZOAS","either","6","1341","","","","","","","1","0","0","0.3588623722","","0.4","0.8","0.2","0.6","","","","","0.1128601551","0.07132433681","0.3588623722","0.3435108126","","","","","","","","","","75","K","2","","","138","main_expt",""
"","bandit","218","701909","0.0-180.0-0.0","99064856","wem/bandit_party_1","AHPQVIEIBZOAS","either","6","1757","","","","","","","0","1","0","","0.2762704672","0.4","0.8","0.2","0.6","0.1073604677","0.1047165976","0.2762704672","0.3505637202","","","","","","","","","","","","","","75","K","2","","","139","main_expt",""
"","bandit","219","703565","0.0-181.0-0.0","99064856","wem/bandit_party_1","AHPQVIEIBZOAS","either","6","129","","","","","","","0","0","1","0.2475753012","","0.4","0.8","0.2","0.6","","","","","0.1376710563","0.09043849554","0.2475753012","0.4185251601","","","","","","","","","","75","K","2","","","140","main_expt",""
"","bandit","220","705182","0.0-182.0-0.0","99064856","wem/bandit_party_1","AHPQVIEIBZOAS","either","6","83","","","","","","","0","0","1","","0.2436306075","0.4","0.8","0.2","0.6","0.1412662962","0.05096505815","0.2436306075","0.4225289085","","","","","","","","","","","","","","75","K","2","","","141","main_expt",""
"","bandit","221","707327","0.0-183.0-0.0","99064856","wem/bandit_party_1","AHPQVIEIBZOAS","either","6","615","","","","","","","0","0","1","","0.1998899021","0.4","0.8","0.2","0.6","0.1543424817","0.02973759478","0.1998899021","0.455259632","","","","","","","","","","","","","","75","K","2","","","142","main_expt",""
"","bandit","222","709180","0.0-184.0-0.0","99064856","wem/bandit_party_1","AHPQVIEIBZOAS","either","6","328","","","","","","","0","0","1","","0.2568100034","0.4","0.8","0.2","0.6","0.1552636118","0.04457260366","0.2568100034","0.4287003803","","","","","","","","","","","","","","75","K","2","","","143","main_expt",""
"","bandit","223","711047","0.0-185.0-0.0","99064856","wem/bandit_party_1","AHPQVIEIBZOAS","either","6","338","","","","","","","0","1","0","","0.2859833531","0.4","0.8","0.2","0.6","0.2241753426","0.04060115041","0.2859833531","0.4260506414","","","","","","","","","","","","","","75","K","2","","","144","main_expt",""
"","bandit","224","712718","0.0-186.0-0.0","99064856","wem/bandit_party_1","AHPQVIEIBZOAS","either","6","139","","","","","","","0","0","1","","0.2080640158","0.4","0.8","0.2","0.6","0.2484131349","0.06712401514","0.2080640158","0.4202170594","","","","","","","","","","","","","","75","K","2","","","145","main_expt",""
"","bandit","225","714574","0.0-187.0-0.0","99064856","wem/bandit_party_1","AHPQVIEIBZOAS","either","6","326","","","","","","","0","0","1","0.2469639643","","0.4","0.8","0.2","0.6","","","","","0.2905032103","0.08780921534","0.2469639643","0.4333226383","","","","","","","","","","75","K","2","","","146","main_expt",""
"","bandit","226","716482","0.0-188.0-0.0","99064856","wem/bandit_party_1","AHPQVIEIBZOAS","either","6","390","","","","","","","0","0","1","","0.2169279296","0.4","0.8","0.2","0.6","0.2846703457","0.1333368233","0.2169279296","0.4340954059","","","","","","","","","","","","","","75","K","2","","","147","main_expt",""
"","bandit","227","718339","0.0-189.0-0.0","99064856","wem/bandit_party_1","AHPQVIEIBZOAS","either","6","341","","","","","","","0","0","1","","0.1248284812","0.4","0.8","0.2","0.6","0.3010433131","0.09264147873","0.1248284812","0.3903754431","","","","","","","","","","","","","","75","K","2","","","148","main_expt",""
"","bandit","228","720233","0.0-190.0-0.0","99064856","wem/bandit_party_1","AHPQVIEIBZOAS","either","6","359","","","","","","","0","0","1","","0.1498862571","0.4","0.8","0.2","0.6","0.3421268102","0.123708687","0.1498862571","0.4161192262","","","","","","","","","","","","","","75","K","2","","","149","main_expt",""
"","bandit","229","721909","0.0-191.0-0.0","99064856","wem/bandit_party_1","AHPQVIEIBZOAS","either","6","147","","","","","","","0","0","1","","0.2044632824","0.4","0.8","0.2","0.6","0.3382865341","0.1087811601","0.2044632824","0.4545257836","","","","","","","","","","","","","","75","K","2","","","150","main_expt",""
"","bandit","230","723652","0.0-192.0-0.0","99064856","wem/bandit_party_1","AHPQVIEIBZOAS","either","6","212","","","","","","","0","0","1","","0.4553704948","0.4","0.8","0.2","0.6","0.3031951358","0.1640336927","0.1630699797","0.4553704948","","","","","","","","","","","","","","76","L","3","","","151","main_expt",""
"","bandit","231","725682","0.0-193.0-0.0","99064856","wem/bandit_party_1","AHPQVIEIBZOAS","either","6","512","","","","","","","0","0","1","","0.1534962237","0.4","0.8","0.2","0.6","0.3163498213","0.1474195158","0.1534962237","0.4692720684","","","","","","","","","","","","","","75","K","2","","","152","main_expt",""
"","bandit","232","727356","0.0-194.0-0.0","99064856","wem/bandit_party_1","AHPQVIEIBZOAS","either","6","157","","","","","","","0","0","1","","0.1506701345","0.4","0.8","0.2","0.6","0.3205280093","0.1200421148","0.1506701345","0.4794448159","","","","","","","","","","","","","","75","K","2","","","153","main_expt",""
"","bandit","233","729066","0.0-195.0-0.0","99064856","wem/bandit_party_1","AHPQVIEIBZOAS","either","6","181","","","","","","","0","0","1","0.1810992197","","0.4","0.8","0.2","0.6","","","","","0.2780981807","0.1295208369","0.1810992197","0.4762011242","","","","","","","","","","75","K","2","","","154","main_expt",""
"","bandit","234","730699","0.0-196.0-0.0","99064856","wem/bandit_party_1","AHPQVIEIBZOAS","either","6","102","","","","","","","0","0","1","0.1189574303","","0.4","0.8","0.2","0.6","","","","","0.2543788853","0.1189574303","0.2574031695","0.4797315341","","","","","","","","","","74","J","1","","","155","main_expt",""
"","bandit","235","732640","0.0-197.0-0.0","99064856","wem/bandit_party_1","AHPQVIEIBZOAS","either","6","400","","","","","","","0","0","1","0.1511338071","","0.4","0.8","0.2","0.6","","","","","0.2601772157","0.1511338071","0.1838662476","0.4815153028","","","","","","","","","","74","J","1","","","156","main_expt",""
"","bandit","236","734289","0.0-198.0-0.0","99064856","wem/bandit_party_1","AHPQVIEIBZOAS","either","6","135","","","","","","","0","0","1","","0.27050514","0.4","0.8","0.2","0.6","0.27050514","0.1494559257","0.1951262555","0.4769669351","","","","","","","","","","","","","","72","H","0","img/none_selected.jpg","","157","main_expt",""
"","bandit","237","735929","0.0-199.0-0.0","99064856","wem/bandit_party_1","AHPQVIEIBZOAS","either","6","114","","","","","","","0","0","1","0.2912044809","","0.4","0.8","0.2","0.6","","","","","0.2912044809","0.1398300683","0.1711173681","0.4819637572","","","","","","","","","","72","H","0","img/none_selected.jpg","","158","main_expt",""
"","bandit","238","737974","0.0-200.0-0.0","99064856","wem/bandit_party_1","AHPQVIEIBZOAS","either","6","526","","","","","","","0","0","1","0.1482700517","","0.4","0.8","0.2","0.6","","","","","0.2863852675","0.1482700517","0.1262927185","0.4802617926","","","","","","","","","","74","J","1","","","159","main_expt",""
"","bandit","239","740283","0.0-201.0-0.0","99064856","wem/bandit_party_1","AHPQVIEIBZOAS","either","6","772","","","","","","","0","0","1","","0.1289005464","0.4","0.8","0.2","0.6","0.3188379944","0.1327856751","0.1289005464","0.4834703177","","","","","","","","","","","","","","75","K","2","","","160","main_expt",""
"","bandit","240","742011","0.0-202.0-0.0","99064856","wem/bandit_party_1","AHPQVIEIBZOAS","either","6","192","","","","","","","1","0","0","0.4783639554","","0.4","0.8","0.2","0.6","","","","","0.3918259889","0.1936248495","0.07062595825","0.4783639554","","","","","","","","","","76","L","3","","","161","main_expt",""
"","bandit","241","743802","0.0-203.0-0.0","99064856","wem/bandit_party_1","AHPQVIEIBZOAS","either","6","275","","","","","","","0","0","1","","0.4702379588","0.4","0.8","0.2","0.6","0.3825352776","0.1917288119","0.08554885259","0.4702379588","","","","","","","","","","","","","","76","L","3","","","162","main_expt",""
"","bandit","242","745917","0.0-204.0-0.0","99064856","wem/bandit_party_1","AHPQVIEIBZOAS","either","6","589","","","","","","","0","1","0","","0.4761999765","0.4","0.8","0.2","0.6","0.3500114378","0.2410074379","0.05790820845","0.4761999765","","","","","","","","","","","","","","76","L","3","","","163","main_expt",""
"","bandit","243","748030","0.0-205.0-0.0","99064856","wem/bandit_party_1","AHPQVIEIBZOAS","either","6","585","","","","","","","0","0","1","","0.4683988395","0.4","0.8","0.2","0.6","0.3138306729","0.2717164652","0.04744410613","0.4683988395","","","","","","","","","","","","","","76","L","3","","","164","main_expt",""
"","bandit","244","749830","0.0-206.0-0.0","99064856","wem/bandit_party_1","AHPQVIEIBZOAS","either","6","267","","","","","","","0","0","1","0.4594806004","","0.4","0.8","0.2","0.6","","","","","0.3066591237","0.3360488911","0.07721988326","0.4594806004","","","","","","","","","","76","L","3","","","165","main_expt",""
"","bandit","245","751480","0.0-207.0-0.0","99064856","wem/bandit_party_1","AHPQVIEIBZOAS","either","6","133","","","","","","","0","0","1","0.4769271284","","0.4","0.8","0.2","0.6","","","","","0.359337808","0.3288768439","0.09276645858","0.4769271284","","","","","","","","","","76","L","3","","","166","main_expt",""
"","bandit","246","754170","0.0-208.0-0.0","99064856","wem/bandit_party_1","AHPQVIEIBZOAS","either","6","1175","","","","","","","0","0","1","0.1092251717","","0.4","0.8","0.2","0.6","","","","","0.3888119778","0.341079324","0.1092251717","0.4824675089","","","","","","","","","","75","K","2","","","167","main_expt",""
"","bandit","247","755918","0.0-209.0-0.0","99064856","wem/bandit_party_1","AHPQVIEIBZOAS","either","6","212","","","","","","","0","0","1","","0.09704797424","0.4","0.8","0.2","0.6","0.3188253523","0.2972081376","0.09704797424","0.4731218304","","","","","","","","","","","","","","75","K","2","","","168","main_expt",""
"","bandit","248","757722","0.0-210.0-0.0","99064856","wem/bandit_party_1","AHPQVIEIBZOAS","either","6","276","","","","","","","0","0","1","","0.1131958007","0.4","0.8","0.2","0.6","0.3035082617","0.2716537329","0.1131958007","0.4558692975","","","","","","","","","","","","","","75","K","2","","","169","main_expt",""
"","bandit","249","759631","0.0-211.0-0.0","99064856","wem/bandit_party_1","AHPQVIEIBZOAS","either","6","373","","","","","","","0","0","1","","0.1636150477","0.4","0.8","0.2","0.6","0.3540810543","0.3705489528","0.1636150477","0.424927817","","","","","","","","","","","","","","75","K","2","","","170","main_expt",""
"","bandit","250","761454","0.0-212.0-0.0","99064856","wem/bandit_party_1","AHPQVIEIBZOAS","either","6","285","","","","","","","0","0","1","0.3259531709","","0.4","0.8","0.2","0.6","","","","","0.2912941695","0.3259531709","0.1889182236","0.4254050478","","","","","","","","","","74","J","1","","","171","main_expt",""
"","bandit","251","763312","0.0-213.0-0.0","99064856","wem/bandit_party_1","AHPQVIEIBZOAS","either","6","345","","","","","","","0","0","1","","0.2964718019","0.4","0.8","0.2","0.6","0.2964718019","0.3253578443","0.1494540944","0.4319935488","","","","","","","","","","","","","","72","H","0","img/none_selected.jpg","","172","main_expt",""
"","bandit","252","765284","0.0-214.0-0.0","99064856","wem/bandit_party_1","AHPQVIEIBZOAS","either","6","442","","","","","","","0","0","1","","0.1700291406","0.4","0.8","0.2","0.6","0.2411205861","0.3133285256","0.1700291406","0.4157756128","","","","","","","","","","","","","","75","K","2","","","173","main_expt",""
"","bandit","253","766953","0.0-215.0-0.0","99064856","wem/bandit_party_1","AHPQVIEIBZOAS","either","6","129","","","","","","","0","0","1","0.3650518631","","0.4","0.8","0.2","0.6","","","","","0.2132737127","0.3470844982","0.2007600912","0.3650518631","","","","","","","","","","76","L","3","","","174","main_expt",""
"","bandit","254","768848","0.0-216.0-0.0","99064856","wem/bandit_party_1","AHPQVIEIBZOAS","either","6","371","","","","","","","0","0","1","","0.3583375904","0.4","0.8","0.2","0.6","0.2722172758","0.3615725976","0.1613291475","0.3583375904","","","","","","","","","","","","","","76","L","3","","","175","main_expt",""
"","bandit","255","770692","0.0-217.0-0.0","99064856","wem/bandit_party_1","AHPQVIEIBZOAS","either","6","308","","","","","","","0","0","1","0.3849487833","","0.4","0.8","0.2","0.6","","","","","0.3158297255","0.3592449917","0.1618540135","0.3849487833","","","","","","","","","","76","L","3","","","176","main_expt",""
"","bandit","256","772541","0.0-218.0-0.0","99064856","wem/bandit_party_1","AHPQVIEIBZOAS","either","6","318","","","","","","","0","0","1","0.3741193846","","0.4","0.8","0.2","0.6","","","","","0.3033070912","0.3614776984","0.1337509382","0.3741193846","","","","","","","","","","76","L","3","","","177","main_expt",""
"","bandit","257","774402","0.0-219.0-0.0","99064856","wem/bandit_party_1","AHPQVIEIBZOAS","either","6","324","","","","","","","0","0","1","0.3704436283","","0.4","0.8","0.2","0.6","","","","","0.3070990366","0.4042649322","0.172909152","0.3704436283","","","","","","","","","","76","L","3","","","178","main_expt",""
"","bandit","258","776303","0.0-220.0-0.0","99064856","wem/bandit_party_1","AHPQVIEIBZOAS","either","6","361","","","","","","","0","0","1","","0.349206168","0.4","0.8","0.2","0.6","0.349206168","0.3626499081","0.2306318455","0.3718647044","","","","","","","","","","","","","","72","H","0","img/none_selected.jpg","","179","main_expt",""
"","bandit","259","778185","0.0-221.0-0.0","99064856","wem/bandit_party_1","AHPQVIEIBZOAS","either","6","349","","","","","","","0","0","1","","0.3533593609","0.4","0.8","0.2","0.6","0.3533593609","0.365831292","0.2531752843","0.3144845341","","","","","","","","","","","","","","72","H","0","img/none_selected.jpg","","180","main_expt",""
"","bandit","260","779985","0.0-222.0-0.0","99064856","wem/bandit_party_1","AHPQVIEIBZOAS","either","6","279","","","","","","","0","1","0","","0.3792633926","0.4","0.8","0.2","0.6","0.3792633926","0.3720079561","0.2995137733","0.3328992573","","","","","","","","","","","","","","72","H","0","img/none_selected.jpg","","181","main_expt",""
"","bandit","261","781801","0.0-223.0-0.0","99064856","wem/bandit_party_1","AHPQVIEIBZOAS","either","6","282","","","","","","","0","0","1","","0.4170401524","0.4","0.8","0.2","0.6","0.4170401524","0.3747751333","0.2818604164","0.3443004049","","","","","","","","","","","","","","72","H","0","img/none_selected.jpg","","182","main_expt",""
"","bandit","262","783557","0.0-224.0-0.0","99064856","wem/bandit_party_1","AHPQVIEIBZOAS","either","6","214","","","","","","","0","1","0","","0.4349898381","0.4","0.8","0.2","0.6","0.4349898381","0.3772869326","0.2706787236","0.3572445505","","","","","","","","","","","","","","72","H","0","img/none_selected.jpg","","183","main_expt",""
"","bandit","263","785378","0.0-225.0-0.0","99064856","wem/bandit_party_1","AHPQVIEIBZOAS","either","6","286","","","","","","","0","0","1","0.4355724899","","0.4","0.8","0.2","0.6","","","","","0.4355724899","0.3719200221","0.2788381055","0.358140682","","","","","","","","","","72","H","0","img/none_selected.jpg","","184","main_expt",""
"","bandit","264","787191","0.0-226.0-0.0","99064856","wem/bandit_party_1","AHPQVIEIBZOAS","either","6","295","","","","","","","0","0","1","","0.443517249","0.4","0.8","0.2","0.6","0.443517249","0.3759280431","0.2591604306","0.2938856532","","","","","","","","","","","","","","72","H","0","img/none_selected.jpg","","185","main_expt",""
"","bandit","265","788888","0.0-227.0-0.0","99064856","wem/bandit_party_1","AHPQVIEIBZOAS","either","6","166","","","","","","","0","0","1","","0.4185550765","0.4","0.8","0.2","0.6","0.4185550765","0.3686405037","0.1717283936","0.2570442146","","","","","","","","","","","","","","72","H","0","img/none_selected.jpg","","186","main_expt",""
"","bandit","266","790860","0.0-228.0-0.0","99064856","wem/bandit_party_1","AHPQVIEIBZOAS","either","6","424","","","","","","","0","1","0","","0.4582246802","0.4","0.8","0.2","0.6","0.4582246802","0.3693778387","0.1399016055","0.2781151114","","","","","","","","","","","","","","72","H","0","img/none_selected.jpg","","187","main_expt",""
"","bandit","267","792744","0.0-229.0-0.0","99064856","wem/bandit_party_1","AHPQVIEIBZOAS","either","6","357","","","","","","","0","1","0","","0.4499637214","0.4","0.8","0.2","0.6","0.4499637214","0.3858781765","0.116743447","0.2510368257","","","","","","","","","","","","","","72","H","0","img/none_selected.jpg","","188","main_expt",""
"","bandit","268","795213","0.0-230.0-0.0","99064856","wem/bandit_party_1","AHPQVIEIBZOAS","either","6","936","","","","","","","1","0","0","0.4681283031","","0.4","0.8","0.2","0.6","","","","","0.4681283031","0.353665234","0.09810356538","0.2299291889","","","","","","","","","","72","H","0","img/none_selected.jpg","","189","main_expt",""
"","bandit","269","796869","0.0-231.0-0.0","99064856","wem/bandit_party_1","AHPQVIEIBZOAS","either","6","134","","","","","","","0","0","1","0.4672384316","","0.4","0.8","0.2","0.6","","","","","0.4672384316","0.3702546744","0.1333212727","0.2957770397","","","","","","","","","","72","H","0","img/none_selected.jpg","","190","main_expt",""
"","bandit","270","802042","0.0-232.0-0.0","99064856","wem/bandit_party_1","AHPQVIEIBZOAS","either","6","3655","","","","","","","0","0","1","0.4633056668","","0.4","0.8","0.2","0.6","","","","","0.4633056668","0.3373283559","0.07289491444","0.2806998676","","","","","","","","","","72","H","0","img/none_selected.jpg","","191","main_expt",""
"","bandit","271","805644","0.0-233.0-0.0","99064856","wem/bandit_party_1","AHPQVIEIBZOAS","either","6","2067","","","","","","","0","1","0","","0.4701423021","0.4","0.8","0.2","0.6","0.4701423021","0.3717228864","0.09060717316","0.2578649702","","","","","","","","","","","","","","72","H","0","img/none_selected.jpg","","192","main_expt",""
"","bandit","272","807899","0.0-234.0-0.0","99064856","wem/bandit_party_1","AHPQVIEIBZOAS","either","6","723","","","","","","","1","0","0","0.4625827917","","0.4","0.8","0.2","0.6","","","","","0.4625827917","0.3861484819","0.1038106097","0.3019093773","","","","","","","","","","72","H","0","img/none_selected.jpg","","193","main_expt",""
"","bandit","273","810843","0.0-235.0-0.0","99064856","wem/bandit_party_1","AHPQVIEIBZOAS","either","6","1399","","","","","","","0","0","1","","0.4480064119","0.4","0.8","0.2","0.6","0.4480064119","0.3884838939","0.1222204007","0.3028603149","","","","","","","","","","","","","","72","H","0","img/none_selected.jpg","","194","main_expt",""
"","bandit","274","812762","0.0-236.0-0.0","99064856","wem/bandit_party_1","AHPQVIEIBZOAS","either","6","374","","","","","","","0","1","0","","0.4263193963","0.4","0.8","0.2","0.6","0.4263193963","0.4058549971","0.1230179676","0.2933095063","","","","","","","","","","","","","","72","H","0","img/none_selected.jpg","","195","main_expt",""
"","bandit","275","814839","0.0-237.0-0.0","99064856","wem/bandit_party_1","AHPQVIEIBZOAS","either","6","551","","","","","","","0","1","0","","0.4399191733","0.4","0.8","0.2","0.6","0.4399191733","0.3894648227","0.1972068901","0.3333663608","","","","","","","","","","","","","","72","H","0","img/none_selected.jpg","","196","main_expt",""
"","bandit","276","818148","0.0-238.0-0.0","99064856","wem/bandit_party_1","AHPQVIEIBZOAS","either","6","1777","","","","","","","0","1","0","","0.4303685687","0.4","0.8","0.2","0.6","0.4303685687","0.3452919481","0.2091218652","0.3472763543","","","","","","","","","","","","","","72","H","0","img/none_selected.jpg","","197","main_expt",""
"","bandit","277","820146","0.0-239.0-0.0","99064856","wem/bandit_party_1","AHPQVIEIBZOAS","either","6","464","","","","","","","0","0","1","","0.4166638701","0.4","0.8","0.2","0.6","0.4166638701","0.3571156804","0.2316117542","0.3420385624","","","","","","","","","","","","","","72","H","0","img/none_selected.jpg","","198","main_expt",""
"","bandit","278","822553","0.0-240.0-0.0","99064856","wem/bandit_party_1","AHPQVIEIBZOAS","either","6","885","","","","","","","0","0","1","","0.4166192342","0.4","0.8","0.2","0.6","0.4166192342","0.3761278261","0.1983173389","0.3009927129","","","","","","","","","","","","","","72","H","0","img/none_selected.jpg","","199","main_expt",""
"","bandit","279","824546","0.0-241.0-0.0","99064856","wem/bandit_party_1","AHPQVIEIBZOAS","either","6","455","","","","","","","0","0","1","","0.4065109498","0.4","0.8","0.2","0.6","0.4065109498","0.3623939384","0.2275108597","0.2834367318","","","","","","","","","","","","","","72","H","0","img/none_selected.jpg","","200","main_expt",""
"","bandit","280","826495","0.0-242.0-0.0","99064856","wem/bandit_party_1","AHPQVIEIBZOAS","either","6","387","","","","","","","0","1","0","","0.4210367682","0.4","0.8","0.2","0.6","0.4210367682","0.3470966653","0.2753755663","0.2305195973","","","","","","","","","","","","","","72","H","0","img/none_selected.jpg","","201","main_expt",""
"","bandit","281","828454","0.0-243.0-0.0","99064856","wem/bandit_party_1","AHPQVIEIBZOAS","either","6","435","","","","","","","0","0","1","","0.4059774394","0.4","0.8","0.2","0.6","0.4059774394","0.3738670455","0.2867984519","0.236439039","","","","","","","","","","","","","","72","H","0","img/none_selected.jpg","","202","main_expt",""
"","bandit","282","830375","0.0-244.0-0.0","99064856","wem/bandit_party_1","AHPQVIEIBZOAS","either","6","382","","","","","","","0","1","0","","0.4217634448","0.4","0.8","0.2","0.6","0.4217634448","0.4434414113","0.227681123","0.207292508","","","","","","","","","","","","","","72","H","0","img/none_selected.jpg","","203","main_expt",""
"","bandit","283","832350","0.0-245.0-0.0","99064856","wem/bandit_party_1","AHPQVIEIBZOAS","either","6","444","","","","","","","0","0","1","","0.417590799","0.4","0.8","0.2","0.6","0.417590799","0.4363530878","0.2421814767","0.2706274655","","","","","","","","","","","","","","72","H","0","img/none_selected.jpg","","204","main_expt",""
"","bandit","284","834292","0.0-246.0-0.0","99064856","wem/bandit_party_1","AHPQVIEIBZOAS","either","6","410","","","","","","","0","1","0","","0.3892328218","0.4","0.8","0.2","0.6","0.3892328218","0.4390009565","0.2250127273","0.2688171721","","","","","","","","","","","","","","72","H","0","img/none_selected.jpg","","205","main_expt",""
"","bandit","285","836191","0.0-247.0-0.0","99064856","wem/bandit_party_1","AHPQVIEIBZOAS","either","6","365","","","","","","","0","0","1","","0.3877758809","0.4","0.8","0.2","0.6","0.3877758809","0.4606838579","0.2148063869","0.2774640617","","","","","","","","","","","","","","72","H","0","img/none_selected.jpg","","206","main_expt",""
"","bandit","286","837848","0.0-248.0-0.0","99064856","wem/bandit_party_1","AHPQVIEIBZOAS","either","6","135","","","","","","","0","0","1","0.3344078408","","0.4","0.8","0.2","0.6","","","","","0.3344078408","0.4679198071","0.2370073307","0.31303597","","","","","","","","","","72","H","0","img/none_selected.jpg","","207","main_expt",""
"","bandit","287","839695","0.0-249.0-0.0","99064856","wem/bandit_party_1","AHPQVIEIBZOAS","either","6","329","","","","","","","0","0","1","","0.3285414067","0.4","0.8","0.2","0.6","0.3285414067","0.4731710197","0.1736764344","0.3187850143","","","","","","","","","","","","","","72","H","0","img/none_selected.jpg","","208","main_expt",""
"","bandit","288","841567","0.0-250.0-0.0","99064856","wem/bandit_party_1","AHPQVIEIBZOAS","either","6","342","","","","","","","0","0","1","0.337659841","","0.4","0.8","0.2","0.6","","","","","0.337659841","0.472507437","0.2033963155","0.3031297305","","","","","","","","","","72","H","0","img/none_selected.jpg","","209","main_expt",""
"","bandit","289","843262","0.0-251.0-0.0","99064856","wem/bandit_party_1","AHPQVIEIBZOAS","either","6","160","","","","","","","0","1","0","","0.322880172","0.4","0.8","0.2","0.6","0.322880172","0.4759946166","0.1849029676","0.3593083662","","","","","","","","","","","","","","72","H","0","img/none_selected.jpg","","210","main_expt",""
"","bandit","290","845623","0.0-252.0-0.0","99064856","wem/bandit_party_1","AHPQVIEIBZOAS","either","6","828","","","","","","","0","0","1","","0.3440981268","0.4","0.8","0.2","0.6","0.3440981268","0.4838002785","0.08033524441","0.3758292662","","","","","","","","","","","","","","72","H","0","img/none_selected.jpg","","211","main_expt",""
"","bandit","291","847542","0.0-253.0-0.0","99064856","wem/bandit_party_1","AHPQVIEIBZOAS","either","6","382","","","","","","","0","0","1","","0.3135232579","0.4","0.8","0.2","0.6","0.3135232579","0.4871609062","0.1024936548","0.3771764803","","","","","","","","","","","","","","72","H","0","img/none_selected.jpg","","212","main_expt",""
"","bandit","292","849516","0.0-254.0-0.0","99064856","wem/bandit_party_1","AHPQVIEIBZOAS","either","6","452","","","","","","","1","0","0","0.328558382","","0.4","0.8","0.2","0.6","","","","","0.328558382","0.4829725273","0.1380366818","0.3935517348","","","","","","","","","","72","H","0","img/none_selected.jpg","","213","main_expt",""
"","bandit","293","851385","0.0-255.0-0.0","99064856","wem/bandit_party_1","AHPQVIEIBZOAS","either","6","343","","","","","","","0","1","0","","0.3024402918","0.4","0.8","0.2","0.6","0.3024402918","0.4742933803","0.1206441992","0.3792377037","","","","","","","","","","","","","","72","H","0","img/none_selected.jpg","","214","main_expt",""
"","bandit","294","853301","0.0-256.0-0.0","99064856","wem/bandit_party_1","AHPQVIEIBZOAS","either","6","382","","","","","","","0","0","1","0.3024001881","","0.4","0.8","0.2","0.6","","","","","0.3024001881","0.4754417465","0.1320715796","0.3364308411","","","","","","","","","","72","H","0","img/none_selected.jpg","","215","main_expt",""
"","bandit","295","855170","0.0-257.0-0.0","99064856","wem/bandit_party_1","AHPQVIEIBZOAS","either","6","327","","","","","","","1","0","0","0.2975117226","","0.4","0.8","0.2","0.6","","","","","0.2975117226","0.4764866221","0.1152906885","0.3348871659","","","","","","","","","","72","H","0","img/none_selected.jpg","","216","main_expt",""
"","bandit","296","857161","0.0-258.0-0.0","99064856","wem/bandit_party_1","AHPQVIEIBZOAS","either","6","474","","","","","","","0","0","1","","0.3331298207","0.4","0.8","0.2","0.6","0.3331298207","0.4727866334","0.1191406027","0.321293363","","","","","","","","","","","","","","72","H","0","img/none_selected.jpg","","217","main_expt",""
"","bandit","297","859182","0.0-259.0-0.0","99064856","wem/bandit_party_1","AHPQVIEIBZOAS","either","6","483","","","","","","","0","0","1","0.2905667849","","0.4","0.8","0.2","0.6","","","","","0.2905667849","0.4664653133","0.1177717736","0.3530973922","","","","","","","","","","72","H","0","img/none_selected.jpg","","218","main_expt",""
"","bandit","298","860845","0.0-260.0-0.0","99064856","wem/bandit_party_1","AHPQVIEIBZOAS","either","6","124","","","","","","","0","1","0","","0.2701708387","0.4","0.8","0.2","0.6","0.2701708387","0.4636837267","0.1178729669","0.3837093308","","","","","","","","","","","","","","72","H","0","img/none_selected.jpg","","219","main_expt",""
"","bandit","299","862730","0.0-261.0-0.0","99064856","wem/bandit_party_1","AHPQVIEIBZOAS","either","6","353","","","","","","","0","0","1","","0.2395453957","0.4","0.8","0.2","0.6","0.2395453957","0.4599900571","0.1284790336","0.3651541458","","","","","","","","","","","","","","72","H","0","img/none_selected.jpg","","220","main_expt",""
"","bandit","300","864819","0.0-262.0-0.0","99064856","wem/bandit_party_1","AHPQVIEIBZOAS","either","6","556","","","","","","","0","0","1","0.2770622605","","0.4","0.8","0.2","0.6","","","","","0.2770622605","0.4490722186","0.147465279","0.254085412","","","","","","","","","","72","H","0","img/none_selected.jpg","","221","main_expt",""
"","bandit","301","866681","0.0-263.0-0.0","99064856","wem/bandit_party_1","AHPQVIEIBZOAS","either","6","331","","","","","","","0","0","1","","0.3390746663","0.4","0.8","0.2","0.6","0.3390746663","0.4253353094","0.1441925756","0.2590796483","","","","","","","","","","","","","","72","H","0","img/none_selected.jpg","","222","main_expt",""
"","bandit","302","868656","0.0-264.0-0.0","99064856","wem/bandit_party_1","AHPQVIEIBZOAS","either","6","450","","","","","","","0","0","1","","0.384843876","0.4","0.8","0.2","0.6","0.384843876","0.4559825987","0.1731110736","0.2640852941","","","","","","","","","","","","","","72","H","0","img/none_selected.jpg","","223","main_expt",""
"","bandit","303","870664","0.0-265.0-0.0","99064856","wem/bandit_party_1","AHPQVIEIBZOAS","either","6","466","","","","","","","0","0","1","","0.4367619307","0.4","0.8","0.2","0.6","0.4367619307","0.464560515","0.1124600034","0.2636590797","","","","","","","","","","","","","","72","H","0","img/none_selected.jpg","","224","main_expt",""
"","bandit","304","872669","0.0-266.0-0.0","99064856","wem/bandit_party_1","AHPQVIEIBZOAS","either","6","466","","","","","","","0","0","1","","0.42055701","0.4","0.8","0.2","0.6","0.42055701","0.4528378766","0.1174510337","0.3110444069","","","","","","","","","","","","","","72","H","0","img/none_selected.jpg","","225","main_expt",""
"","bandit","305","874547","0.0-267.0-0.0","99064856","wem/bandit_party_1","AHPQVIEIBZOAS","either","6","359","","","","","","","0","0","1","","0.4282593698","0.4","0.8","0.2","0.6","0.4282593698","0.4585160156","0.1494320736","0.3268768972","","","","","","","","","","","","","","72","H","0","img/none_selected.jpg","","226","main_expt",""
"","bandit","306","876547","0.0-268.0-0.0","99064856","wem/bandit_party_1","AHPQVIEIBZOAS","either","6","467","","","","","","","0","0","1","0.4213985596","","0.4","0.8","0.2","0.6","","","","","0.4213985596","0.4525914875","0.1655037845","0.3112991039","","","","","","","","","","72","H","0","img/none_selected.jpg","","227","main_expt",""
"","bandit","307","878534","0.0-269.0-0.0","99064856","wem/bandit_party_1","AHPQVIEIBZOAS","either","6","449","","","","","","","0","1","0","","0.4115599459","0.4","0.8","0.2","0.6","0.4115599459","0.4618810074","0.1595877114","0.3481066565","","","","","","","","","","","","","","72","H","0","img/none_selected.jpg","","228","main_expt",""
"","bandit","308","880405","0.0-270.0-0.0","99064856","wem/bandit_party_1","AHPQVIEIBZOAS","either","6","324","","","","","","","0","0","1","","0.375967734","0.4","0.8","0.2","0.6","0.375967734","0.4661541784","0.1811982871","0.3267856819","","","","","","","","","","","","","","72","H","0","img/none_selected.jpg","","229","main_expt",""
"","bandit","309","882229","0.0-271.0-0.0","99064856","wem/bandit_party_1","AHPQVIEIBZOAS","either","6","294","","","","","","","0","0","1","","0.4172813036","0.4","0.8","0.2","0.6","0.4172813036","0.4681373403","0.2088208598","0.3043034776","","","","","","","","","","","","","","72","H","0","img/none_selected.jpg","","230","main_expt",""
"","bandit","310","883971","0.0-272.0-0.0","99064856","wem/bandit_party_1","AHPQVIEIBZOAS","either","6","212","","","","","","","0","1","0","","0.3871641603","0.4","0.8","0.2","0.6","0.3871641603","0.4733838814","0.2062946352","0.3127123154","","","","","","","","","","","","","","72","H","0","img/none_selected.jpg","","231","main_expt",""
"","bandit","311","885961","0.0-273.0-0.0","99064856","wem/bandit_party_1","AHPQVIEIBZOAS","either","6","474","","","","","","","0","0","1","","0.3381606844","0.4","0.8","0.2","0.6","0.3381606844","0.455942125","0.1448621505","0.3039198066","","","","","","","","","","","","","","72","H","0","img/none_selected.jpg","","232","main_expt",""
"","bandit","312","887708","0.0-274.0-0.0","99064856","wem/bandit_party_1","AHPQVIEIBZOAS","either","6","210","","","","","","","0","0","1","","0.2918198365","0.4","0.8","0.2","0.6","0.2918198365","0.4523014459","0.1096360744","0.2846072758","","","","","","","","","","","","","","72","H","0","img/none_selected.jpg","","233","main_expt",""
"","bandit","313","889564","0.0-275.0-0.0","99064856","wem/bandit_party_1","AHPQVIEIBZOAS","either","6","317","","","","","","","0","0","1","","0.3016980071","0.4","0.8","0.2","0.6","0.3016980071","0.4715877437","0.1102272527","0.2430061478","","","","","","","","","","","","","","72","H","0","img/none_selected.jpg","","234","main_expt",""
"","bandit","314","891105","0.0-276.0-0.0","99064856","wem/bandit_party_1","AHPQVIEIBZOAS","either","6","2","","","","","","","0","0","1","0.2940059945","","0.4","0.8","0.2","0.6","","","","","0.2940059945","0.4667146267","0.1428859574","0.263037213","","","","","","","","","","72","H","0","img/none_selected.jpg","","235","main_expt",""
"","bandit","315","893435","0.0-277.0-0.0","99064856","wem/bandit_party_1","AHPQVIEIBZOAS","either","6","808","","","","","","","0","0","1","0.2926833733","","0.4","0.8","0.2","0.6","","","","","0.2926833733","0.4638430617","0.1659437887","0.2976510001","","","","","","","","","","72","H","0","img/none_selected.jpg","","236","main_expt",""
